{
  "resourceType": "Bundle",
  "id": "tests-DENOMPass-FirstArterialpH-bundle",
  "type": "transaction",
  "entry": [ {
    "fullUrl": "https://madie.cms.gov/Encounter/002a797f-0b8d-4750-b9e9-ef7293c138cc",
    "resource": {
      "resourceType": "Encounter",
      "id": "002a797f-0b8d-4750-b9e9-ef7293c138cc",
      "meta": {
        "profile": [ "http://hl7.org/fhir/us/qicore/StructureDefinition/qicore-encounter" ]
      },
      "status": "finished",
      "class": {
        "system": "http://terminology.hl7.org/CodeSystem/v3-ActCode",
        "code": "IMP",
        "display": "inpatient encounter"
      },
      "type": [ {
        "coding": [ {
          "system": "http://snomed.info/sct",
          "code": "112689000",
          "display": "Hospital admission, elective, with complete pre-admission work-up"
        } ],
        "text": "Hospital admission, elective, with complete pre-admission work-up"
      } ],
      "priority": {
        "coding": [ {
          "system": "http://snomed.info/sct",
          "code": "103390000"
        } ]
      },
      "subject": {
        "reference": "Patient/34cb56f5-60cb-45c7-8da6-b8407bc799b9"
      },
      "period": {
        "start": "2026-04-10T08:00:00+00:00",
        "end": "2026-04-14T08:15:00+00:00"
      },
      "diagnosis": [ {
        "condition": {
          "reference": "Procedure/59208226-d44e-45ee-a550-7390184713da"
        },
        "rank": 1
      } ]
    },
    "request": {
      "method": "PUT",
      "url": "Encounter/002a797f-0b8d-4750-b9e9-ef7293c138cc"
    }
  }, {
    "fullUrl": "https://madie.cms.gov/Observation/0706aa80-36ee-4b7f-9dd4-510162b9854d",
    "resource": {
      "resourceType": "Observation",
      "id": "0706aa80-36ee-4b7f-9dd4-510162b9854d",
      "meta": {
        "profile": [ "http://hl7.org/fhir/us/qicore/StructureDefinition/qicore-observation" ]
      },
      "status": "final",
      "category": [ {
        "coding": [ {
          "system": "http://terminology.hl7.org/CodeSystem/observation-category",
          "code": "laboratory",
          "display": "Laboratory"
        } ],
        "text": "Laboratory"
      } ],
      "code": {
        "coding": [ {
          "system": "http://loinc.org",
          "code": "2744-1",
          "display": "pH of Arterial blood"
        } ],
        "text": "pH of Arterial blood"
      },
      "subject": {
        "reference": "Patient/34cb56f5-60cb-45c7-8da6-b8407bc799b9"
      },
      "encounter": {
        "reference": "Encounter/002a797f-0b8d-4750-b9e9-ef7293c138cc"
      },
      "effectiveDateTime": "2026-04-11T08:05:00+00:00",
      "valueQuantity": {
        "value": 7.35,
        "unit": "pH",
        "system": "http://unitsofmeasure.org",
        "code": "[pH]"
      }
    },
    "request": {
      "method": "PUT",
      "url": "Observation/0706aa80-36ee-4b7f-9dd4-510162b9854d"
    }
  }, {
    "fullUrl": "https://madie.cms.gov/Observation/8ea18789-d650-4dd4-a3aa-f67d68363850",
    "resource": {
      "resourceType": "Observation",
      "id": "8ea18789-d650-4dd4-a3aa-f67d68363850",
      "meta": {
        "profile": [ "http://hl7.org/fhir/us/qicore/StructureDefinition/qicore-observation" ]
      },
      "status": "final",
      "category": [ {
        "coding": [ {
          "system": "http://terminology.hl7.org/CodeSystem/observation-category",
          "code": "laboratory",
          "display": "Laboratory"
        } ],
        "text": "Laboratory"
      } ],
      "code": {
        "coding": [ {
          "system": "http://loinc.org",
          "code": "2744-1",
          "display": "pH of Arterial blood"
        } ],
        "text": "pH of Arterial blood"
      },
      "subject": {
        "reference": "Patient/34cb56f5-60cb-45c7-8da6-b8407bc799b9"
      },
      "encounter": {
        "reference": "Encounter/002a797f-0b8d-4750-b9e9-ef7293c138cc"
      },
      "effectiveDateTime": "2026-04-12T09:32:00+00:00",
      "valueQuantity": {
        "value": 7.5,
        "unit": "pH",
        "system": "http://unitsofmeasure.org",
        "code": "[pH]"
      }
    },
    "request": {
      "method": "PUT",
      "url": "Observation/8ea18789-d650-4dd4-a3aa-f67d68363850"
    }
  }, {
    "fullUrl": "https://madie.cms.gov/Patient/34cb56f5-60cb-45c7-8da6-b8407bc799b9",
    "resource": {
      "resourceType": "Patient",
      "id": "34cb56f5-60cb-45c7-8da6-b8407bc799b9",
      "meta": {
        "profile": [ "http://hl7.org/fhir/us/qicore/StructureDefinition/qicore-patient" ]
      },
      "extension": [ {
        "url": "http://hl7.org/fhir/us/core/StructureDefinition/us-core-race",
        "extension": [ {
          "url": "ombCategory",
          "valueCoding": {
            "system": "urn:oid:2.16.840.1.113883.6.238",
            "code": "2054-5",
            "display": "Black or African American",
            "userSelected": true
          }
        }, {
          "url": "text",
          "valueString": "Black or African American"
        } ]
      }, {
        "url": "http://hl7.org/fhir/us/core/StructureDefinition/us-core-ethnicity",
        "extension": [ {
          "url": "ombCategory",
          "valueCoding": {
            "system": "urn:oid:2.16.840.1.113883.6.238",
            "code": "2186-5",
            "display": "Not Hispanic or Latino",
            "userSelected": true
          }
        }, {
          "url": "text",
          "valueString": "Not Hispanic or Latino"
        } ]
      } ],
      "identifier": [ {
        "type": {
          "coding": [ {
            "system": "http://terminology.hl7.org/CodeSystem/v2-0203",
            "code": "MR"
          } ]
        },
        "system": "https://bonnie-fhir.healthit.gov/",
        "value": "61152a3b98086b7a79cbd7c1"
      } ],
      "active": true,
      "name": [ {
        "use": "usual",
        "family": "DENOMPass",
        "given": [ "FirstArterialpH" ]
      } ],
      "gender": "female",
      "birthDate": "1966-07-12"
    },
    "request": {
      "method": "PUT",
      "url": "Patient/34cb56f5-60cb-45c7-8da6-b8407bc799b9"
    }
  }, {
    "fullUrl": "https://madie.cms.gov/Procedure/59208226-d44e-45ee-a550-7390184713da",
    "resource": {
      "resourceType": "Procedure",
      "id": "59208226-d44e-45ee-a550-7390184713da",
      "meta": {
        "profile": [ "http://hl7.org/fhir/us/qicore/StructureDefinition/qicore-procedure" ]
      },
      "extension": [ {
        "url": "http://hl7.org/fhir/us/qicore/StructureDefinition/qicore-recorded",
        "valueDateTime": "2026-04-11T10:30:00+00:00"
      } ],
      "status": "completed",
      "category": {
        "coding": [ {
          "system": "http://snomed.info/sct",
          "code": "18286008",
          "display": "General or neuraxial anesthesia"
        } ]
      },
      "code": {
        "coding": [ {
          "system": "http://snomed.info/sct",
          "code": "112943005",
          "display": "Epidural injection of anesthetic substance, diagnostic, caudal, continuous"
        } ]
      },
      "subject": {
        "reference": "Patient/34cb56f5-60cb-45c7-8da6-b8407bc799b9"
      },
      "performedPeriod": {
        "start": "2026-04-11T08:00:00+00:00",
        "end": "2026-04-11T10:15:00+00:00"
      }
    },
    "request": {
      "method": "PUT",
      "url": "Procedure/59208226-d44e-45ee-a550-7390184713da"
    }
  }, {
    "fullUrl": "https://madie.cms.gov/MeasureReport/2a869f53-49a9-4de4-983e-e78642ae71cb",
    "resource": {
      "resourceType": "MeasureReport",
      "id": "2a869f53-49a9-4de4-983e-e78642ae71cb",
      "meta": {
        "profile": [ "http://hl7.org/fhir/us/cqfmeasures/StructureDefinition/test-case-cqfm" ]
      },
      "contained": [ {
        "resourceType": "Parameters",
        "id": "9246bb7c-1c4e-41d6-8a42-80e7e8a9d93c-parameters",
        "parameter": [ {
          "name": "subject",
          "valueString": "34cb56f5-60cb-45c7-8da6-b8407bc799b9"
        } ]
      } ],
      "extension": [ {
        "url": "http://hl7.org/fhir/us/cqfmeasures/StructureDefinition/cqfm-inputParameters",
        "valueReference": {
          "reference": "#9246bb7c-1c4e-41d6-8a42-80e7e8a9d93c-parameters"
        }
      }, {
        "url": "http://hl7.org/fhir/us/cqfmeasures/StructureDefinition/cqfm-testCaseDescription",
        "valueMarkdown": "Elective hospitalization with procedure (general anesthesia) within first 3 days of encounter. Meets IPP/Denom. RV test includes 2 arterial pH values; RV displays the first (7.35) not the second (7.5), as expected. "
      } ],
      "modifierExtension": [ {
        "url": "http://hl7.org/fhir/us/cqfmeasures/StructureDefinition/cqfm-isTestCase",
        "valueBoolean": true
      } ],
      "status": "complete",
      "type": "individual",
      "measure": "https://madie.cms.gov/Measure/CMS1218HHRFFHIR",
      "period": {
        "start": "2026-01-01",
        "end": "2026-12-31"
      },
      "group": [ {
        "population": [ {
          "code": {
            "coding": [ {
              "system": "http://terminology.hl7.org/CodeSystem/measure-population",
              "code": "initial-population",
              "display": "Initial Population"
            } ]
          },
          "count": 1
        }, {
          "code": {
            "coding": [ {
              "system": "http://terminology.hl7.org/CodeSystem/measure-population",
              "code": "denominator",
              "display": "Denominator"
            } ]
          },
          "count": 1
        }, {
          "code": {
            "coding": [ {
              "system": "http://terminology.hl7.org/CodeSystem/measure-population",
              "code": "denominator-exclusion",
              "display": "Denominator Exclusion"
            } ]
          },
          "count": 0
        }, {
          "code": {
            "coding": [ {
              "system": "http://terminology.hl7.org/CodeSystem/measure-population",
              "code": "numerator",
              "display": "Numerator"
            } ]
          },
          "count": 0
        } ]
      } ],
      "evaluatedResource": [ {
        "reference": "Encounter/002a797f-0b8d-4750-b9e9-ef7293c138cc"
      }, {
        "reference": "Observation/0706aa80-36ee-4b7f-9dd4-510162b9854d"
      }, {
        "reference": "Observation/8ea18789-d650-4dd4-a3aa-f67d68363850"
      }, {
        "reference": "Patient/34cb56f5-60cb-45c7-8da6-b8407bc799b9"
      }, {
        "reference": "Procedure/59208226-d44e-45ee-a550-7390184713da"
      } ]
    },
    "request": {
      "method": "PUT",
      "url": "MeasureReport/2a869f53-49a9-4de4-983e-e78642ae71cb"
    }
  } ]
}