{
  "resourceType": "Bundle",
  "id": "612e6a9002c62a011f2ea5f6",
  "type": "transaction",
  "entry": [ {
    "fullUrl": "https://madie.cms.gov/Patient/9b105e54-ec6c-4235-a051-ee4da0ee4a40",
    "resource": {
      "resourceType": "Patient",
      "id": "9b105e54-ec6c-4235-a051-ee4da0ee4a40",
      "meta": {
        "profile": [ "http://hl7.org/fhir/us/qicore/StructureDefinition/qicore-patient" ]
      },
      "text": {
        "status": "generated",
        "div": "<div xmlns=\"http://www.w3.org/1999/xhtml\"><div class=\"hapiHeaderText\">DA_VFP_DayOfAdm_BfAdmDT <b>NUMERPASS </b></div><table class=\"hapiPropertyTable\"><tbody><tr><td>Identifier</td><td>af7fb96c408ff8f32d85ce64a563f18b</td></tr><tr><td>Date of birth</td><td><span>02 January 1974</span></td></tr></tbody></table></div>"
      },
      "extension": [ {
        "url": "http://hl7.org/fhir/us/core/StructureDefinition/us-core-race",
        "extension": [ {
          "url": "ombCategory",
          "valueCoding": {
            "system": "urn:oid:2.16.840.1.113883.6.238",
            "code": "1002-5",
            "display": "American Indian or Alaska Native",
            "userSelected": true
          }
        }, {
          "url": "text",
          "valueString": "American Indian or Alaska Native"
        } ]
      }, {
        "url": "http://hl7.org/fhir/us/core/StructureDefinition/us-core-ethnicity",
        "extension": [ {
          "url": "ombCategory",
          "valueCoding": {
            "system": "urn:oid:2.16.840.1.113883.6.238",
            "code": "2135-2",
            "display": "Hispanic or Latino",
            "userSelected": true
          }
        }, {
          "url": "text",
          "valueString": "Hispanic or Latino"
        } ]
      } ],
      "identifier": [ {
        "type": {
          "coding": [ {
            "system": "http://terminology.hl7.org/CodeSystem/v2-0203",
            "code": "MR"
          } ]
        },
        "system": "https://bonnie-fhir.healthit.gov/",
        "value": "612e6a9002c62a011f2ea5f6"
      } ],
      "active": true,
      "name": [ {
        "use": "usual",
        "family": "NUMERPass",
        "given": [ "DA_VFP_DayOfAdm_BfAdmDT" ]
      } ],
      "gender": "male",
      "birthDate": "1975-01-02"
    },
    "request": {
      "method": "PUT",
      "url": "Patient/9b105e54-ec6c-4235-a051-ee4da0ee4a40"
    }
  }, {
    "fullUrl": "https://madie.cms.gov/Encounter/7fdb664b-5edd-47ff-9607-2c53bfca58ca",
    "resource": {
      "resourceType": "Encounter",
      "id": "7fdb664b-5edd-47ff-9607-2c53bfca58ca",
      "meta": {
        "profile": [ "http://hl7.org/fhir/us/qicore/StructureDefinition/qicore-encounter" ]
      },
      "status": "finished",
      "class": {
        "system": "http://terminology.hl7.org/CodeSystem/v3-ActCode",
        "code": "IMP",
        "display": "inpatient encounter"
      },
      "type": [ {
        "coding": [ {
          "system": "http://snomed.info/sct",
          "code": "8715000"
        } ]
      } ],
      "subject": {
        "reference": "Patient/9b105e54-ec6c-4235-a051-ee4da0ee4a40"
      },
      "period": {
        "start": "2026-11-01T08:00:00+00:00",
        "end": "2026-11-26T08:15:00+00:00"
      },
      "length": {
        "value": 25.0,
        "unit": "days"
      }
    },
    "request": {
      "method": "PUT",
      "url": "Encounter/7fdb664b-5edd-47ff-9607-2c53bfca58ca"
    }
  }, {
    "fullUrl": "https://madie.cms.gov/Coverage/c3d5f4ec-27fb-407e-bc92-7ec329b978e8",
    "resource": {
      "resourceType": "Coverage",
      "id": "c3d5f4ec-27fb-407e-bc92-7ec329b978e8",
      "status": "active",
      "beneficiary": {
        "reference": "Patient/9b105e54-ec6c-4235-a051-ee4da0ee4a40"
      },
      "period": {
        "start": "1975-01-02T08:00:00+00:00"
      },
      "payor": [ {
        "reference": "Organization/f9cc007c-e580-449d-8f83-8555cd0f67ee"
      } ]
    },
    "request": {
      "method": "PUT",
      "url": "Coverage/c3d5f4ec-27fb-407e-bc92-7ec329b978e8"
    }
  }, {
    "fullUrl": "https://madie.cms.gov/Procedure/a36bd658-4173-451b-ae3c-3f08dfc4c80f",
    "resource": {
      "resourceType": "Procedure",
      "id": "a36bd658-4173-451b-ae3c-3f08dfc4c80f",
      "meta": {
        "profile": [ "http://hl7.org/fhir/us/qicore/StructureDefinition/qicore-procedure" ]
      },
      "extension": [ {
        "url": "http://hl7.org/fhir/us/qicore/StructureDefinition/qicore-recorded",
        "valueDateTime": "2013-11-19T09:35:00-04:00"
      } ],
      "status": "completed",
      "code": {
        "coding": [ {
          "system": "http://snomed.info/sct",
          "code": "18946005"
        } ]
      },
      "subject": {
        "reference": "Patient/9b105e54-ec6c-4235-a051-ee4da0ee4a40"
      },
      "performedPeriod": {
        "start": "2026-11-01T09:00:00+00:00",
        "end": "2026-11-01T09:15:00+00:00"
      }
    },
    "request": {
      "method": "PUT",
      "url": "Procedure/a36bd658-4173-451b-ae3c-3f08dfc4c80f"
    }
  }, {
    "fullUrl": "https://madie.cms.gov/Procedure/888a3f4e-84be-40d6-ae94-3b8baa0421a6",
    "resource": {
      "resourceType": "Procedure",
      "id": "888a3f4e-84be-40d6-ae94-3b8baa0421a6",
      "meta": {
        "profile": [ "http://hl7.org/fhir/us/qicore/StructureDefinition/qicore-procedure" ]
      },
      "extension": [ {
        "url": "http://hl7.org/fhir/us/qicore/StructureDefinition/qicore-recorded",
        "valueDateTime": "2013-11-01T09:35:00-04:00"
      } ],
      "status": "completed",
      "code": {
        "coding": [ {
          "system": "http://snomed.info/sct",
          "code": "442410008",
          "display": "Application of venous foot pump (procedure)"
        } ]
      },
      "subject": {
        "reference": "Patient/9b105e54-ec6c-4235-a051-ee4da0ee4a40"
      },
      "performedDateTime": "2026-11-02T07:00:00.000+00:00",
      "usedCode": [ {
        "coding": [ {
          "system": "http://snomed.info/sct",
          "code": "442023007",
          "display": "Venous foot pump, device (physical object)",
          "userSelected": true
        } ]
      } ]
    },
    "request": {
      "method": "PUT",
      "url": "Procedure/888a3f4e-84be-40d6-ae94-3b8baa0421a6"
    }
  }, {
    "fullUrl": "https://madie.cms.gov/Organization/f9cc007c-e580-449d-8f83-8555cd0f67ee",
    "resource": {
      "resourceType": "Organization",
      "id": "f9cc007c-e580-449d-8f83-8555cd0f67ee",
      "meta": {
        "profile": [ "http://hl7.org/fhir/us/qicore/StructureDefinition/qicore-organization" ]
      },
      "identifier": [ {
        "use": "temp",
        "system": "urn:oid:2.16.840.1.113883.4.4",
        "value": "21-3259825"
      } ],
      "active": true,
      "type": [ {
        "coding": [ {
          "system": "http://terminology.hl7.org/CodeSystem/organization-type",
          "code": "pay",
          "display": "Payer"
        } ]
      } ],
      "name": "Blue Cross Blue Shield of Texas",
      "telecom": [ {
        "system": "phone",
        "value": "(+1) 972-766-6900"
      } ],
      "address": [ {
        "use": "billing",
        "type": "postal",
        "line": [ "P.O. Box 660044" ],
        "city": "Dallas",
        "state": "TX",
        "postalCode": "75266-0044",
        "country": "USA"
      } ]
    },
    "request": {
      "method": "PUT",
      "url": "Organization/f9cc007c-e580-449d-8f83-8555cd0f67ee"
    }
  }, {
    "fullUrl": "https://madie.cms.gov/Practitioner/9197b52c-1cfa-4173-9a3b-838d0574306d",
    "resource": {
      "resourceType": "Practitioner",
      "id": "9197b52c-1cfa-4173-9a3b-838d0574306d",
      "identifier": [ {
        "system": "http://hl7.org/fhir/sid/us-npi",
        "value": "123456"
      } ],
      "name": [ {
        "family": "Evil",
        "prefix": [ "Dr" ]
      } ]
    },
    "request": {
      "method": "PUT",
      "url": "Practitioner/9197b52c-1cfa-4173-9a3b-838d0574306d"
    }
  }, {
    "fullUrl": "https://madie.cms.gov/MeasureReport/2f4924d1-094c-4ee7-b923-e30e4f9fbad6",
    "resource": {
      "resourceType": "MeasureReport",
      "id": "2f4924d1-094c-4ee7-b923-e30e4f9fbad6",
      "meta": {
        "profile": [ "http://hl7.org/fhir/us/cqfmeasures/StructureDefinition/test-case-cqfm" ]
      },
      "contained": [ {
        "resourceType": "Parameters",
        "id": "432fd2a9-234e-4d62-b1b3-c2e55c8efc42-parameters",
        "parameter": [ {
          "name": "subject",
          "valueString": "9b105e54-ec6c-4235-a051-ee4da0ee4a40"
        } ]
      } ],
      "extension": [ {
        "url": "http://hl7.org/fhir/us/cqfmeasures/StructureDefinition/cqfm-inputParameters",
        "valueReference": {
          "reference": "#432fd2a9-234e-4d62-b1b3-c2e55c8efc42-parameters"
        }
      }, {
        "url": "http://hl7.org/fhir/us/cqfmeasures/StructureDefinition/cqfm-testCaseDescription",
        "valueMarkdown": "vfp applied on the same day of admission date but it was before adm time"
      } ],
      "modifierExtension": [ {
        "url": "http://hl7.org/fhir/us/cqfmeasures/StructureDefinition/cqfm-isTestCase",
        "valueBoolean": true
      } ],
      "status": "complete",
      "type": "individual",
      "measure": "https://madie.cms.gov/Measure/CMS108VTEProphylaxisFHIR",
      "period": {
        "start": "2026-01-01",
        "end": "2026-12-31"
      },
      "group": [ {
        "population": [ {
          "code": {
            "coding": [ {
              "system": "http://terminology.hl7.org/CodeSystem/measure-population",
              "code": "initial-population",
              "display": "Initial Population"
            } ]
          },
          "count": 1
        }, {
          "code": {
            "coding": [ {
              "system": "http://terminology.hl7.org/CodeSystem/measure-population",
              "code": "denominator",
              "display": "Denominator"
            } ]
          },
          "count": 1
        }, {
          "code": {
            "coding": [ {
              "system": "http://terminology.hl7.org/CodeSystem/measure-population",
              "code": "denominator-exclusion",
              "display": "Denominator Exclusion"
            } ]
          },
          "count": 0
        }, {
          "code": {
            "coding": [ {
              "system": "http://terminology.hl7.org/CodeSystem/measure-population",
              "code": "numerator",
              "display": "Numerator"
            } ]
          },
          "count": 1
        } ]
      } ],
      "evaluatedResource": [ {
        "reference": "Patient/9b105e54-ec6c-4235-a051-ee4da0ee4a40"
      }, {
        "reference": "Encounter/7fdb664b-5edd-47ff-9607-2c53bfca58ca"
      }, {
        "reference": "Coverage/c3d5f4ec-27fb-407e-bc92-7ec329b978e8"
      }, {
        "reference": "Procedure/a36bd658-4173-451b-ae3c-3f08dfc4c80f"
      }, {
        "reference": "Procedure/888a3f4e-84be-40d6-ae94-3b8baa0421a6"
      }, {
        "reference": "Organization/f9cc007c-e580-449d-8f83-8555cd0f67ee"
      }, {
        "reference": "Practitioner/9197b52c-1cfa-4173-9a3b-838d0574306d"
      } ]
    },
    "request": {
      "method": "PUT",
      "url": "MeasureReport/2f4924d1-094c-4ee7-b923-e30e4f9fbad6"
    }
  } ]
}