{
  "resourceType": "Bundle",
  "id": "612e6a9c02c62a011f2ea93c",
  "type": "transaction",
  "entry": [ {
    "fullUrl": "https://madie.cms.gov/Patient/4fe13533-3514-48d8-aba0-a7c790e796cc",
    "resource": {
      "resourceType": "Patient",
      "id": "4fe13533-3514-48d8-aba0-a7c790e796cc",
      "meta": {
        "profile": [ "http://hl7.org/fhir/us/qicore/StructureDefinition/qicore-patient" ]
      },
      "text": {
        "status": "generated",
        "div": "<div xmlns=\"http://www.w3.org/1999/xhtml\"><div class=\"hapiHeaderText\">MA_Glyco1DayAfterAnes <b>NUMERPASS </b></div><table class=\"hapiPropertyTable\"><tbody><tr><td>Identifier</td><td>66d2578ee9fbf1a6dd6e4e6d73908c98</td></tr><tr><td>Date of birth</td><td><span>02 January 1974</span></td></tr></tbody></table></div>"
      },
      "extension": [ {
        "url": "http://hl7.org/fhir/us/core/StructureDefinition/us-core-race",
        "extension": [ {
          "url": "ombCategory",
          "valueCoding": {
            "system": "urn:oid:2.16.840.1.113883.6.238",
            "code": "1002-5",
            "display": "American Indian or Alaska Native",
            "userSelected": true
          }
        }, {
          "url": "text",
          "valueString": "American Indian or Alaska Native"
        } ]
      }, {
        "url": "http://hl7.org/fhir/us/core/StructureDefinition/us-core-ethnicity",
        "extension": [ {
          "url": "ombCategory",
          "valueCoding": {
            "system": "urn:oid:2.16.840.1.113883.6.238",
            "code": "2135-2",
            "display": "Hispanic or Latino",
            "userSelected": true
          }
        }, {
          "url": "text",
          "valueString": "Hispanic or Latino"
        } ]
      } ],
      "identifier": [ {
        "type": {
          "coding": [ {
            "system": "http://terminology.hl7.org/CodeSystem/v2-0203",
            "code": "MR"
          } ]
        },
        "system": "https://bonnie-fhir.healthit.gov/",
        "value": "612e6a9c02c62a011f2ea93c"
      } ],
      "active": true,
      "name": [ {
        "use": "usual",
        "family": "NUMERPass",
        "given": [ "MA_Glyco1DayAfterAnes" ]
      } ],
      "gender": "male",
      "birthDate": "1975-01-02"
    },
    "request": {
      "method": "PUT",
      "url": "Patient/4fe13533-3514-48d8-aba0-a7c790e796cc"
    }
  }, {
    "fullUrl": "https://madie.cms.gov/Encounter/21515f19-dd43-4132-bfde-56053b6e40eb",
    "resource": {
      "resourceType": "Encounter",
      "id": "21515f19-dd43-4132-bfde-56053b6e40eb",
      "meta": {
        "profile": [ "http://hl7.org/fhir/us/qicore/StructureDefinition/qicore-encounter" ]
      },
      "status": "finished",
      "class": {
        "system": "http://terminology.hl7.org/CodeSystem/v3-ActCode",
        "code": "IMP",
        "display": "inpatient encounter"
      },
      "type": [ {
        "coding": [ {
          "system": "http://snomed.info/sct",
          "code": "8715000"
        } ]
      } ],
      "subject": {
        "reference": "Patient/4fe13533-3514-48d8-aba0-a7c790e796cc"
      },
      "period": {
        "start": "2026-11-01T08:00:00+00:00",
        "end": "2026-11-26T08:15:00+00:00"
      },
      "length": {
        "value": 25.0,
        "unit": "days"
      }
    },
    "request": {
      "method": "PUT",
      "url": "Encounter/21515f19-dd43-4132-bfde-56053b6e40eb"
    }
  }, {
    "fullUrl": "https://madie.cms.gov/Coverage/391cd983-82ac-4ad3-bddf-c315e8d1e1f4",
    "resource": {
      "resourceType": "Coverage",
      "id": "391cd983-82ac-4ad3-bddf-c315e8d1e1f4",
      "status": "active",
      "beneficiary": {
        "reference": "Patient/4fe13533-3514-48d8-aba0-a7c790e796cc"
      },
      "period": {
        "start": "1975-01-02T08:00:00+00:00"
      },
      "payor": [ {
        "reference": "Organization/35ec0bcf-4286-4dae-879c-7b14076f8e0b"
      } ]
    },
    "request": {
      "method": "PUT",
      "url": "Coverage/391cd983-82ac-4ad3-bddf-c315e8d1e1f4"
    }
  }, {
    "fullUrl": "https://madie.cms.gov/MedicationAdministration/cf9dbb65-1e17-4019-9aff-cfdf5122d35a",
    "resource": {
      "resourceType": "MedicationAdministration",
      "id": "cf9dbb65-1e17-4019-9aff-cfdf5122d35a",
      "meta": {
        "profile": [ "http://hl7.org/fhir/us/qicore/StructureDefinition/qicore-medicationadministration" ]
      },
      "status": "completed",
      "medicationCodeableConcept": {
        "coding": [ {
          "system": "http://www.nlm.nih.gov/research/umls/rxnorm",
          "code": "200349"
        } ]
      },
      "subject": {
        "reference": "Patient/4fe13533-3514-48d8-aba0-a7c790e796cc"
      },
      "effectivePeriod": {
        "start": "2026-11-03T11:00:00+00:00",
        "end": "2026-11-03T11:15:00+00:00"
      }
    },
    "request": {
      "method": "PUT",
      "url": "MedicationAdministration/cf9dbb65-1e17-4019-9aff-cfdf5122d35a"
    }
  }, {
    "fullUrl": "https://madie.cms.gov/Procedure/e953dcc1-c5c1-4738-9f36-197f5dc37e2b",
    "resource": {
      "resourceType": "Procedure",
      "id": "e953dcc1-c5c1-4738-9f36-197f5dc37e2b",
      "meta": {
        "profile": [ "http://hl7.org/fhir/us/qicore/StructureDefinition/qicore-procedure" ]
      },
      "extension": [ {
        "url": "http://hl7.org/fhir/us/qicore/StructureDefinition/qicore-recorded",
        "valueDateTime": "2013-11-03T09:35:00-04:00"
      } ],
      "status": "completed",
      "code": {
        "coding": [ {
          "system": "http://www.cms.gov/Medicare/Coding/ICD10",
          "code": "3E030FZ"
        }, {
          "system": "http://snomed.info/sct",
          "code": "18946005"
        } ]
      },
      "subject": {
        "reference": "Patient/4fe13533-3514-48d8-aba0-a7c790e796cc"
      },
      "performedPeriod": {
        "start": "2026-11-02T09:00:00+00:00",
        "end": "2026-11-02T10:15:00+00:00"
      }
    },
    "request": {
      "method": "PUT",
      "url": "Procedure/e953dcc1-c5c1-4738-9f36-197f5dc37e2b"
    }
  }, {
    "fullUrl": "https://madie.cms.gov/Organization/35ec0bcf-4286-4dae-879c-7b14076f8e0b",
    "resource": {
      "resourceType": "Organization",
      "id": "35ec0bcf-4286-4dae-879c-7b14076f8e0b",
      "meta": {
        "profile": [ "http://hl7.org/fhir/us/qicore/StructureDefinition/qicore-organization" ]
      },
      "identifier": [ {
        "use": "temp",
        "system": "urn:oid:2.16.840.1.113883.4.4",
        "value": "21-3259825"
      } ],
      "active": true,
      "type": [ {
        "coding": [ {
          "system": "http://terminology.hl7.org/CodeSystem/organization-type",
          "code": "pay",
          "display": "Payer"
        } ]
      } ],
      "name": "Blue Cross Blue Shield of Texas",
      "telecom": [ {
        "system": "phone",
        "value": "(+1) 972-766-6900"
      } ],
      "address": [ {
        "use": "billing",
        "type": "postal",
        "line": [ "P.O. Box 660044" ],
        "city": "Dallas",
        "state": "TX",
        "postalCode": "75266-0044",
        "country": "USA"
      } ]
    },
    "request": {
      "method": "PUT",
      "url": "Organization/35ec0bcf-4286-4dae-879c-7b14076f8e0b"
    }
  }, {
    "fullUrl": "https://madie.cms.gov/Practitioner/b97880bd-9bcb-4088-ac02-6e490e6cff7f",
    "resource": {
      "resourceType": "Practitioner",
      "id": "b97880bd-9bcb-4088-ac02-6e490e6cff7f",
      "identifier": [ {
        "system": "http://hl7.org/fhir/sid/us-npi",
        "value": "123456"
      } ],
      "name": [ {
        "family": "Evil",
        "prefix": [ "Dr" ]
      } ]
    },
    "request": {
      "method": "PUT",
      "url": "Practitioner/b97880bd-9bcb-4088-ac02-6e490e6cff7f"
    }
  }, {
    "fullUrl": "https://madie.cms.gov/MeasureReport/419f91cf-a8f7-451c-8fe0-40bdaf02a5cd",
    "resource": {
      "resourceType": "MeasureReport",
      "id": "419f91cf-a8f7-451c-8fe0-40bdaf02a5cd",
      "meta": {
        "profile": [ "http://hl7.org/fhir/us/cqfmeasures/StructureDefinition/test-case-cqfm" ]
      },
      "contained": [ {
        "resourceType": "Parameters",
        "id": "e3561708-5cf4-48ee-a9e5-7969c9cb6828-parameters",
        "parameter": [ {
          "name": "subject",
          "valueString": "4fe13533-3514-48d8-aba0-a7c790e796cc"
        } ]
      } ],
      "extension": [ {
        "url": "http://hl7.org/fhir/us/cqfmeasures/StructureDefinition/cqfm-inputParameters",
        "valueReference": {
          "reference": "#e3561708-5cf4-48ee-a9e5-7969c9cb6828-parameters"
        }
      }, {
        "url": "http://hl7.org/fhir/us/cqfmeasures/StructureDefinition/cqfm-testCaseDescription",
        "valueMarkdown": "Glycoprotein IIb/IIIa Inhibitors administered = 1 day after end of anesthesia\n"
      } ],
      "modifierExtension": [ {
        "url": "http://hl7.org/fhir/us/cqfmeasures/StructureDefinition/cqfm-isTestCase",
        "valueBoolean": true
      } ],
      "status": "complete",
      "type": "individual",
      "measure": "https://madie.cms.gov/Measure/CMS108VTEProphylaxisFHIR",
      "period": {
        "start": "2026-01-01",
        "end": "2026-12-31"
      },
      "group": [ {
        "population": [ {
          "code": {
            "coding": [ {
              "system": "http://terminology.hl7.org/CodeSystem/measure-population",
              "code": "initial-population",
              "display": "Initial Population"
            } ]
          },
          "count": 1
        }, {
          "code": {
            "coding": [ {
              "system": "http://terminology.hl7.org/CodeSystem/measure-population",
              "code": "denominator",
              "display": "Denominator"
            } ]
          },
          "count": 1
        }, {
          "code": {
            "coding": [ {
              "system": "http://terminology.hl7.org/CodeSystem/measure-population",
              "code": "denominator-exclusion",
              "display": "Denominator Exclusion"
            } ]
          },
          "count": 0
        }, {
          "code": {
            "coding": [ {
              "system": "http://terminology.hl7.org/CodeSystem/measure-population",
              "code": "numerator",
              "display": "Numerator"
            } ]
          },
          "count": 1
        } ]
      } ],
      "evaluatedResource": [ {
        "reference": "Patient/4fe13533-3514-48d8-aba0-a7c790e796cc"
      }, {
        "reference": "Encounter/21515f19-dd43-4132-bfde-56053b6e40eb"
      }, {
        "reference": "Coverage/391cd983-82ac-4ad3-bddf-c315e8d1e1f4"
      }, {
        "reference": "MedicationAdministration/cf9dbb65-1e17-4019-9aff-cfdf5122d35a"
      }, {
        "reference": "Procedure/e953dcc1-c5c1-4738-9f36-197f5dc37e2b"
      }, {
        "reference": "Organization/35ec0bcf-4286-4dae-879c-7b14076f8e0b"
      }, {
        "reference": "Practitioner/b97880bd-9bcb-4088-ac02-6e490e6cff7f"
      } ]
    },
    "request": {
      "method": "PUT",
      "url": "MeasureReport/419f91cf-a8f7-451c-8fe0-40bdaf02a5cd"
    }
  } ]
}