{
  "resourceType": "Bundle",
  "id": "6129134202c62a011f2e6bcc",
  "type": "transaction",
  "entry": [ {
    "fullUrl": "https://madie.cms.gov/Patient/ac56c496-c5d6-4c23-be20-130ee8327fd2",
    "resource": {
      "resourceType": "Patient",
      "id": "ac56c496-c5d6-4c23-be20-130ee8327fd2",
      "meta": {
        "profile": [ "http://hl7.org/fhir/us/qicore/StructureDefinition/qicore-patient" ]
      },
      "text": {
        "status": "generated",
        "div": "<div xmlns=\"http://www.w3.org/1999/xhtml\"><div class=\"hapiHeaderText\">MedRsnStartTmEQEncInpAdmTm <b>DENEXCEPPASS </b></div><table class=\"hapiPropertyTable\"><tbody><tr><td>Identifier</td><td>ca70b301bcb66282d1eb52cc9e0953f6</td></tr><tr><td>Date of birth</td><td><span>21 August 1994</span></td></tr></tbody></table></div>"
      },
      "extension": [ {
        "url": "http://hl7.org/fhir/us/core/StructureDefinition/us-core-race",
        "extension": [ {
          "url": "ombCategory",
          "valueCoding": {
            "system": "urn:oid:2.16.840.1.113883.6.238",
            "code": "1002-5",
            "display": "American Indian or Alaska Native",
            "userSelected": true
          }
        }, {
          "url": "text",
          "valueString": "American Indian or Alaska Native"
        } ]
      }, {
        "url": "http://hl7.org/fhir/us/core/StructureDefinition/us-core-ethnicity",
        "extension": [ {
          "url": "ombCategory",
          "valueCoding": {
            "system": "urn:oid:2.16.840.1.113883.6.238",
            "code": "2135-2",
            "display": "Hispanic or Latino",
            "userSelected": true
          }
        }, {
          "url": "text",
          "valueString": "Hispanic or Latino"
        } ]
      } ],
      "identifier": [ {
        "type": {
          "coding": [ {
            "system": "http://terminology.hl7.org/CodeSystem/v2-0203",
            "code": "MR"
          } ]
        },
        "system": "https://bonnie-fhir.healthit.gov/",
        "value": "6129134202c62a011f2e6bcc"
      } ],
      "active": true,
      "name": [ {
        "use": "usual",
        "family": "DENEXCEPPass",
        "given": [ "MedRsnStartTmEQEncInpAdmTm" ]
      } ],
      "gender": "male",
      "birthDate": "1995-08-21"
    },
    "request": {
      "method": "PUT",
      "url": "Patient/ac56c496-c5d6-4c23-be20-130ee8327fd2"
    }
  }, {
    "fullUrl": "https://madie.cms.gov/Encounter/769e3f00-4226-49cc-92ba-cd22b6c08153",
    "resource": {
      "resourceType": "Encounter",
      "id": "769e3f00-4226-49cc-92ba-cd22b6c08153",
      "meta": {
        "profile": [ "http://hl7.org/fhir/us/qicore/StructureDefinition/qicore-encounter" ]
      },
      "status": "finished",
      "class": {
        "system": "http://terminology.hl7.org/CodeSystem/v3-ActCode",
        "code": "IMP",
        "display": "inpatient encounter",
        "userSelected": true
      },
      "type": [ {
        "coding": [ {
          "system": "http://snomed.info/sct",
          "code": "32485007"
        } ]
      } ],
      "subject": {
        "reference": "Patient/ac56c496-c5d6-4c23-be20-130ee8327fd2"
      },
      "period": {
        "start": "2026-10-10T09:30:00.000+00:00",
        "end": "2026-10-12T10:30:00.000+00:00"
      },
      "length": {
        "value": 2,
        "unit": "days"
      },
      "diagnosis": [ {
        "condition": {
          "reference": "Condition/8bbd7698-8163-4556-aad0-7bfa250aef32"
        },
        "use": {
          "coding": [ {
            "system": "http://terminology.hl7.org/CodeSystem/diagnosis-role",
            "code": "billing",
            "display": "Billing"
          } ]
        },
        "rank": 1
      } ]
    },
    "request": {
      "method": "PUT",
      "url": "Encounter/769e3f00-4226-49cc-92ba-cd22b6c08153"
    }
  }, {
    "fullUrl": "https://madie.cms.gov/MedicationRequest/b8a0f3ec-31a9-43f7-860a-a1d579981ce7",
    "resource": {
      "resourceType": "MedicationRequest",
      "id": "b8a0f3ec-31a9-43f7-860a-a1d579981ce7",
      "meta": {
        "profile": [ "http://hl7.org/fhir/us/qicore/StructureDefinition/qicore-mednotrequested" ]
      },
      "status": "completed",
      "intent": "order",
      "category": [ {
        "coding": [ {
          "system": "http://terminology.hl7.org/CodeSystem/medicationrequest-category",
          "code": "community"
        } ]
      } ],
      "doNotPerform": true,
      "medicationCodeableConcept": {
        "coding": [ {
          "system": "http://www.nlm.nih.gov/research/umls/rxnorm",
          "code": "1037045"
        } ]
      },
      "subject": {
        "reference": "Patient/ac56c496-c5d6-4c23-be20-130ee8327fd2"
      },
      "authoredOn": "2026-10-10T10:30:00.000+00:00",
      "requester": {
        "reference": "Practitioner/example"
      },
      "reasonCode": [ {
        "coding": [ {
          "system": "http://snomed.info/sct",
          "code": "183932001",
          "display": "Procedure contraindicated (situation)",
          "userSelected": true
        } ]
      } ]
    },
    "request": {
      "method": "PUT",
      "url": "MedicationRequest/b8a0f3ec-31a9-43f7-860a-a1d579981ce7"
    }
  }, {
    "fullUrl": "https://madie.cms.gov/Condition/8bbd7698-8163-4556-aad0-7bfa250aef32",
    "resource": {
      "resourceType": "Condition",
      "id": "8bbd7698-8163-4556-aad0-7bfa250aef32",
      "meta": {
        "profile": [ "http://hl7.org/fhir/us/qicore/StructureDefinition/qicore-condition" ]
      },
      "clinicalStatus": {
        "coding": [ {
          "system": "http://terminology.hl7.org/CodeSystem/condition-clinical",
          "code": "active"
        } ]
      },
      "verificationStatus": {
        "coding": [ {
          "system": "http://terminology.hl7.org/CodeSystem/condition-ver-status",
          "code": "confirmed"
        } ]
      },
      "category": [ {
        "coding": [ {
          "system": "http://terminology.hl7.org/CodeSystem/condition-category",
          "code": "encounter-diagnosis",
          "display": "Encounter Diagnosis"
        } ]
      } ],
      "code": {
        "coding": [ {
          "system": "http://snomed.info/sct",
          "version": "2020-09",
          "code": "111297002",
          "display": "Nonparalytic stroke (disorder)",
          "userSelected": true
        } ]
      },
      "subject": {
        "reference": "Patient/ac56c496-c5d6-4c23-be20-130ee8327fd2"
      },
      "recordedDate": "2026-07-14T08:00:00.000+00:00"
    },
    "request": {
      "method": "PUT",
      "url": "Condition/8bbd7698-8163-4556-aad0-7bfa250aef32"
    }
  }, {
    "fullUrl": "https://madie.cms.gov/Coverage/20eb7ae5-965c-444e-9f41-e1f22e402f6d",
    "resource": {
      "resourceType": "Coverage",
      "id": "20eb7ae5-965c-444e-9f41-e1f22e402f6d",
      "meta": {
        "profile": [ "http://hl7.org/fhir/us/qicore/StructureDefinition/qicore-coverage" ]
      },
      "status": "active",
      "beneficiary": {
        "reference": "Patient/ac56c496-c5d6-4c23-be20-130ee8327fd2"
      },
      "payor": [ {
        "reference": "Organization/1d7557b7-9930-40fe-98e6-c506a1cd7398"
      } ]
    },
    "request": {
      "method": "PUT",
      "url": "Coverage/20eb7ae5-965c-444e-9f41-e1f22e402f6d"
    }
  }, {
    "fullUrl": "https://madie.cms.gov/Organization/1d7557b7-9930-40fe-98e6-c506a1cd7398",
    "resource": {
      "resourceType": "Organization",
      "id": "1d7557b7-9930-40fe-98e6-c506a1cd7398",
      "meta": {
        "profile": [ "http://hl7.org/fhir/us/qicore/StructureDefinition/qicore-organization" ]
      },
      "identifier": [ {
        "use": "temp",
        "system": "urn:oid:2.16.840.1.113883.4.4",
        "value": "21-3259825"
      } ],
      "active": true,
      "type": [ {
        "coding": [ {
          "system": "http://terminology.hl7.org/CodeSystem/organization-type",
          "code": "pay",
          "display": "Payer"
        } ]
      } ],
      "name": "Blue Cross Blue Shield of Texas",
      "telecom": [ {
        "system": "phone",
        "value": "(+1) 972-766-6900"
      } ],
      "address": [ {
        "use": "billing",
        "type": "postal",
        "line": [ "P.O. Box 660044" ],
        "city": "Dallas",
        "state": "TX",
        "postalCode": "75266-0044",
        "country": "USA"
      } ]
    },
    "request": {
      "method": "PUT",
      "url": "Organization/1d7557b7-9930-40fe-98e6-c506a1cd7398"
    }
  }, {
    "fullUrl": "https://madie.cms.gov/MeasureReport/efe49794-acda-40ed-88b1-1ab0e747b044",
    "resource": {
      "resourceType": "MeasureReport",
      "id": "efe49794-acda-40ed-88b1-1ab0e747b044",
      "meta": {
        "profile": [ "http://hl7.org/fhir/us/cqfmeasures/StructureDefinition/test-case-cqfm" ]
      },
      "contained": [ {
        "resourceType": "Parameters",
        "id": "f5a18b1a-bebf-4c52-a0b4-4c080cfc3af6-parameters",
        "parameter": [ {
          "name": "subject",
          "valueString": "ac56c496-c5d6-4c23-be20-130ee8327fd2"
        } ]
      } ],
      "extension": [ {
        "url": "http://hl7.org/fhir/us/cqfmeasures/StructureDefinition/cqfm-inputParameters",
        "valueReference": {
          "reference": "#f5a18b1a-bebf-4c52-a0b4-4c080cfc3af6-parameters"
        }
      }, {
        "url": "http://hl7.org/fhir/us/cqfmeasures/StructureDefinition/cqfm-testCaseDescription",
        "valueMarkdown": "Patient does not get antithrombotic medication due to medical reasons after IP encounter. Testing multiple IP encounters."
      } ],
      "modifierExtension": [ {
        "url": "http://hl7.org/fhir/us/cqfmeasures/StructureDefinition/cqfm-isTestCase",
        "valueBoolean": true
      } ],
      "status": "complete",
      "type": "individual",
      "measure": "https://madie.cms.gov/Measure/CMS104FHIRSTKDCAntithrombotic",
      "period": {
        "start": "2026-01-01",
        "end": "2026-12-31"
      },
      "group": [ {
        "population": [ {
          "code": {
            "coding": [ {
              "system": "http://terminology.hl7.org/CodeSystem/measure-population",
              "code": "initial-population",
              "display": "Initial Population"
            } ]
          },
          "count": 1
        }, {
          "code": {
            "coding": [ {
              "system": "http://terminology.hl7.org/CodeSystem/measure-population",
              "code": "denominator",
              "display": "Denominator"
            } ]
          },
          "count": 1
        }, {
          "code": {
            "coding": [ {
              "system": "http://terminology.hl7.org/CodeSystem/measure-population",
              "code": "denominator-exclusion",
              "display": "Denominator Exclusion"
            } ]
          },
          "count": 0
        }, {
          "code": {
            "coding": [ {
              "system": "http://terminology.hl7.org/CodeSystem/measure-population",
              "code": "numerator",
              "display": "Numerator"
            } ]
          },
          "count": 0
        }, {
          "code": {
            "coding": [ {
              "system": "http://terminology.hl7.org/CodeSystem/measure-population",
              "code": "denominator-exception",
              "display": "Denominator Exception"
            } ]
          },
          "count": 1
        } ]
      } ],
      "evaluatedResource": [ {
        "reference": "Patient/ac56c496-c5d6-4c23-be20-130ee8327fd2"
      }, {
        "reference": "Encounter/769e3f00-4226-49cc-92ba-cd22b6c08153"
      }, {
        "reference": "MedicationRequest/b8a0f3ec-31a9-43f7-860a-a1d579981ce7"
      }, {
        "reference": "Condition/8bbd7698-8163-4556-aad0-7bfa250aef32"
      }, {
        "reference": "Coverage/20eb7ae5-965c-444e-9f41-e1f22e402f6d"
      }, {
        "reference": "Organization/1d7557b7-9930-40fe-98e6-c506a1cd7398"
      } ]
    },
    "request": {
      "method": "PUT",
      "url": "MeasureReport/efe49794-acda-40ed-88b1-1ab0e747b044"
    }
  } ]
}