{
  "resourceType": "Bundle",
  "id": "Patient-11-DENEXFail-ComorbidDiag2YrsB4EDate",
  "type": "transaction",
  "entry": [ {
    "fullUrl": "https://madie.cms.gov/Patient/91b2b948-0e69-4a07-8137-d66e01bd2bfa",
    "resource": {
      "resourceType": "Patient",
      "id": "91b2b948-0e69-4a07-8137-d66e01bd2bfa",
      "meta": {
        "profile": [ "http://hl7.org/fhir/us/qicore/StructureDefinition/qicore-patient" ]
      },
      "extension": [ {
        "url": "http://hl7.org/fhir/us/core/StructureDefinition/us-core-race",
        "extension": [ {
          "url": "ombCategory",
          "valueCoding": {
            "system": "urn:oid:2.16.840.1.113883.6.238",
            "code": "2028-9",
            "display": "Asian"
          }
        }, {
          "url": "text",
          "valueString": "Asian"
        } ]
      }, {
        "url": "http://hl7.org/fhir/us/core/StructureDefinition/us-core-ethnicity",
        "extension": [ {
          "url": "ombCategory",
          "valueCoding": {
            "system": "urn:oid:2.16.840.1.113883.6.238",
            "code": "2135-2",
            "display": "Hispanic or Latino"
          }
        }, {
          "url": "text",
          "valueString": "Hispanic or Latino"
        } ]
      } ],
      "identifier": [ {
        "system": "http://hospital.smarthealthit.org",
        "value": "999999995"
      } ],
      "name": [ {
        "family": "Bertha",
        "given": [ "Betty" ]
      } ],
      "gender": "female",
      "birthDate": "2024-10-01"
    },
    "request": {
      "method": "PUT",
      "url": "Patient/91b2b948-0e69-4a07-8137-d66e01bd2bfa"
    }
  }, {
    "fullUrl": "https://madie.cms.gov/Encounter/Encounter-16",
    "resource": {
      "resourceType": "Encounter",
      "id": "Encounter-16",
      "meta": {
        "profile": [ "http://hl7.org/fhir/us/qicore/StructureDefinition/qicore-encounter" ]
      },
      "status": "finished",
      "class": {
        "system": "http://terminology.hl7.org/CodeSystem/v3-ActCode",
        "code": "AMB",
        "display": "ambulatory"
      },
      "type": [ {
        "coding": [ {
          "system": "http://snomed.info/sct",
          "code": "185317003",
          "display": "Telephone encounter (procedure)"
        } ]
      } ],
      "subject": {
        "reference": "Patient/91b2b948-0e69-4a07-8137-d66e01bd2bfa"
      },
      "period": {
        "start": "2025-01-01T01:00:00.000Z",
        "end": "2025-01-01T01:15:00.000Z"
      }
    },
    "request": {
      "method": "PUT",
      "url": "Encounter/Encounter-16"
    }
  }, {
    "fullUrl": "https://madie.cms.gov/Condition/Condition-15",
    "resource": {
      "resourceType": "Condition",
      "id": "Condition-15",
      "meta": {
        "profile": [ "http://hl7.org/fhir/us/qicore/StructureDefinition/qicore-condition" ]
      },
      "clinicalStatus": {
        "coding": [ {
          "system": "http://terminology.hl7.org/CodeSystem/condition-clinical",
          "code": "active"
        } ]
      },
      "category": [ {
        "coding": [ {
          "system": "http://terminology.hl7.org/CodeSystem/condition-category",
          "code": "problem-list-item",
          "display": "Problem List Item"
        } ]
      } ],
      "code": {
        "coding": [ {
          "system": "http://snomed.info/sct",
          "code": "54398005",
          "display": "Acute upper respiratory infection (disorder)"
        } ]
      },
      "subject": {
        "reference": "Patient/91b2b948-0e69-4a07-8137-d66e01bd2bfa"
      },
      "onsetDateTime": "2025-01-01T01:00:00.000Z"
    },
    "request": {
      "method": "PUT",
      "url": "Condition/Condition-15"
    }
  }, {
    "fullUrl": "https://madie.cms.gov/Condition/Condition-16",
    "resource": {
      "resourceType": "Condition",
      "id": "Condition-16",
      "meta": {
        "profile": [ "http://hl7.org/fhir/us/qicore/StructureDefinition/qicore-condition" ]
      },
      "clinicalStatus": {
        "coding": [ {
          "system": "http://terminology.hl7.org/CodeSystem/condition-clinical",
          "code": "active"
        } ]
      },
      "category": [ {
        "coding": [ {
          "system": "http://terminology.hl7.org/CodeSystem/condition-category",
          "code": "problem-list-item",
          "display": "Problem List Item"
        } ]
      } ],
      "code": {
        "coding": [ {
          "system": "http://snomed.info/sct",
          "code": "10041001",
          "display": "Tracheal stenosis following tracheostomy (disorder)"
        } ]
      },
      "subject": {
        "reference": "Patient/91b2b948-0e69-4a07-8137-d66e01bd2bfa"
      },
      "onsetDateTime": "2023-01-01T00:00:00.000Z"
    },
    "request": {
      "method": "PUT",
      "url": "Condition/Condition-16"
    }
  }, {
    "fullUrl": "https://madie.cms.gov/MeasureReport/834bd43a-5166-4332-bdf5-d31d54dcf639",
    "resource": {
      "resourceType": "MeasureReport",
      "id": "834bd43a-5166-4332-bdf5-d31d54dcf639",
      "meta": {
        "profile": [ "http://hl7.org/fhir/us/cqfmeasures/StructureDefinition/test-case-cqfm" ]
      },
      "contained": [ {
        "resourceType": "Parameters",
        "id": "2203c192-be50-41af-9ad0-d91cb01fa516-parameters",
        "parameter": [ {
          "name": "subject",
          "valueString": "91b2b948-0e69-4a07-8137-d66e01bd2bfa"
        } ]
      } ],
      "extension": [ {
        "url": "http://hl7.org/fhir/us/cqfmeasures/StructureDefinition/cqfm-inputParameters",
        "valueReference": {
          "reference": "#2203c192-be50-41af-9ad0-d91cb01fa516-parameters"
        }
      }, {
        "url": "http://hl7.org/fhir/us/cqfmeasures/StructureDefinition/cqfm-testCaseDescription",
        "valueMarkdown": "Comorbid diagnosis 2 years before episode date"
      } ],
      "modifierExtension": [ {
        "url": "http://hl7.org/fhir/us/cqfmeasures/StructureDefinition/cqfm-isTestCase",
        "valueBoolean": true
      } ],
      "status": "complete",
      "type": "individual",
      "measure": "https://madie.cms.gov/Measure/AppropriateTreatmentforUpperRespiratoryInfectionURIFHIR",
      "period": {
        "start": "2025-01-01",
        "end": "2025-12-31"
      },
      "group": [ {
        "population": [ {
          "code": {
            "coding": [ {
              "system": "http://terminology.hl7.org/CodeSystem/measure-population",
              "code": "initial-population",
              "display": "Initial Population"
            } ]
          },
          "count": 1
        }, {
          "code": {
            "coding": [ {
              "system": "http://terminology.hl7.org/CodeSystem/measure-population",
              "code": "denominator",
              "display": "Denominator"
            } ]
          },
          "count": 1
        }, {
          "code": {
            "coding": [ {
              "system": "http://terminology.hl7.org/CodeSystem/measure-population",
              "code": "denominator-exclusion",
              "display": "Denominator Exclusion"
            } ]
          },
          "count": 0
        }, {
          "code": {
            "coding": [ {
              "system": "http://terminology.hl7.org/CodeSystem/measure-population",
              "code": "numerator",
              "display": "Numerator"
            } ]
          },
          "count": 1
        } ]
      } ],
      "evaluatedResource": [ {
        "reference": "Patient/91b2b948-0e69-4a07-8137-d66e01bd2bfa"
      }, {
        "reference": "Encounter/Encounter-16"
      }, {
        "reference": "Condition/Condition-15"
      }, {
        "reference": "Condition/Condition-16"
      } ]
    },
    "request": {
      "method": "PUT",
      "url": "MeasureReport/834bd43a-5166-4332-bdf5-d31d54dcf639"
    }
  } ]
}
