{"resourceType":"Bundle","id":"tests-52944dc7-4bb2-429f-846f-69189c4faad6-bundle","type":"transaction","entry":[{"fullUrl":"https://madie.cms.gov/Patient/52944dc7-4bb2-429f-846f-69189c4faad6","resource":{"resourceType":"Patient","id":"52944dc7-4bb2-429f-846f-69189c4faad6","meta":{"profile":["http://hl7.org/fhir/us/core/StructureDefinition/us-core-patient","http://hl7.org/fhir/us/qicore/StructureDefinition/qicore-patient"]},"extension":[{"url":"http://hl7.org/fhir/us/core/StructureDefinition/us-core-race","extension":[{"url":"ombCategory","valueCoding":{"system":"urn:oid:2.16.840.1.113883.6.238","code":"2028-9","display":"Asian"}},{"url":"text","valueString":"Asian"}]},{"url":"http://hl7.org/fhir/us/core/StructureDefinition/us-core-ethnicity","extension":[{"url":"ombCategory","valueCoding":{"system":"urn:oid:2.16.840.1.113883.6.238","code":"2135-2","display":"Hispanic or Latino"}},{"url":"text","valueString":"Hispanic or Latino"}]}],"identifier":[{"system":"http://hospital.smarthealthit.org","value":"999999995"}],"name":[{"family":"TwoScans","given":["NUMERPass"]}],"gender":"female","birthDate":"1987-06-12"},"request":{"method":"PUT","url":"Patient/52944dc7-4bb2-429f-846f-69189c4faad6"}},{"fullUrl":"https://madie.cms.gov/Encounter/numerpass-twoscans-1","resource":{"resourceType":"Encounter","id":"1946e5fe-bc74-4c4a-aace-12b4f0a11544","meta":{"profile":["http://hl7.org/fhir/us/qicore/StructureDefinition/qicore-encounter"]},"status":"finished","class":{"system":"http://terminology.hl7.org/CodeSystem/v3-ActCode","code":"IMP","display":"inpatient encounter"},"type":[{"coding":[{"system":"http://snomed.info/sct","code":"183452005","display":"Emergency hospital admission"}]}],"subject":{"reference":"Patient/52944dc7-4bb2-429f-846f-69189c4faad6"},"period":{"start":"2025-01-01T00:00:00.000Z","end":"2025-01-03T01:00:00.000Z"}},"request":{"method":"PUT","url":"Encounter/1946e5fe-bc74-4c4a-aace-12b4f0a11544"}},{"fullUrl":"https://madie.cms.gov/Observation/numerpass-twoscans-2","resource":{"resourceType":"Observation","id":"ffc044e1-6fb9-40e9-b26f-8936e904fc22","meta":{"profile":["http://hl7.org/fhir/us/qicore/StructureDefinition/qicore-observation"]},"status":"final","category":[{"coding":[{"system":"http://terminology.hl7.org/CodeSystem/observation-category","code":"imaging","display":"Imaging"}]}],"code":{"coding":[{"system":"http://loinc.org","code":"96914-7","display":"CT dose and image quality category"}],"text":"CT dose and image quality category"},"subject":{"reference":"Patient/52944dc7-4bb2-429f-846f-69189c4faad6"},"encounter":{"reference":"Encounter/numerpass-twoscans-1"},"effectiveDateTime":"2025-01-02T00:00:00.000Z","valueCodeableConcept":{"coding":[{"system":"http://loinc.org","code":"LA31752-1","display":"Abdomen and Pelvis Low Dose"}]},"component":[{"code":{"coding":[{"system":"http://loinc.org","code":"96912-1","display":"Calculated CT global noise"}]},"valueQuantity":{"value":65,"unit":"[hnsf'U]","system":"http://unitsofmeasure.org","code":"[hnsf'U]"}},{"code":{"coding":[{"system":"http://loinc.org","code":"96913-9","display":"Calculated CT size-adjusted dose"}]},"valueQuantity":{"value":585,"unit":"mGy.cm","system":"http://unitsofmeasure.org","code":"mGy.cm"}}]},"request":{"method":"PUT","url":"Observation/ffc044e1-6fb9-40e9-b26f-8936e904fc22"}},{"fullUrl":"https://madie.cms.gov/Observation/numerpass-twoscans-3","resource":{"resourceType":"Observation","id":"9fa3ce3a-2233-4f19-b2a1-893af62d8b0a","meta":{"profile":["http://hl7.org/fhir/us/qicore/StructureDefinition/qicore-observation"]},"status":"final","category":[{"coding":[{"system":"http://terminology.hl7.org/CodeSystem/observation-category","code":"imaging","display":"Imaging"}]}],"code":{"coding":[{"system":"http://loinc.org","code":"96914-7","display":"CT dose and image quality category"}],"text":"CT dose and image quality category"},"subject":{"reference":"Patient/52944dc7-4bb2-429f-846f-69189c4faad6"},"encounter":{"reference":"Encounter/numerpass-twoscans-1"},"effectiveDateTime":"2025-01-02T00:00:00.000Z","valueCodeableConcept":{"coding":[{"system":"http://loinc.org","code":"LA31752-1","display":"Abdomen and Pelvis Low Dose"}]},"component":[{"code":{"coding":[{"system":"http://loinc.org","code":"96912-1","display":"Calculated CT global noise"}]},"valueQuantity":{"value":63,"unit":"[hnsf'U]","system":"http://unitsofmeasure.org","code":"[hnsf'U]"}},{"code":{"coding":[{"system":"http://loinc.org","code":"96913-9","display":"Calculated CT size-adjusted dose"}]},"valueQuantity":{"value":585,"unit":"mGy.cm","system":"http://unitsofmeasure.org","code":"mGy.cm"}}]},"request":{"method":"PUT","url":"Observation/9fa3ce3a-2233-4f19-b2a1-893af62d8b0a"}},{"fullUrl":"https://madie.cms.gov/MeasureReport/7358339e-c878-46fa-b6f6-77af74106007","resource":{"resourceType":"MeasureReport","id":"7358339e-c878-46fa-b6f6-77af74106007","meta":{"profile":["http://hl7.org/fhir/us/cqfmeasures/StructureDefinition/test-case-cqfm"]},"contained":[{"resourceType":"Parameters","id":"f7600f04-3c52-4c4d-a557-b80a93dcdb41-parameters","parameter":[{"name":"subject","valueString":"52944dc7-4bb2-429f-846f-69189c4faad6"}]}],"extension":[{"url":"http://hl7.org/fhir/us/cqfmeasures/StructureDefinition/cqfm-inputParameters","valueReference":{"reference":"#f7600f04-3c52-4c4d-a557-b80a93dcdb41-parameters"}},{"url":"http://hl7.org/fhir/us/cqfmeasures/StructureDefinition/cqfm-testCaseDescription","valueMarkdown":"Patient has 2 CT Scans during the same encounter and 1 has good dose and good noise and the other has good dose but high noise"}],"modifierExtension":[{"url":"http://hl7.org/fhir/us/cqfmeasures/StructureDefinition/cqfm-isTestCase","valueBoolean":true}],"status":"complete","type":"individual","measure":"https://madie.cms.gov/Measure/AlaraCTIQRFHIR","period":{"start":"2025-01-01","end":"2025-12-31"},"group":[{"population":[{"code":{"coding":[{"system":"http://terminology.hl7.org/CodeSystem/measure-population","code":"initial-population","display":"Initial Population"}]},"count":2},{"code":{"coding":[{"system":"http://terminology.hl7.org/CodeSystem/measure-population","code":"denominator","display":"Denominator"}]},"count":2},{"code":{"coding":[{"system":"http://terminology.hl7.org/CodeSystem/measure-population","code":"denominator-exclusion","display":"Denominator Exclusion"}]},"count":0},{"code":{"coding":[{"system":"http://terminology.hl7.org/CodeSystem/measure-population","code":"numerator","display":"Numerator"}]},"count":1}]}]},"request":{"method":"PUT","url":"MeasureReport/7358339e-c878-46fa-b6f6-77af74106007"}}]}