{"resourceType":"Bundle","id":"tests-2990a82a-f129-47e0-8ffe-6fd96132b9d8-bundle","type":"transaction","entry":[{"fullUrl":"https://madie.cms.gov/Patient/2990a82a-f129-47e0-8ffe-6fd96132b9d8","resource":{"resourceType":"Patient","id":"2990a82a-f129-47e0-8ffe-6fd96132b9d8","meta":{"profile":["http://hl7.org/fhir/us/core/StructureDefinition/us-core-patient","http://hl7.org/fhir/us/qicore/StructureDefinition/qicore-patient"]},"extension":[{"url":"http://hl7.org/fhir/us/core/StructureDefinition/us-core-race","extension":[{"url":"ombCategory","valueCoding":{"system":"urn:oid:2.16.840.1.113883.6.238","code":"2028-9","display":"Asian"}},{"url":"text","valueString":"Asian"}]},{"url":"http://hl7.org/fhir/us/core/StructureDefinition/us-core-ethnicity","extension":[{"url":"ombCategory","valueCoding":{"system":"urn:oid:2.16.840.1.113883.6.238","code":"2135-2","display":"Hispanic or Latino"}},{"url":"text","valueString":"Hispanic or Latino"}]}],"identifier":[{"system":"http://hospital.smarthealthit.org","value":"999999995"}],"name":[{"family":"FullBody","given":["DENEXPass"]}],"gender":"female","birthDate":"1986-06-12"},"request":{"method":"PUT","url":"Patient/2990a82a-f129-47e0-8ffe-6fd96132b9d8"}},{"fullUrl":"https://madie.cms.gov/Encounter/denexpass-fullbody-1","resource":{"resourceType":"Encounter","id":"d375a5c7-5698-4379-af69-878a428380b4","meta":{"profile":["http://hl7.org/fhir/us/qicore/StructureDefinition/qicore-encounter"]},"status":"finished","class":{"system":"http://terminology.hl7.org/CodeSystem/v3-ActCode","code":"IMP","display":"inpatient encounter"},"type":[{"coding":[{"system":"http://snomed.info/sct","code":"183452005","display":"Emergency hospital admission"}]}],"subject":{"reference":"Patient/2990a82a-f129-47e0-8ffe-6fd96132b9d8"},"period":{"start":"2025-01-01T00:00:00.000Z","end":"2025-01-03T01:00:00.000Z"}},"request":{"method":"PUT","url":"Encounter/d375a5c7-5698-4379-af69-878a428380b4"}},{"fullUrl":"https://madie.cms.gov/Observation/denexpass-fullbody-2","resource":{"resourceType":"Observation","id":"de4e237c-ec9d-4ed2-8b44-6406e8689239","meta":{"profile":["http://hl7.org/fhir/us/qicore/StructureDefinition/qicore-observation"]},"status":"final","category":[{"coding":[{"system":"http://terminology.hl7.org/CodeSystem/observation-category","code":"imaging","display":"Imaging"}]}],"code":{"coding":[{"system":"http://loinc.org","code":"96914-7","display":"CT dose and image quality category"}],"text":"CT dose and image quality category"},"subject":{"reference":"Patient/2990a82a-f129-47e0-8ffe-6fd96132b9d8"},"encounter":{"reference":"Encounter/denexpass-fullbody-1"},"effectiveDateTime":"2025-01-02T00:00:00.000Z","valueCodeableConcept":{"coding":[{"system":"http://loinc.org","code":"LA31771-1","display":"Full Body"}]},"component":[{"code":{"coding":[{"system":"http://loinc.org","code":"96912-1","display":"Calculated CT global noise"}]},"valueQuantity":{"value":63,"unit":"[hnsf'U]","system":"http://unitsofmeasure.org","code":"[hnsf'U]"}},{"code":{"coding":[{"system":"http://loinc.org","code":"96913-9","display":"Calculated CT size-adjusted dose"}]},"valueQuantity":{"value":597,"unit":"mGy.cm","system":"http://unitsofmeasure.org","code":"mGy.cm"}}]},"request":{"method":"PUT","url":"Observation/de4e237c-ec9d-4ed2-8b44-6406e8689239"}},{"fullUrl":"https://madie.cms.gov/MeasureReport/4b452d64-97e3-4d3b-94dd-cbd76321f7a9","resource":{"resourceType":"MeasureReport","id":"4b452d64-97e3-4d3b-94dd-cbd76321f7a9","meta":{"profile":["http://hl7.org/fhir/us/cqfmeasures/StructureDefinition/test-case-cqfm"]},"contained":[{"resourceType":"Parameters","id":"71ac930d-b76d-43aa-95de-88671d03ccaf-parameters","parameter":[{"name":"subject","valueString":"2990a82a-f129-47e0-8ffe-6fd96132b9d8"}]}],"extension":[{"url":"http://hl7.org/fhir/us/cqfmeasures/StructureDefinition/cqfm-inputParameters","valueReference":{"reference":"#71ac930d-b76d-43aa-95de-88671d03ccaf-parameters"}},{"url":"http://hl7.org/fhir/us/cqfmeasures/StructureDefinition/cqfm-testCaseDescription","valueMarkdown":"Patient has FullBody scan which should put them in the denominator exclusion"}],"modifierExtension":[{"url":"http://hl7.org/fhir/us/cqfmeasures/StructureDefinition/cqfm-isTestCase","valueBoolean":true}],"status":"complete","type":"individual","measure":"https://madie.cms.gov/Measure/AlaraCTIQRFHIR","period":{"start":"2025-01-01","end":"2025-12-31"},"group":[{"population":[{"code":{"coding":[{"system":"http://terminology.hl7.org/CodeSystem/measure-population","code":"initial-population","display":"Initial Population"}]},"count":1},{"code":{"coding":[{"system":"http://terminology.hl7.org/CodeSystem/measure-population","code":"denominator","display":"Denominator"}]},"count":1},{"code":{"coding":[{"system":"http://terminology.hl7.org/CodeSystem/measure-population","code":"denominator-exclusion","display":"Denominator Exclusion"}]},"count":1},{"code":{"coding":[{"system":"http://terminology.hl7.org/CodeSystem/measure-population","code":"numerator","display":"Numerator"}]},"count":0}]}]},"request":{"method":"PUT","url":"MeasureReport/4b452d64-97e3-4d3b-94dd-cbd76321f7a9"}}]}