{"resourceType":"Bundle","id":"tests-55186dde-5259-4cf4-a80b-b1fd2b734c61-bundle","type":"transaction","entry":[{"fullUrl":"https://madie.cms.gov/Patient/55186dde-5259-4cf4-a80b-b1fd2b734c61","resource":{"resourceType":"Patient","id":"55186dde-5259-4cf4-a80b-b1fd2b734c61","meta":{"profile":["http://hl7.org/fhir/us/core/StructureDefinition/us-core-patient","http://hl7.org/fhir/us/qicore/StructureDefinition/qicore-patient"]},"extension":[{"url":"http://hl7.org/fhir/us/core/StructureDefinition/us-core-race","extension":[{"url":"ombCategory","valueCoding":{"system":"urn:oid:2.16.840.1.113883.6.238","code":"2028-9","display":"Asian"}},{"url":"text","valueString":"Asian"}]},{"url":"http://hl7.org/fhir/us/core/StructureDefinition/us-core-ethnicity","extension":[{"url":"ombCategory","valueCoding":{"system":"urn:oid:2.16.840.1.113883.6.238","code":"2135-2","display":"Hispanic or Latino"}},{"url":"text","valueString":"Hispanic or Latino"}]}],"identifier":[{"system":"http://hospital.smarthealthit.org","value":"999999995"}],"name":[{"family":"HighNoise","given":["NUMERPass"]}],"gender":"female","birthDate":"1987-06-12"},"request":{"method":"PUT","url":"Patient/55186dde-5259-4cf4-a80b-b1fd2b734c61"}},{"fullUrl":"https://madie.cms.gov/Encounter/numerpass-high-dose-1","resource":{"resourceType":"Encounter","id":"30f5a7c5-b43b-4f17-8d2d-dead458fe3cd","meta":{"profile":["http://hl7.org/fhir/us/qicore/StructureDefinition/qicore-encounter"]},"status":"finished","class":{"system":"http://terminology.hl7.org/CodeSystem/v3-ActCode","code":"IMP","display":"inpatient encounter"},"type":[{"coding":[{"system":"http://snomed.info/sct","code":"183452005","display":"Emergency hospital admission"}]}],"subject":{"reference":"Patient/55186dde-5259-4cf4-a80b-b1fd2b734c61"},"period":{"start":"2025-01-01T00:00:00.000Z","end":"2025-01-03T01:00:00.000Z"}},"request":{"method":"PUT","url":"Encounter/30f5a7c5-b43b-4f17-8d2d-dead458fe3cd"}},{"fullUrl":"https://madie.cms.gov/Observation/numerpass-high-noise-2","resource":{"resourceType":"Observation","id":"b0e37174-8fe9-4562-ba31-a4fe5f33485d","meta":{"profile":["http://hl7.org/fhir/us/qicore/StructureDefinition/qicore-observation"]},"status":"final","category":[{"coding":[{"system":"http://terminology.hl7.org/CodeSystem/observation-category","code":"imaging","display":"Imaging"}]}],"code":{"coding":[{"system":"http://loinc.org","code":"96914-7","display":"CT dose and image quality category"}],"text":"CT dose and image quality category"},"subject":{"reference":"Patient/55186dde-5259-4cf4-a80b-b1fd2b734c61"},"encounter":{"reference":"Encounter/numerpass-high-noise-1"},"effectiveDateTime":"2025-01-02T00:00:00.000Z","valueCodeableConcept":{"coding":[{"system":"http://loinc.org","code":"LA31752-1","display":"Abdomen and Pelvis Low Dose"}]},"component":[{"code":{"coding":[{"system":"http://loinc.org","code":"96912-1","display":"Calculated CT global noise"}]},"valueQuantity":{"value":65,"unit":"[hnsf'U]","system":"http://unitsofmeasure.org","code":"[hnsf'U]"}},{"code":{"coding":[{"system":"http://loinc.org","code":"96913-9","display":"Calculated CT size-adjusted dose"}]},"valueQuantity":{"value":585,"unit":"mGy.cm","system":"http://unitsofmeasure.org","code":"mGy.cm"}}]},"request":{"method":"PUT","url":"Observation/b0e37174-8fe9-4562-ba31-a4fe5f33485d"}},{"fullUrl":"https://madie.cms.gov/MeasureReport/61b285d2-4201-446a-bb79-9aa30771b8aa","resource":{"resourceType":"MeasureReport","id":"61b285d2-4201-446a-bb79-9aa30771b8aa","meta":{"profile":["http://hl7.org/fhir/us/cqfmeasures/StructureDefinition/test-case-cqfm"]},"contained":[{"resourceType":"Parameters","id":"fa19d495-b645-4060-92a6-5ccadcdc5c62-parameters","parameter":[{"name":"subject","valueString":"55186dde-5259-4cf4-a80b-b1fd2b734c61"}]}],"extension":[{"url":"http://hl7.org/fhir/us/cqfmeasures/StructureDefinition/cqfm-inputParameters","valueReference":{"reference":"#fa19d495-b645-4060-92a6-5ccadcdc5c62-parameters"}},{"url":"http://hl7.org/fhir/us/cqfmeasures/StructureDefinition/cqfm-testCaseDescription","valueMarkdown":"Patient with a valid scan that has a high noise value and should meet the Numerator"}],"modifierExtension":[{"url":"http://hl7.org/fhir/us/cqfmeasures/StructureDefinition/cqfm-isTestCase","valueBoolean":true}],"status":"complete","type":"individual","measure":"https://madie.cms.gov/Measure/AlaraCTIQRFHIR","period":{"start":"2025-01-01","end":"2025-12-31"},"group":[{"population":[{"code":{"coding":[{"system":"http://terminology.hl7.org/CodeSystem/measure-population","code":"initial-population","display":"Initial Population"}]},"count":1},{"code":{"coding":[{"system":"http://terminology.hl7.org/CodeSystem/measure-population","code":"denominator","display":"Denominator"}]},"count":1},{"code":{"coding":[{"system":"http://terminology.hl7.org/CodeSystem/measure-population","code":"denominator-exclusion","display":"Denominator Exclusion"}]},"count":0},{"code":{"coding":[{"system":"http://terminology.hl7.org/CodeSystem/measure-population","code":"numerator","display":"Numerator"}]},"count":1}]}]},"request":{"method":"PUT","url":"MeasureReport/61b285d2-4201-446a-bb79-9aa30771b8aa"}}]}