{"resourceType":"Bundle","id":"tests-719d9b3b-583a-4743-8250-9e2496e65f21-bundle","type":"transaction","entry":[{"fullUrl":"https://madie.cms.gov/Patient/719d9b3b-583a-4743-8250-9e2496e65f21","resource":{"resourceType":"Patient","id":"719d9b3b-583a-4743-8250-9e2496e65f21","meta":{"profile":["http://hl7.org/fhir/us/core/StructureDefinition/us-core-patient","http://hl7.org/fhir/us/qicore/StructureDefinition/qicore-patient"]},"extension":[{"url":"http://hl7.org/fhir/us/core/StructureDefinition/us-core-race","extension":[{"url":"ombCategory","valueCoding":{"system":"urn:oid:2.16.840.1.113883.6.238","code":"2028-9","display":"Asian"}},{"url":"text","valueString":"Asian"}]},{"url":"http://hl7.org/fhir/us/core/StructureDefinition/us-core-ethnicity","extension":[{"url":"ombCategory","valueCoding":{"system":"urn:oid:2.16.840.1.113883.6.238","code":"2135-2","display":"Hispanic or Latino"}},{"url":"text","valueString":"Hispanic or Latino"}]}],"identifier":[{"system":"http://hospital.smarthealthit.org","value":"999999995"}],"name":[{"family":"HighDose","given":["NUMERPass"]}],"gender":"female","birthDate":"1987-06-12"},"request":{"method":"PUT","url":"Patient/719d9b3b-583a-4743-8250-9e2496e65f21"}},{"fullUrl":"https://madie.cms.gov/Encounter/numerpass-high-dose-1","resource":{"resourceType":"Encounter","id":"d182d4b4-5dcb-4e98-bbfd-321510f6d70c","meta":{"profile":["http://hl7.org/fhir/us/qicore/StructureDefinition/qicore-encounter"]},"status":"finished","class":{"system":"http://terminology.hl7.org/CodeSystem/v3-ActCode","code":"IMP","display":"inpatient encounter"},"type":[{"coding":[{"system":"http://snomed.info/sct","code":"183452005","display":"Emergency hospital admission"}]}],"subject":{"reference":"Patient/719d9b3b-583a-4743-8250-9e2496e65f21"},"period":{"start":"2025-01-01T00:00:00.000Z","end":"2025-01-03T01:00:00.000Z"}},"request":{"method":"PUT","url":"Encounter/d182d4b4-5dcb-4e98-bbfd-321510f6d70c"}},{"fullUrl":"https://madie.cms.gov/Observation/numerpass-high-dose-2","resource":{"resourceType":"Observation","id":"23279236-0d33-49ed-9380-65d01840c384","meta":{"profile":["http://hl7.org/fhir/us/qicore/StructureDefinition/qicore-observation"]},"status":"final","category":[{"coding":[{"system":"http://terminology.hl7.org/CodeSystem/observation-category","code":"imaging","display":"Imaging"}]}],"code":{"coding":[{"system":"http://loinc.org","code":"96914-7","display":"CT dose and image quality category"}],"text":"CT dose and image quality category"},"subject":{"reference":"Patient/719d9b3b-583a-4743-8250-9e2496e65f21"},"encounter":{"reference":"Encounter/numerpass-high-dose-1"},"effectiveDateTime":"2025-01-02T00:00:00.000Z","valueCodeableConcept":{"coding":[{"system":"http://loinc.org","code":"LA31752-1","display":"Abdomen and Pelvis Low Dose"}]},"component":[{"code":{"coding":[{"system":"http://loinc.org","code":"96912-1","display":"Calculated CT global noise"}]},"valueQuantity":{"value":63,"unit":"[hnsf'U]","system":"http://unitsofmeasure.org","code":"[hnsf'U]"}},{"code":{"coding":[{"system":"http://loinc.org","code":"96913-9","display":"Calculated CT size-adjusted dose"}]},"valueQuantity":{"value":599,"unit":"mGy.cm","system":"http://unitsofmeasure.org","code":"mGy.cm"}}]},"request":{"method":"PUT","url":"Observation/23279236-0d33-49ed-9380-65d01840c384"}},{"fullUrl":"https://madie.cms.gov/MeasureReport/0b141137-5641-4034-af9f-c351f0083d8c","resource":{"resourceType":"MeasureReport","id":"0b141137-5641-4034-af9f-c351f0083d8c","meta":{"profile":["http://hl7.org/fhir/us/cqfmeasures/StructureDefinition/test-case-cqfm"]},"contained":[{"resourceType":"Parameters","id":"eace479c-5225-4b89-8552-9f48634431d9-parameters","parameter":[{"name":"subject","valueString":"719d9b3b-583a-4743-8250-9e2496e65f21"}]}],"extension":[{"url":"http://hl7.org/fhir/us/cqfmeasures/StructureDefinition/cqfm-inputParameters","valueReference":{"reference":"#eace479c-5225-4b89-8552-9f48634431d9-parameters"}},{"url":"http://hl7.org/fhir/us/cqfmeasures/StructureDefinition/cqfm-testCaseDescription","valueMarkdown":"Patient has ABDOPEL LD scan with good noise but high dose"}],"modifierExtension":[{"url":"http://hl7.org/fhir/us/cqfmeasures/StructureDefinition/cqfm-isTestCase","valueBoolean":true}],"status":"complete","type":"individual","measure":"https://madie.cms.gov/Measure/AlaraCTIQRFHIR","period":{"start":"2025-01-01","end":"2025-12-31"},"group":[{"population":[{"code":{"coding":[{"system":"http://terminology.hl7.org/CodeSystem/measure-population","code":"initial-population","display":"Initial Population"}]},"count":1},{"code":{"coding":[{"system":"http://terminology.hl7.org/CodeSystem/measure-population","code":"denominator","display":"Denominator"}]},"count":1},{"code":{"coding":[{"system":"http://terminology.hl7.org/CodeSystem/measure-population","code":"denominator-exclusion","display":"Denominator Exclusion"}]},"count":0},{"code":{"coding":[{"system":"http://terminology.hl7.org/CodeSystem/measure-population","code":"numerator","display":"Numerator"}]},"count":1}]}]},"request":{"method":"PUT","url":"MeasureReport/0b141137-5641-4034-af9f-c351f0083d8c"}}]}