{"resourceType":"Bundle","id":"tests-8eca8e58-b539-430c-ac25-093fb4fac477-bundle","type":"transaction","entry":[{"fullUrl":"https://madie.cms.gov/Patient/8eca8e58-b539-430c-ac25-093fb4fac477","resource":{"resourceType":"Patient","id":"8eca8e58-b539-430c-ac25-093fb4fac477","meta":{"profile":["http://hl7.org/fhir/us/core/StructureDefinition/us-core-patient","http://hl7.org/fhir/us/qicore/StructureDefinition/qicore-patient"]},"extension":[{"url":"http://hl7.org/fhir/us/core/StructureDefinition/us-core-race","extension":[{"url":"ombCategory","valueCoding":{"system":"urn:oid:2.16.840.1.113883.6.238","code":"2028-9","display":"Asian"}},{"url":"text","valueString":"Asian"}]},{"url":"http://hl7.org/fhir/us/core/StructureDefinition/us-core-ethnicity","extension":[{"url":"ombCategory","valueCoding":{"system":"urn:oid:2.16.840.1.113883.6.238","code":"2135-2","display":"Hispanic or Latino"}},{"url":"text","valueString":"Hispanic or Latino"}]}],"identifier":[{"system":"http://hospital.smarthealthit.org","value":"999999995"}],"name":[{"family":"NoUnits","given":["DENOMFail"]}],"gender":"female","birthDate":"1984-06-12"},"request":{"method":"PUT","url":"Patient/8eca8e58-b539-430c-ac25-093fb4fac477"}},{"fullUrl":"https://madie.cms.gov/Encounter/denomfail-nounits-1","resource":{"resourceType":"Encounter","id":"ec57c4a3-a6db-4ac1-ac5e-99d7381bc4c6","meta":{"profile":["http://hl7.org/fhir/us/qicore/StructureDefinition/qicore-encounter"]},"status":"finished","class":{"system":"http://terminology.hl7.org/CodeSystem/v3-ActCode","code":"IMP","display":"inpatient encounter"},"type":[{"coding":[{"system":"http://snomed.info/sct","code":"183452005","display":"Emergency hospital admission"}]}],"subject":{"reference":"Patient/8eca8e58-b539-430c-ac25-093fb4fac477"},"period":{"start":"2025-05-01T00:00:00.000Z","end":"2025-05-03T01:00:00.000Z"}},"request":{"method":"PUT","url":"Encounter/ec57c4a3-a6db-4ac1-ac5e-99d7381bc4c6"}},{"fullUrl":"https://madie.cms.gov/Observation/denomfail-nounits-2","resource":{"resourceType":"Observation","id":"d7c7da05-8252-4e04-bd44-e52459fc19c8","meta":{"profile":["http://hl7.org/fhir/us/qicore/StructureDefinition/qicore-observation"]},"status":"final","category":[{"coding":[{"system":"http://terminology.hl7.org/CodeSystem/observation-category","code":"imaging","display":"Imaging"}]}],"code":{"coding":[{"system":"http://loinc.org","code":"96914-7","display":"CT dose and image quality category"}],"text":"CT dose and image quality category"},"subject":{"reference":"Patient/8eca8e58-b539-430c-ac25-093fb4fac477"},"encounter":{"reference":"Encounter/denomfail-nounits-1"},"effectiveDateTime":"2025-05-02T00:00:00.000Z","valueCodeableConcept":{"coding":[{"system":"http://loinc.org","code":"LA31752-1","display":"Abdomen and Pelvis Low Dose"}]},"component":[{"code":{"coding":[{"system":"http://loinc.org","code":"96912-1","display":"Calculated CT global noise"}]},"valueQuantity":{"value":63}},{"code":{"coding":[{"system":"http://loinc.org","code":"96913-9","display":"Calculated CT size-adjusted dose"}]},"valueQuantity":{"value":597}}]},"request":{"method":"PUT","url":"Observation/d7c7da05-8252-4e04-bd44-e52459fc19c8"}},{"fullUrl":"https://madie.cms.gov/MeasureReport/7742bdaf-edfe-4ae2-bd9c-31d130ded86e","resource":{"resourceType":"MeasureReport","id":"7742bdaf-edfe-4ae2-bd9c-31d130ded86e","meta":{"profile":["http://hl7.org/fhir/us/cqfmeasures/StructureDefinition/test-case-cqfm"]},"contained":[{"resourceType":"Parameters","id":"86239c56-99bb-4e87-ae6b-d5b763052169-parameters","parameter":[{"name":"subject","valueString":"8eca8e58-b539-430c-ac25-093fb4fac477"}]}],"extension":[{"url":"http://hl7.org/fhir/us/cqfmeasures/StructureDefinition/cqfm-inputParameters","valueReference":{"reference":"#86239c56-99bb-4e87-ae6b-d5b763052169-parameters"}},{"url":"http://hl7.org/fhir/us/cqfmeasures/StructureDefinition/cqfm-testCaseDescription","valueMarkdown":"Patient has valid CT scan but with missing units on the noise and dose"}],"modifierExtension":[{"url":"http://hl7.org/fhir/us/cqfmeasures/StructureDefinition/cqfm-isTestCase","valueBoolean":true}],"status":"complete","type":"individual","measure":"https://madie.cms.gov/Measure/AlaraCTIQRFHIR","period":{"start":"2025-01-01","end":"2025-12-31"},"group":[{"population":[{"code":{"coding":[{"system":"http://terminology.hl7.org/CodeSystem/measure-population","code":"initial-population","display":"Initial Population"}]},"count":1},{"code":{"coding":[{"system":"http://terminology.hl7.org/CodeSystem/measure-population","code":"denominator","display":"Denominator"}]},"count":0},{"code":{"coding":[{"system":"http://terminology.hl7.org/CodeSystem/measure-population","code":"denominator-exclusion","display":"Denominator Exclusion"}]},"count":0},{"code":{"coding":[{"system":"http://terminology.hl7.org/CodeSystem/measure-population","code":"numerator","display":"Numerator"}]},"count":0}]}]},"request":{"method":"PUT","url":"MeasureReport/7742bdaf-edfe-4ae2-bd9c-31d130ded86e"}}]}