{"resourceType":"Bundle","id":"tests-15e67912-9913-4b22-9f1b-3e86879e1d6d-bundle","type":"transaction","entry":[{"fullUrl":"https://madie.cms.gov/Patient/15e67912-9913-4b22-9f1b-3e86879e1d6d","resource":{"resourceType":"Patient","id":"15e67912-9913-4b22-9f1b-3e86879e1d6d","meta":{"profile":["http://hl7.org/fhir/us/qicore/StructureDefinition/qicore-patient"]},"text":{"status":"generated","div":"<div xmlns=\"http://www.w3.org/1999/xhtml\"><div class=\"hapiHeaderText\">CMOdurEnc_ED&lt;1hrObs&lt;1hrBFEnc <b>DENEXPASS </b></div><table class=\"hapiPropertyTable\"><tbody><tr><td>Identifier</td><td>7f541e179007ad9d60d9a7087c5b8c8d</td></tr><tr><td>Date of birth</td><td><span>21 August 1994</span></td></tr></tbody></table></div>"},"extension":[{"url":"http://hl7.org/fhir/us/core/StructureDefinition/us-core-race","extension":[{"url":"ombCategory","valueCoding":{"system":"urn:oid:2.16.840.1.113883.6.238","code":"1002-5","display":"American Indian or Alaska Native","userSelected":true}},{"url":"text","valueString":"American Indian or Alaska Native"}]},{"url":"http://hl7.org/fhir/us/core/StructureDefinition/us-core-ethnicity","extension":[{"url":"ombCategory","valueCoding":{"system":"urn:oid:2.16.840.1.113883.6.238","code":"2135-2","display":"Hispanic or Latino","userSelected":true}},{"url":"text","valueString":"Hispanic or Latino"}]}],"identifier":[{"type":{"coding":[{"system":"http://terminology.hl7.org/CodeSystem/v2-0203","code":"MR"}]},"system":"https://bonnie-fhir.healthit.gov/","value":"6129133d02c62a011f2e69a8"}],"active":true,"name":[{"use":"usual","family":"DENEXPass","given":["CMOdurEnc_ED<1hrObs<1hrBFEnc"]}],"gender":"male","birthDate":"1994-08-21"},"request":{"method":"PUT","url":"Patient/15e67912-9913-4b22-9f1b-3e86879e1d6d"}},{"fullUrl":"https://madie.cms.gov/Encounter/5c954112b8484612c37f27cd","resource":{"resourceType":"Encounter","id":"4e32a6d1-4ca3-4f6a-9309-d91dd6f6c559","meta":{"profile":["http://hl7.org/fhir/us/qicore/StructureDefinition/qicore-encounter"]},"status":"finished","class":{"system":"http://terminology.hl7.org/CodeSystem/v3-ActCode","code":"EMER","display":"emergency","userSelected":true},"type":[{"coding":[{"system":"http://snomed.info/sct","code":"4525004"}]}],"subject":{"reference":"Patient/15e67912-9913-4b22-9f1b-3e86879e1d6d"},"period":{"start":"2025-10-10T07:30:00.000+00:00","end":"2025-10-10T07:35:00.000+00:00"},"length":{"value":0,"unit":"days"}},"request":{"method":"PUT","url":"Encounter/4e32a6d1-4ca3-4f6a-9309-d91dd6f6c559"}},{"fullUrl":"https://madie.cms.gov/Encounter/5c954112b8484612c37f27ce","resource":{"resourceType":"Encounter","id":"e04759a4-4ba1-458a-aeea-df9d315ff7d6","meta":{"profile":["http://hl7.org/fhir/us/qicore/StructureDefinition/qicore-encounter"]},"status":"finished","class":{"system":"http://terminology.hl7.org/CodeSystem/v3-ActCode","code":"OBSENC","display":"observation encounter","userSelected":true},"type":[{"coding":[{"system":"http://snomed.info/sct","code":"448851000124103"}]}],"subject":{"reference":"Patient/15e67912-9913-4b22-9f1b-3e86879e1d6d"},"period":{"start":"2025-10-10T07:36:00.000+00:00","end":"2025-10-10T07:40:00.000+00:00"},"length":{"value":0,"unit":"days"}},"request":{"method":"PUT","url":"Encounter/e04759a4-4ba1-458a-aeea-df9d315ff7d6"}},{"fullUrl":"https://madie.cms.gov/Encounter/5c954112b8484612c37f27cf","resource":{"resourceType":"Encounter","id":"29428ea5-0ea2-4c82-8dbb-81e1fed08b82","meta":{"profile":["http://hl7.org/fhir/us/qicore/StructureDefinition/qicore-encounter"]},"status":"finished","class":{"system":"http://terminology.hl7.org/CodeSystem/v3-ActCode","code":"ACUTE","display":"inpatient acute","userSelected":true},"type":[{"coding":[{"system":"http://snomed.info/sct","code":"32485007"}]}],"subject":{"reference":"Patient/15e67912-9913-4b22-9f1b-3e86879e1d6d"},"period":{"start":"2025-10-10T07:41:00.000+00:00","end":"2025-10-12T10:30:00.000+00:00"},"length":{"value":2,"unit":"days"},"diagnosis":[{"condition":{"reference":"Condition/ischemic-stroke-7f03"},"use":{"coding":[{"system":"http://terminology.hl7.org/CodeSystem/diagnosis-role","code":"billing","display":"Billing"}]},"rank":1}]},"request":{"method":"PUT","url":"Encounter/29428ea5-0ea2-4c82-8dbb-81e1fed08b82"}},{"fullUrl":"https://madie.cms.gov/ServiceRequest/5c954112b8484612c37f27d1","resource":{"resourceType":"ServiceRequest","id":"e303400c-266a-4813-a97c-4a225697abf5","meta":{"profile":["http://hl7.org/fhir/us/qicore/StructureDefinition/qicore-servicerequest"]},"status":"active","intent":"order","code":{"coding":[{"system":"http://snomed.info/sct","code":"133918004"}]},"subject":{"reference":"Patient/15e67912-9913-4b22-9f1b-3e86879e1d6d"},"authoredOn":"2025-10-10T07:46:00.000+00:00"},"request":{"method":"PUT","url":"ServiceRequest/e303400c-266a-4813-a97c-4a225697abf5"}},{"fullUrl":"https://madie.cms.gov/Condition/ischemic-stroke-7f03","resource":{"resourceType":"Condition","id":"37dcb4a0-2dd0-44a7-9574-7ef1031907ff","meta":{"profile":["http://hl7.org/fhir/us/qicore/StructureDefinition/qicore-condition"]},"clinicalStatus":{"coding":[{"system":"http://terminology.hl7.org/CodeSystem/condition-clinical","code":"active"}]},"verificationStatus":{"coding":[{"system":"http://terminology.hl7.org/CodeSystem/condition-ver-status","code":"confirmed"}]},"category":[{"coding":[{"system":"http://terminology.hl7.org/CodeSystem/condition-category","code":"encounter-diagnosis","display":"Encounter Diagnosis"}]}],"code":{"coding":[{"system":"http://snomed.info/sct","version":"2020-09","code":"111297002","display":"Nonparalytic stroke (disorder)","userSelected":true}]},"subject":{"reference":"Patient/15e67912-9913-4b22-9f1b-3e86879e1d6d"},"recordedDate":"2025-07-14T08:00:00.000+00:00"},"request":{"method":"PUT","url":"Condition/37dcb4a0-2dd0-44a7-9574-7ef1031907ff"}},{"fullUrl":"https://madie.cms.gov/Coverage/1","resource":{"resourceType":"Coverage","id":"d5b20dbe-b6ab-4ebf-95df-f4b785d58798","meta":{"profile":["http://hl7.org/fhir/us/qicore/StructureDefinition/qicore-coverage"]},"status":"active","beneficiary":{"reference":"Patient/15e67912-9913-4b22-9f1b-3e86879e1d6d"},"payor":[{"reference":"Organization/024e2731-b045-43bf-80d2-684774c5b51c"}]},"request":{"method":"PUT","url":"Coverage/d5b20dbe-b6ab-4ebf-95df-f4b785d58798"}},{"fullUrl":"https://madie.cms.gov/Organization/123456","resource":{"resourceType":"Organization","id":"024e2731-b045-43bf-80d2-684774c5b51c","meta":{"profile":["http://hl7.org/fhir/us/qicore/StructureDefinition/qicore-organization"]},"identifier":[{"use":"temp","system":"urn:oid:2.16.840.1.113883.4.4","value":"21-3259825"}],"active":true,"type":[{"coding":[{"system":"http://terminology.hl7.org/CodeSystem/organization-type","code":"pay","display":"Payer"}]}],"name":"Blue Cross Blue Shield of Texas","telecom":[{"system":"phone","value":"(+1) 972-766-6900"}],"address":[{"use":"billing","type":"postal","line":["P.O. Box 660044"],"city":"Dallas","state":"TX","postalCode":"75266-0044","country":"USA"}]},"request":{"method":"PUT","url":"Organization/024e2731-b045-43bf-80d2-684774c5b51c"}},{"fullUrl":"https://madie.cms.gov/MeasureReport/08859baa-2ea9-42be-95af-6f03885a8070","resource":{"resourceType":"MeasureReport","id":"08859baa-2ea9-42be-95af-6f03885a8070","meta":{"profile":["http://hl7.org/fhir/us/cqfmeasures/StructureDefinition/test-case-cqfm"]},"contained":[{"resourceType":"Parameters","id":"a139ad92-34f2-404f-a426-0d1c502b9e7e-parameters","parameter":[{"name":"subject","valueString":"15e67912-9913-4b22-9f1b-3e86879e1d6d"}]}],"extension":[{"url":"http://hl7.org/fhir/us/cqfmeasures/StructureDefinition/cqfm-inputParameters","valueReference":{"reference":"#a139ad92-34f2-404f-a426-0d1c502b9e7e-parameters"}},{"url":"http://hl7.org/fhir/us/cqfmeasures/StructureDefinition/cqfm-testCaseDescription","valueMarkdown":"Patient receives CMO during inpatient encounter. ED ends 1 minute before observation. Obs ends 1 min before inpatient encounter start. Testing day of operator with HospitalizationWithObservation function."}],"modifierExtension":[{"url":"http://hl7.org/fhir/us/cqfmeasures/StructureDefinition/cqfm-isTestCase","valueBoolean":true}],"status":"complete","type":"individual","measure":"https://madie.cms.gov/Measure/DischargedonAntithromboticTherapyFHIR","period":{"start":"2025-01-01","end":"2025-12-31"},"group":[{"population":[{"code":{"coding":[{"system":"http://terminology.hl7.org/CodeSystem/measure-population","code":"initial-population","display":"Initial Population"}]},"count":1},{"code":{"coding":[{"system":"http://terminology.hl7.org/CodeSystem/measure-population","code":"denominator","display":"Denominator"}]},"count":1},{"code":{"coding":[{"system":"http://terminology.hl7.org/CodeSystem/measure-population","code":"denominator-exclusion","display":"Denominator Exclusion"}]},"count":1},{"code":{"coding":[{"system":"http://terminology.hl7.org/CodeSystem/measure-population","code":"numerator","display":"Numerator"}]},"count":0},{"code":{"coding":[{"system":"http://terminology.hl7.org/CodeSystem/measure-population","code":"denominator-exception","display":"Denominator Exception"}]},"count":0}]}]},"request":{"method":"PUT","url":"MeasureReport/08859baa-2ea9-42be-95af-6f03885a8070"}}]}