{"resourceType":"Bundle","id":"tests-0623e2b5-f872-4574-934b-ef2e63d85b6d-bundle","type":"transaction","entry":[{"fullUrl":"https://madie.cms.gov/Patient/0623e2b5-f872-4574-934b-ef2e63d85b6d","resource":{"resourceType":"Patient","id":"0623e2b5-f872-4574-934b-ef2e63d85b6d","meta":{"profile":["http://hl7.org/fhir/us/qicore/StructureDefinition/qicore-patient"]},"text":{"status":"generated","div":"<div xmlns=\"http://www.w3.org/1999/xhtml\"><div class=\"hapiHeaderText\">EncDxNotAbnPres <b>DENEXFAIL </b></div><table class=\"hapiPropertyTable\"><tbody><tr><td>Identifier</td><td>7428b2b362015fd476ba0221287d599b0682523b1019318961fe8ec9cb029610</td></tr><tr><td>Date of birth</td><td><span>14 February 1985</span></td></tr></tbody></table></div>"},"extension":[{"url":"http://hl7.org/fhir/us/core/StructureDefinition/us-core-race","extension":[{"url":"ombCategory","valueCoding":{"system":"urn:oid:2.16.840.1.113883.6.238","code":"1002-5","display":"American Indian or Alaska Native","userSelected":true}},{"url":"text","valueString":"American Indian or Alaska Native"}]},{"url":"http://hl7.org/fhir/us/core/StructureDefinition/us-core-ethnicity","extension":[{"url":"ombCategory","valueCoding":{"system":"urn:oid:2.16.840.1.113883.6.238","code":"2135-2","display":"Hispanic or Latino","userSelected":true}},{"url":"text","valueString":"Hispanic or Latino"}]}],"identifier":[{"type":{"coding":[{"system":"http://terminology.hl7.org/CodeSystem/v2-0203","code":"MR"}]},"system":"https://bonnie-fhir.healthit.gov/","value":"63487c2e0968f80122540187"}],"active":true,"name":[{"use":"usual","family":"DENEXFail","given":["EncDxNotAbnPres"]}],"gender":"female","birthDate":"1997-02-14"},"request":{"method":"PUT","url":"Patient/0623e2b5-f872-4574-934b-ef2e63d85b6d"}},{"fullUrl":"https://madie.cms.gov/Observation/5d014eb2b8484608723805e3","resource":{"resourceType":"Observation","id":"41613b57-030a-4062-8690-25a810061c2c","meta":{"profile":["http://hl7.org/fhir/us/qicore/StructureDefinition/qicore-observation"]},"status":"final","category":[{"coding":[{"system":"http://terminology.hl7.org/CodeSystem/observation-category","code":"exam","display":"exam","userSelected":true}]}],"code":{"coding":[{"system":"http://loinc.org","code":"11996-6"}]},"subject":{"reference":"Patient/0623e2b5-f872-4574-934b-ef2e63d85b6d"},"effectiveDateTime":"2025-06-08T08:00:00.000+00:00","valueInteger":1},"request":{"method":"PUT","url":"Observation/41613b57-030a-4062-8690-25a810061c2c"}},{"fullUrl":"https://madie.cms.gov/Observation/5d014eb2b8484608723805e5","resource":{"resourceType":"Observation","id":"4d9be826-c21a-4a06-8346-890a3568b3a9","meta":{"profile":["http://hl7.org/fhir/us/qicore/StructureDefinition/qicore-observation"]},"status":"final","category":[{"coding":[{"system":"http://terminology.hl7.org/CodeSystem/observation-category","code":"exam","display":"exam","userSelected":true}]}],"code":{"coding":[{"system":"http://loinc.org","code":"11884-4"}]},"subject":{"reference":"Patient/0623e2b5-f872-4574-934b-ef2e63d85b6d"},"effectiveDateTime":"2025-06-08T08:00:00.000+00:00","valueQuantity":{"value":43.0,"system":"http://unitsofmeasure.org","code":"weeks"}},"request":{"method":"PUT","url":"Observation/4d9be826-c21a-4a06-8346-890a3568b3a9"}},{"fullUrl":"https://madie.cms.gov/Observation/5e611577eadaae0000c2b073","resource":{"resourceType":"Observation","id":"545b77e8-7fa0-4dc4-af49-160b6f20fd9c","meta":{"profile":["http://hl7.org/fhir/us/qicore/StructureDefinition/qicore-observation"]},"status":"final","category":[{"coding":[{"system":"http://terminology.hl7.org/CodeSystem/observation-category","code":"exam","display":"exam","userSelected":true}]}],"code":{"coding":[{"system":"http://loinc.org","code":"93857-1"}]},"subject":{"reference":"Patient/0623e2b5-f872-4574-934b-ef2e63d85b6d"},"effectiveDateTime":"2025-06-08T20:00:00.000+00:00","valueDateTime":"2025-06-08T20:00:00+00:00"},"request":{"method":"PUT","url":"Observation/545b77e8-7fa0-4dc4-af49-160b6f20fd9c"}},{"fullUrl":"https://madie.cms.gov/Encounter/5d014eb2b8484608723805e1","resource":{"resourceType":"Encounter","id":"2ecd6020-148c-4f44-965d-4e30152c3cd6","meta":{"profile":["http://hl7.org/fhir/us/qicore/StructureDefinition/qicore-encounter"]},"status":"finished","class":{"system":"http://terminology.hl7.org/CodeSystem/v3-ActCode","code":"IMP","display":"inpatient encounter"},"type":[{"coding":[{"system":"http://snomed.info/sct","code":"8715000"}]}],"subject":{"reference":"Patient/0623e2b5-f872-4574-934b-ef2e63d85b6d"},"period":{"start":"2025-06-08T08:00:00.000Z","end":"2025-06-10T08:15:00.000Z"},"diagnosis":[{"condition":{"reference":"Condition/delivery-of-singleton-09a6"}}]},"request":{"method":"PUT","url":"Encounter/2ecd6020-148c-4f44-965d-4e30152c3cd6"}},{"fullUrl":"https://madie.cms.gov/Procedure/5d014eb2b8484608723805e2","resource":{"resourceType":"Procedure","id":"3c8e3f74-e342-4c7b-9438-50da647b440f","meta":{"profile":["http://hl7.org/fhir/us/qicore/StructureDefinition/qicore-procedure"]},"extension":[{"url":"http://hl7.org/fhir/us/qicore/StructureDefinition/qicore-recorded","valueDateTime":"2013-04-05T09:35:00-04:00"}],"status":"completed","code":{"coding":[{"system":"http://snomed.info/sct","code":"4504004"},{"system":"http://www.icd10data.com/icd10pcs","code":"10D00Z0","userSelected":true}]},"subject":{"reference":"Patient/0623e2b5-f872-4574-934b-ef2e63d85b6d"},"performedDateTime":"2025-06-08T20:00:00.000+00:00"},"request":{"method":"PUT","url":"Procedure/3c8e3f74-e342-4c7b-9438-50da647b440f"}},{"fullUrl":"https://madie.cms.gov/Condition/delivery-of-singleton-09a6","resource":{"resourceType":"Condition","id":"b5813ad3-1be0-420b-a180-a171b83fdac3","meta":{"profile":["http://hl7.org/fhir/us/qicore/StructureDefinition/qicore-condition"]},"category":[{"coding":[{"system":"http://terminology.hl7.org/CodeSystem/condition-category","code":"encounter-diagnosis","display":"Encounter Diagnosis"}]}],"code":{"coding":[{"system":"http://snomed.info/sct","version":"2022-09","code":"169826009","display":"Single live birth (finding)","userSelected":true}]},"subject":{"reference":"Patient/0623e2b5-f872-4574-934b-ef2e63d85b6d"},"recordedDate":"2025-10-17T08:00:00.000+00:00"},"request":{"method":"PUT","url":"Condition/b5813ad3-1be0-420b-a180-a171b83fdac3"}},{"fullUrl":"https://madie.cms.gov/Coverage/1","resource":{"resourceType":"Coverage","id":"7a95f2e9-44e9-4eff-baaf-e9d779827730","meta":{"profile":["http://hl7.org/fhir/us/qicore/StructureDefinition/qicore-coverage"]},"status":"active","beneficiary":{"reference":"Patient/0623e2b5-f872-4574-934b-ef2e63d85b6d"},"payor":[{"reference":"Organization/806b0255-13cb-4f2b-9412-571554dd2169"}]},"request":{"method":"PUT","url":"Coverage/7a95f2e9-44e9-4eff-baaf-e9d779827730"}},{"fullUrl":"https://madie.cms.gov/Organization/123456","resource":{"resourceType":"Organization","id":"806b0255-13cb-4f2b-9412-571554dd2169","meta":{"profile":["http://hl7.org/fhir/us/qicore/StructureDefinition/qicore-organization"]},"identifier":[{"use":"temp","system":"urn:oid:2.16.840.1.113883.4.4","value":"21-3259825"}],"active":true,"type":[{"coding":[{"system":"http://terminology.hl7.org/CodeSystem/organization-type","code":"pay","display":"Payer"}]}],"name":"Blue Cross Blue Shield of Texas","telecom":[{"system":"phone","value":"(+1) 972-766-6900"}],"address":[{"use":"billing","type":"postal","line":["P.O. Box 660044"],"city":"Dallas","state":"TX","postalCode":"75266-0044","country":"USA"}]},"request":{"method":"PUT","url":"Organization/806b0255-13cb-4f2b-9412-571554dd2169"}},{"fullUrl":"https://madie.cms.gov/Practitioner/practitioner-123456","resource":{"resourceType":"Practitioner","id":"0ca6efd1-c967-4ec0-8828-6cf2826b0389","identifier":[{"system":"http://hl7.org/fhir/sid/us-npi","value":"123456"}],"name":[{"family":"Evil","prefix":["Dr"]}]},"request":{"method":"PUT","url":"Practitioner/0ca6efd1-c967-4ec0-8828-6cf2826b0389"}},{"fullUrl":"https://madie.cms.gov/MeasureReport/81e28156-8b4d-47ce-a791-4cb373dc239c","resource":{"resourceType":"MeasureReport","id":"81e28156-8b4d-47ce-a791-4cb373dc239c","meta":{"profile":["http://hl7.org/fhir/us/cqfmeasures/StructureDefinition/test-case-cqfm"]},"contained":[{"resourceType":"Parameters","id":"4b31aa75-6790-477f-a5a1-1317f3a48778-parameters","parameter":[{"name":"subject","valueString":"0623e2b5-f872-4574-934b-ef2e63d85b6d"}]}],"extension":[{"url":"http://hl7.org/fhir/us/cqfmeasures/StructureDefinition/cqfm-inputParameters","valueReference":{"reference":"#4b31aa75-6790-477f-a5a1-1317f3a48778-parameters"}},{"url":"http://hl7.org/fhir/us/cqfmeasures/StructureDefinition/cqfm-testCaseDescription","valueMarkdown":"EGA 43 weeks; Not abnormal presentation on encounter Attr dx, gravida 1, \n"}],"modifierExtension":[{"url":"http://hl7.org/fhir/us/cqfmeasures/StructureDefinition/cqfm-isTestCase","valueBoolean":true}],"status":"complete","type":"individual","measure":"https://madie.cms.gov/Measure/CesareanBirthFHIR","period":{"start":"2025-01-01","end":"2025-12-31"},"group":[{"population":[{"code":{"coding":[{"system":"http://terminology.hl7.org/CodeSystem/measure-population","code":"initial-population","display":"Initial Population"}]},"count":1},{"code":{"coding":[{"system":"http://terminology.hl7.org/CodeSystem/measure-population","code":"denominator","display":"Denominator"}]},"count":1},{"code":{"coding":[{"system":"http://terminology.hl7.org/CodeSystem/measure-population","code":"denominator-exclusion","display":"Denominator Exclusion"}]},"count":0},{"code":{"coding":[{"system":"http://terminology.hl7.org/CodeSystem/measure-population","code":"numerator","display":"Numerator"}]},"count":0}]}]},"request":{"method":"PUT","url":"MeasureReport/81e28156-8b4d-47ce-a791-4cb373dc239c"}}]}