{"resourceType":"Bundle","id":"tests-3e948892-1ae0-4aa5-8a64-55248d3864f8-bundle","type":"transaction","entry":[{"fullUrl":"https://madie.cms.gov/Patient/3e948892-1ae0-4aa5-8a64-55248d3864f8","resource":{"resourceType":"Patient","id":"3e948892-1ae0-4aa5-8a64-55248d3864f8","meta":{"profile":["http://hl7.org/fhir/us/qicore/StructureDefinition/qicore-patient"]},"text":{"status":"generated","div":"<div xmlns=\"http://www.w3.org/1999/xhtml\"><div class=\"hapiHeaderText\">AssessTimeOfDelivRelvDateTimeEQDelivEncStart <b>DENPASS </b></div><table class=\"hapiPropertyTable\"><tbody><tr><td>Identifier</td><td>2b1f0141ffe85efd85bb0ba18ddf833ac147ccc7ffd86f1de2a9b7f23de6478b</td></tr><tr><td>Date of birth</td><td><span>14 February 1985</span></td></tr></tbody></table></div>"},"extension":[{"url":"http://hl7.org/fhir/us/core/StructureDefinition/us-core-race","extension":[{"url":"ombCategory","valueCoding":{"system":"urn:oid:2.16.840.1.113883.6.238","code":"1002-5","display":"American Indian or Alaska Native","userSelected":true}},{"url":"text","valueString":"American Indian or Alaska Native"}]},{"url":"http://hl7.org/fhir/us/core/StructureDefinition/us-core-ethnicity","extension":[{"url":"ombCategory","valueCoding":{"system":"urn:oid:2.16.840.1.113883.6.238","code":"2135-2","display":"Hispanic or Latino","userSelected":true}},{"url":"text","valueString":"Hispanic or Latino"}]}],"identifier":[{"type":{"coding":[{"system":"http://terminology.hl7.org/CodeSystem/v2-0203","code":"MR"}]},"system":"https://bonnie-fhir.healthit.gov/","value":"63487c2e0968f80122540172"}],"active":true,"name":[{"use":"usual","family":"DENPass","given":["AssessTimeOfDelivRelvDateTimeEQDelivEncStart"]}],"gender":"female","birthDate":"1997-02-14"},"request":{"method":"PUT","url":"Patient/3e948892-1ae0-4aa5-8a64-55248d3864f8"}},{"fullUrl":"https://madie.cms.gov/Observation/5d014eb1b848460872380488","resource":{"resourceType":"Observation","id":"7f3cb01d-ab46-402d-934f-f28a4c3d101a","meta":{"profile":["http://hl7.org/fhir/us/qicore/StructureDefinition/qicore-observation"]},"status":"final","category":[{"coding":[{"system":"http://terminology.hl7.org/CodeSystem/observation-category","code":"exam","display":"exam","userSelected":true}]}],"code":{"coding":[{"system":"http://loinc.org","code":"11884-4"}]},"subject":{"reference":"Patient/3e948892-1ae0-4aa5-8a64-55248d3864f8"},"effectiveDateTime":"2025-06-08T07:15:00.000+00:00","valueQuantity":{"value":38.0,"system":"http://unitsofmeasure.org","code":"weeks"}},"request":{"method":"PUT","url":"Observation/7f3cb01d-ab46-402d-934f-f28a4c3d101a"}},{"fullUrl":"https://madie.cms.gov/Observation/5d014eb1b84846087238048a","resource":{"resourceType":"Observation","id":"d7199288-a330-4796-b931-13bf9855251a","meta":{"profile":["http://hl7.org/fhir/us/qicore/StructureDefinition/qicore-observation"]},"status":"final","category":[{"coding":[{"system":"http://terminology.hl7.org/CodeSystem/observation-category","code":"exam","display":"exam","userSelected":true}]}],"code":{"coding":[{"system":"http://loinc.org","code":"11996-6"}]},"subject":{"reference":"Patient/3e948892-1ae0-4aa5-8a64-55248d3864f8"},"effectiveDateTime":"2025-06-08T07:59:00.000+00:00","valueInteger":1},"request":{"method":"PUT","url":"Observation/d7199288-a330-4796-b931-13bf9855251a"}},{"fullUrl":"https://madie.cms.gov/Observation/5e6937c77ffec7000031e83c","resource":{"resourceType":"Observation","id":"1d731b82-1b36-4dfe-b504-3ba90b9bb1ad","meta":{"profile":["http://hl7.org/fhir/us/qicore/StructureDefinition/qicore-observation"]},"status":"final","category":[{"coding":[{"system":"http://terminology.hl7.org/CodeSystem/observation-category","code":"exam","display":"exam","userSelected":true}]}],"code":{"coding":[{"system":"http://loinc.org","code":"93857-1"}]},"subject":{"reference":"Patient/3e948892-1ae0-4aa5-8a64-55248d3864f8"},"effectiveDateTime":"2025-06-08T08:00:00.000+00:00","issued":"2025-06-08T08:00:00.000+00:00","valueDateTime":"2025-06-08T08:00:00+00:00"},"request":{"method":"PUT","url":"Observation/1d731b82-1b36-4dfe-b504-3ba90b9bb1ad"}},{"fullUrl":"https://madie.cms.gov/Encounter/5d014eb1b848460872380486","resource":{"resourceType":"Encounter","id":"1886fa65-5ff7-4d94-a8e7-1370a4e72ab8","meta":{"profile":["http://hl7.org/fhir/us/qicore/StructureDefinition/qicore-encounter"]},"status":"finished","class":{"system":"http://terminology.hl7.org/CodeSystem/v3-ActCode","code":"IMP","display":"inpatient encounter"},"type":[{"coding":[{"system":"http://snomed.info/sct","code":"183452005"}]}],"subject":{"reference":"Patient/3e948892-1ae0-4aa5-8a64-55248d3864f8"},"period":{"start":"2025-06-08T08:00:00.000Z","end":"2025-06-10T08:15:00.000Z"},"length":{"value":2.0,"unit":"days"},"diagnosis":[{"condition":{"reference":"Condition/delivery-of-singleton-f83c"},"use":{"coding":[{"system":"http://snomed.info/sct","code":"169826009","display":"Delivery of Singleton"}]}}]},"request":{"method":"PUT","url":"Encounter/1886fa65-5ff7-4d94-a8e7-1370a4e72ab8"}},{"fullUrl":"https://madie.cms.gov/Coverage/5f5f9e491c76ba674bb032f5","resource":{"resourceType":"Coverage","id":"e81eede7-c85b-4d65-95f5-f2d1dd6d5f47","status":"active","beneficiary":{"reference":"Patient/3e948892-1ae0-4aa5-8a64-55248d3864f8"},"period":{"start":"1985-02-14T08:00:00.000Z"},"payor":[{"reference":"Organization/80e3e0d1-b2aa-43a6-b1d2-00bfa3164a0f"}]},"request":{"method":"PUT","url":"Coverage/e81eede7-c85b-4d65-95f5-f2d1dd6d5f47"}},{"fullUrl":"https://madie.cms.gov/Procedure/5d014eb1b848460872380487","resource":{"resourceType":"Procedure","id":"641dad0a-63a4-445c-871f-a1000818832d","meta":{"profile":["http://hl7.org/fhir/us/qicore/StructureDefinition/qicore-procedure"]},"extension":[{"url":"http://hl7.org/fhir/us/qicore/StructureDefinition/qicore-recorded","valueDateTime":"2013-04-05T09:35:00-04:00"}],"status":"completed","code":{"coding":[{"system":"http://www.cms.gov/Medicare/Coding/ICD10","code":"10D00Z0"},{"system":"http://www.icd10data.com/icd10pcs","code":"10D07Z3","userSelected":true}]},"subject":{"reference":"Patient/3e948892-1ae0-4aa5-8a64-55248d3864f8"},"performedPeriod":{"start":"2025-06-08T08:00:00.000Z","end":"2025-06-08T09:15:00.000Z"}},"request":{"method":"PUT","url":"Procedure/641dad0a-63a4-445c-871f-a1000818832d"}},{"fullUrl":"https://madie.cms.gov/Condition/delivery-of-singleton-f83c","resource":{"resourceType":"Condition","id":"12aade5d-2922-49cf-9333-06938ae7a491","meta":{"profile":["http://hl7.org/fhir/us/qicore/StructureDefinition/qicore-condition"]},"category":[{"coding":[{"system":"http://terminology.hl7.org/CodeSystem/condition-category","code":"encounter-diagnosis","display":"Encounter Diagnosis"}]}],"code":{"coding":[{"system":"http://snomed.info/sct","version":"2022-09","code":"169826009","display":"Single live birth (finding)","userSelected":true}]},"subject":{"reference":"Patient/3e948892-1ae0-4aa5-8a64-55248d3864f8"},"recordedDate":"2025-10-20T08:00:00.000+00:00"},"request":{"method":"PUT","url":"Condition/12aade5d-2922-49cf-9333-06938ae7a491"}},{"fullUrl":"https://madie.cms.gov/Organization/123456","resource":{"resourceType":"Organization","id":"80e3e0d1-b2aa-43a6-b1d2-00bfa3164a0f","meta":{"profile":["http://hl7.org/fhir/us/qicore/StructureDefinition/qicore-organization"]},"identifier":[{"use":"temp","system":"urn:oid:2.16.840.1.113883.4.4","value":"21-3259825"}],"active":true,"type":[{"coding":[{"system":"http://terminology.hl7.org/CodeSystem/organization-type","code":"pay","display":"Payer"}]}],"name":"Blue Cross Blue Shield of Texas","telecom":[{"system":"phone","value":"(+1) 972-766-6900"}],"address":[{"use":"billing","type":"postal","line":["P.O. Box 660044"],"city":"Dallas","state":"TX","postalCode":"75266-0044","country":"USA"}]},"request":{"method":"PUT","url":"Organization/80e3e0d1-b2aa-43a6-b1d2-00bfa3164a0f"}},{"fullUrl":"https://madie.cms.gov/Practitioner/practitioner-123456","resource":{"resourceType":"Practitioner","id":"6f182d3d-f94d-4a4b-8147-7ccd19e6cb0a","identifier":[{"system":"http://hl7.org/fhir/sid/us-npi","value":"123456"}],"name":[{"family":"Evil","prefix":["Dr"]}]},"request":{"method":"PUT","url":"Practitioner/6f182d3d-f94d-4a4b-8147-7ccd19e6cb0a"}},{"fullUrl":"https://madie.cms.gov/MeasureReport/494b6fb9-41a5-4510-8593-442bca28a3ca","resource":{"resourceType":"MeasureReport","id":"494b6fb9-41a5-4510-8593-442bca28a3ca","meta":{"profile":["http://hl7.org/fhir/us/cqfmeasures/StructureDefinition/test-case-cqfm"]},"contained":[{"resourceType":"Parameters","id":"de1baca6-3d73-4889-a8a0-45deebc249c5-parameters","parameter":[{"name":"subject","valueString":"3e948892-1ae0-4aa5-8a64-55248d3864f8"}]}],"extension":[{"url":"http://hl7.org/fhir/us/cqfmeasures/StructureDefinition/cqfm-inputParameters","valueReference":{"reference":"#de1baca6-3d73-4889-a8a0-45deebc249c5-parameters"}},{"url":"http://hl7.org/fhir/us/cqfmeasures/StructureDefinition/cqfm-testCaseDescription","valueMarkdown":"Passes: IP, Pt is 27 years of age,  encounter dx of delivery of singleton, gravida, EGA( >37 ) and @ 38 weeks, AsseDelivTm Is DelivEncStart.  Tests \"TimeOfDelivery.relevantDatetime during DeliveryEncounters.relevantPeriod\".\n"}],"modifierExtension":[{"url":"http://hl7.org/fhir/us/cqfmeasures/StructureDefinition/cqfm-isTestCase","valueBoolean":true}],"status":"complete","type":"individual","measure":"https://madie.cms.gov/Measure/CesareanBirthFHIR","period":{"start":"2025-01-01","end":"2025-12-31"},"group":[{"population":[{"code":{"coding":[{"system":"http://terminology.hl7.org/CodeSystem/measure-population","code":"initial-population","display":"Initial Population"}]},"count":1},{"code":{"coding":[{"system":"http://terminology.hl7.org/CodeSystem/measure-population","code":"denominator","display":"Denominator"}]},"count":1},{"code":{"coding":[{"system":"http://terminology.hl7.org/CodeSystem/measure-population","code":"denominator-exclusion","display":"Denominator Exclusion"}]},"count":0},{"code":{"coding":[{"system":"http://terminology.hl7.org/CodeSystem/measure-population","code":"numerator","display":"Numerator"}]},"count":1}]}]},"request":{"method":"PUT","url":"MeasureReport/494b6fb9-41a5-4510-8593-442bca28a3ca"}}]}