{"resourceType":"Bundle","id":"tests-82f21ead-f571-4c37-9f50-805db63f44c6-bundle","type":"transaction","entry":[{"fullUrl":"https://madie.cms.gov/Patient/82f21ead-f571-4c37-9f50-805db63f44c6","resource":{"resourceType":"Patient","id":"82f21ead-f571-4c37-9f50-805db63f44c6","meta":{"profile":["http://hl7.org/fhir/us/qicore/StructureDefinition/qicore-patient"]},"text":{"status":"generated","div":"<div xmlns=\"http://www.w3.org/1999/xhtml\"><div class=\"hapiHeaderText\">EncDxPlacentaPrevia <b>DENEXPASS </b></div><table class=\"hapiPropertyTable\"><tbody><tr><td>Identifier</td><td>26ae2095ae359d33c45002ef417f38a5e4f6a61da3ea75d0332f68a4cb93137e</td></tr><tr><td>Date of birth</td><td><span>14 February 1985</span></td></tr></tbody></table></div>"},"extension":[{"url":"http://hl7.org/fhir/us/core/StructureDefinition/us-core-race","extension":[{"url":"ombCategory","valueCoding":{"system":"urn:oid:2.16.840.1.113883.6.238","code":"1002-5","display":"American Indian or Alaska Native","userSelected":true}},{"url":"text","valueString":"American Indian or Alaska Native"}]},{"url":"http://hl7.org/fhir/us/core/StructureDefinition/us-core-ethnicity","extension":[{"url":"ombCategory","valueCoding":{"system":"urn:oid:2.16.840.1.113883.6.238","code":"2135-2","display":"Hispanic or Latino","userSelected":true}},{"url":"text","valueString":"Hispanic or Latino"}]}],"identifier":[{"type":{"coding":[{"system":"http://terminology.hl7.org/CodeSystem/v2-0203","code":"MR"}]},"system":"https://bonnie-fhir.healthit.gov/","value":"63487c2e0968f8012254018b"}],"active":true,"name":[{"use":"usual","family":"DenPass","given":["DxCodeOf37Weeks"]}],"gender":"female","birthDate":"1997-02-14"},"request":{"method":"PUT","url":"Patient/82f21ead-f571-4c37-9f50-805db63f44c6"}},{"fullUrl":"https://madie.cms.gov/Observation/5d014eb2b8484608723805ea","resource":{"resourceType":"Observation","id":"6bf99ad0-37f2-4e26-a7cf-c86531941c2a","meta":{"profile":["http://hl7.org/fhir/us/qicore/StructureDefinition/qicore-observation"]},"status":"final","category":[{"coding":[{"system":"http://terminology.hl7.org/CodeSystem/observation-category","code":"exam","display":"exam","userSelected":true}]}],"code":{"coding":[{"system":"http://loinc.org","code":"11996-6"}]},"subject":{"reference":"Patient/82f21ead-f571-4c37-9f50-805db63f44c6"},"effectiveDateTime":"2025-06-08T08:00:00.000+00:00","valueInteger":1},"request":{"method":"PUT","url":"Observation/6bf99ad0-37f2-4e26-a7cf-c86531941c2a"}},{"fullUrl":"https://madie.cms.gov/Observation/5e61190beadaae0000c2b763","resource":{"resourceType":"Observation","id":"08accf01-51dd-4461-8bc2-739cafcc9d73","meta":{"profile":["http://hl7.org/fhir/us/qicore/StructureDefinition/qicore-observation"]},"status":"final","category":[{"coding":[{"system":"http://terminology.hl7.org/CodeSystem/observation-category","code":"exam","display":"exam","userSelected":true}]}],"code":{"coding":[{"system":"http://loinc.org","code":"93857-1"}]},"subject":{"reference":"Patient/82f21ead-f571-4c37-9f50-805db63f44c6"},"effectiveDateTime":"2025-06-08T20:00:00.000+00:00","valueDateTime":"2025-06-08T20:00:00+00:00"},"request":{"method":"PUT","url":"Observation/08accf01-51dd-4461-8bc2-739cafcc9d73"}},{"fullUrl":"https://madie.cms.gov/Encounter/5d014eb2b8484608723805e8","resource":{"resourceType":"Encounter","id":"9c4e5cae-e237-4306-9ac2-30a162587fd7","meta":{"profile":["http://hl7.org/fhir/us/qicore/StructureDefinition/qicore-encounter"]},"status":"finished","class":{"system":"http://terminology.hl7.org/CodeSystem/v3-ActCode","code":"IMP","display":"inpatient encounter"},"type":[{"coding":[{"system":"http://snomed.info/sct","code":"8715000"}]}],"subject":{"reference":"Patient/82f21ead-f571-4c37-9f50-805db63f44c6"},"period":{"start":"2025-06-08T08:00:00.000Z","end":"2025-06-10T08:15:00.000Z"},"diagnosis":[{"condition":{"reference":"Condition/delivery-of-singleton-09a0"}},{"condition":{"reference":"Condition/diagnosis-code-indicating-weeks-gestation"}}]},"request":{"method":"PUT","url":"Encounter/9c4e5cae-e237-4306-9ac2-30a162587fd7"}},{"fullUrl":"https://madie.cms.gov/Procedure/5d014eb2b8484608723805e9","resource":{"resourceType":"Procedure","id":"2927bb35-dcac-4a7b-bdac-e568460da09b","meta":{"profile":["http://hl7.org/fhir/us/qicore/StructureDefinition/qicore-procedure"]},"extension":[{"url":"http://hl7.org/fhir/us/qicore/StructureDefinition/qicore-recorded","valueDateTime":"2013-04-05T09:35:00-04:00"}],"status":"completed","code":{"coding":[{"system":"http://snomed.info/sct","code":"4504004"}]},"subject":{"reference":"Patient/82f21ead-f571-4c37-9f50-805db63f44c6"},"performedPeriod":{"start":"2025-06-08T20:00:00.000Z","end":"2025-06-18T20:00:00.000Z"}},"request":{"method":"PUT","url":"Procedure/2927bb35-dcac-4a7b-bdac-e568460da09b"}},{"fullUrl":"https://madie.cms.gov/Condition/delivery-of-singleton-09a0","resource":{"resourceType":"Condition","id":"a105d9cc-f6e5-4cde-9f10-8d7375aaed32","meta":{"profile":["http://hl7.org/fhir/us/qicore/StructureDefinition/qicore-condition"]},"category":[{"coding":[{"system":"http://terminology.hl7.org/CodeSystem/condition-category","code":"encounter-diagnosis","display":"Encounter Diagnosis"}]}],"code":{"coding":[{"system":"http://snomed.info/sct","version":"2022-09","code":"169826009","display":"Single live birth (finding)","userSelected":true}]},"subject":{"reference":"Patient/82f21ead-f571-4c37-9f50-805db63f44c6"},"recordedDate":"2025-10-17T08:00:00.000+00:00"},"request":{"method":"PUT","url":"Condition/a105d9cc-f6e5-4cde-9f10-8d7375aaed32"}},{"fullUrl":"https://madie.cms.gov/Condition/diagnosis-code-indicating-weeks-gestation","resource":{"resourceType":"Condition","id":"d7f7ef4b-c5bf-488d-8639-38e119dbe4b8","meta":{"profile":["http://hl7.org/fhir/us/qicore/StructureDefinition/qicore-condition"]},"category":[{"coding":[{"system":"http://terminology.hl7.org/CodeSystem/condition-category","code":"encounter-diagnosis","display":"Encounter Diagnosis"}]}],"code":{"coding":[{"system":"http://snomed.info/sct","version":"2022-09","code":"43697006","display":"Gestation period, 37 weeks (finding)","userSelected":true}]},"subject":{"reference":"Patient/82f21ead-f571-4c37-9f50-805db63f44c6"},"recordedDate":"2025-10-17T08:00:00.000+00:00"},"request":{"method":"PUT","url":"Condition/d7f7ef4b-c5bf-488d-8639-38e119dbe4b8"}},{"fullUrl":"https://madie.cms.gov/Coverage/1","resource":{"resourceType":"Coverage","id":"5699251a-c4d5-4c34-8034-9e846353c24d","meta":{"profile":["http://hl7.org/fhir/us/qicore/StructureDefinition/qicore-coverage"]},"status":"active","beneficiary":{"reference":"Patient/82f21ead-f571-4c37-9f50-805db63f44c6"},"payor":[{"reference":"Organization/ec8cac12-7dd8-4c6e-8c44-d6c645085c80"}]},"request":{"method":"PUT","url":"Coverage/5699251a-c4d5-4c34-8034-9e846353c24d"}},{"fullUrl":"https://madie.cms.gov/Organization/123456","resource":{"resourceType":"Organization","id":"ec8cac12-7dd8-4c6e-8c44-d6c645085c80","meta":{"profile":["http://hl7.org/fhir/us/qicore/StructureDefinition/qicore-organization"]},"identifier":[{"use":"temp","system":"urn:oid:2.16.840.1.113883.4.4","value":"21-3259825"}],"active":true,"type":[{"coding":[{"system":"http://terminology.hl7.org/CodeSystem/organization-type","code":"pay","display":"Payer"}]}],"name":"Blue Cross Blue Shield of Texas","telecom":[{"system":"phone","value":"(+1) 972-766-6900"}],"address":[{"use":"billing","type":"postal","line":["P.O. Box 660044"],"city":"Dallas","state":"TX","postalCode":"75266-0044","country":"USA"}]},"request":{"method":"PUT","url":"Organization/ec8cac12-7dd8-4c6e-8c44-d6c645085c80"}},{"fullUrl":"https://madie.cms.gov/Practitioner/practitioner-123456","resource":{"resourceType":"Practitioner","id":"1a36b091-4fec-4845-b84b-cc5a712e606b","identifier":[{"system":"http://hl7.org/fhir/sid/us-npi","value":"123456"}],"name":[{"family":"Evil","prefix":["Dr"]}]},"request":{"method":"PUT","url":"Practitioner/1a36b091-4fec-4845-b84b-cc5a712e606b"}},{"fullUrl":"https://madie.cms.gov/MeasureReport/df46d312-27c5-4cc8-942d-4ea64a82f5a1","resource":{"resourceType":"MeasureReport","id":"df46d312-27c5-4cc8-942d-4ea64a82f5a1","meta":{"profile":["http://hl7.org/fhir/us/cqfmeasures/StructureDefinition/test-case-cqfm"]},"contained":[{"resourceType":"Parameters","id":"a495f0a7-f547-4fee-8ccb-57627925a99a-parameters","parameter":[{"name":"subject","valueString":"82f21ead-f571-4c37-9f50-805db63f44c6"}]}],"extension":[{"url":"http://hl7.org/fhir/us/cqfmeasures/StructureDefinition/cqfm-inputParameters","valueReference":{"reference":"#a495f0a7-f547-4fee-8ccb-57627925a99a-parameters"}},{"url":"http://hl7.org/fhir/us/cqfmeasures/StructureDefinition/cqfm-testCaseDescription","valueMarkdown":"CGA and EGA are not present.  Diagnosis code of 37 weeks will pass Denom."}],"modifierExtension":[{"url":"http://hl7.org/fhir/us/cqfmeasures/StructureDefinition/cqfm-isTestCase","valueBoolean":true}],"status":"complete","type":"individual","measure":"https://madie.cms.gov/Measure/CesareanBirthFHIR","period":{"start":"2025-01-01","end":"2025-12-31"},"group":[{"population":[{"code":{"coding":[{"system":"http://terminology.hl7.org/CodeSystem/measure-population","code":"initial-population","display":"Initial Population"}]},"count":1},{"code":{"coding":[{"system":"http://terminology.hl7.org/CodeSystem/measure-population","code":"denominator","display":"Denominator"}]},"count":1},{"code":{"coding":[{"system":"http://terminology.hl7.org/CodeSystem/measure-population","code":"denominator-exclusion","display":"Denominator Exclusion"}]},"count":0},{"code":{"coding":[{"system":"http://terminology.hl7.org/CodeSystem/measure-population","code":"numerator","display":"Numerator"}]},"count":0}]}]},"request":{"method":"PUT","url":"MeasureReport/df46d312-27c5-4cc8-942d-4ea64a82f5a1"}}]}