{"resourceType":"Bundle","id":"tests-9f57cf87-16db-42df-90fc-10b68d59c9af-bundle","type":"transaction","entry":[{"fullUrl":"https://madie.cms.gov/Patient/9f57cf87-16db-42df-90fc-10b68d59c9af","resource":{"resourceType":"Patient","id":"9f57cf87-16db-42df-90fc-10b68d59c9af","meta":{"profile":["http://hl7.org/fhir/us/qicore/StructureDefinition/qicore-patient"]},"text":{"status":"generated","div":"<div xmlns=\"http://www.w3.org/1999/xhtml\"><div class=\"hapiHeaderText\">AssessG2 <b>DENFAIL </b></div><table class=\"hapiPropertyTable\"><tbody><tr><td>Identifier</td><td>6f0356902024199e6d960c23a612f7378959e827eecb2b03b3a499369c8970e4</td></tr><tr><td>Date of birth</td><td><span>14 February 1985</span></td></tr></tbody></table></div>"},"extension":[{"url":"http://hl7.org/fhir/us/core/StructureDefinition/us-core-race","extension":[{"url":"ombCategory","valueCoding":{"system":"urn:oid:2.16.840.1.113883.6.238","code":"1002-5","display":"American Indian or Alaska Native","userSelected":true}},{"url":"text","valueString":"American Indian or Alaska Native"}]},{"url":"http://hl7.org/fhir/us/core/StructureDefinition/us-core-ethnicity","extension":[{"url":"ombCategory","valueCoding":{"system":"urn:oid:2.16.840.1.113883.6.238","code":"2135-2","display":"Hispanic or Latino","userSelected":true}},{"url":"text","valueString":"Hispanic or Latino"}]}],"identifier":[{"type":{"coding":[{"system":"http://terminology.hl7.org/CodeSystem/v2-0203","code":"MR"}]},"system":"https://bonnie-fhir.healthit.gov/","value":"63487c2e0968f8012254016b"}],"active":true,"name":[{"use":"usual","family":"DENFail","given":["AssessG2"]}],"gender":"female","birthDate":"1997-02-14"},"request":{"method":"PUT","url":"Patient/9f57cf87-16db-42df-90fc-10b68d59c9af"}},{"fullUrl":"https://madie.cms.gov/Observation/5d014eb2b848460872380578","resource":{"resourceType":"Observation","id":"db3696d8-b801-47db-9ba7-c20b0fb64d9f","meta":{"profile":["http://hl7.org/fhir/us/qicore/StructureDefinition/qicore-observation"]},"status":"final","category":[{"coding":[{"system":"http://terminology.hl7.org/CodeSystem/observation-category","code":"exam","display":"exam","userSelected":true}]}],"code":{"coding":[{"system":"http://loinc.org","code":"11977-6"}]},"subject":{"reference":"Patient/9f57cf87-16db-42df-90fc-10b68d59c9af"},"effectiveDateTime":"2025-03-08T09:00:00.000+00:00"},"request":{"method":"PUT","url":"Observation/db3696d8-b801-47db-9ba7-c20b0fb64d9f"}},{"fullUrl":"https://madie.cms.gov/Observation/5d014eb2b848460872380579","resource":{"resourceType":"Observation","id":"a7c1eb9c-e90a-42dc-ba28-75b98ccc04f9","meta":{"profile":["http://hl7.org/fhir/us/qicore/StructureDefinition/qicore-observation"]},"status":"final","category":[{"coding":[{"system":"http://terminology.hl7.org/CodeSystem/observation-category","code":"exam","display":"exam","userSelected":true}]}],"code":{"coding":[{"system":"http://loinc.org","code":"11996-6"}]},"subject":{"reference":"Patient/9f57cf87-16db-42df-90fc-10b68d59c9af"},"effectiveDateTime":"2025-03-09T08:00:00.000+00:00","valueInteger":2},"request":{"method":"PUT","url":"Observation/a7c1eb9c-e90a-42dc-ba28-75b98ccc04f9"}},{"fullUrl":"https://madie.cms.gov/Observation/5d014eb2b84846087238057c","resource":{"resourceType":"Observation","id":"8c20f28c-ea53-421c-ab5a-5c194d53ca6b","meta":{"profile":["http://hl7.org/fhir/us/qicore/StructureDefinition/qicore-observation"]},"status":"final","category":[{"coding":[{"system":"http://terminology.hl7.org/CodeSystem/observation-category","code":"exam","display":"exam","userSelected":true}]}],"code":{"coding":[{"system":"http://loinc.org","code":"11884-4"}]},"subject":{"reference":"Patient/9f57cf87-16db-42df-90fc-10b68d59c9af"},"effectiveDateTime":"2025-06-08T20:00:00.000+00:00","valueQuantity":{"value":37.0,"system":"http://unitsofmeasure.org","code":"weeks"}},"request":{"method":"PUT","url":"Observation/8c20f28c-ea53-421c-ab5a-5c194d53ca6b"}},{"fullUrl":"https://madie.cms.gov/Observation/5e694f2f7ffec7000032059a","resource":{"resourceType":"Observation","id":"4501d411-fddd-4742-8f67-7850eba7b9b2","meta":{"profile":["http://hl7.org/fhir/us/qicore/StructureDefinition/qicore-observation"]},"status":"final","category":[{"coding":[{"system":"http://terminology.hl7.org/CodeSystem/observation-category","code":"exam","display":"exam","userSelected":true}]}],"code":{"coding":[{"system":"http://loinc.org","code":"93857-1"}]},"subject":{"reference":"Patient/9f57cf87-16db-42df-90fc-10b68d59c9af"},"effectiveDateTime":"2025-06-08T20:00:00.000+00:00","valueDateTime":"2025-06-08T20:00:00+00:00"},"request":{"method":"PUT","url":"Observation/4501d411-fddd-4742-8f67-7850eba7b9b2"}},{"fullUrl":"https://madie.cms.gov/Encounter/5d014eb2b848460872380576","resource":{"resourceType":"Encounter","id":"10503e8b-8c84-43de-85bb-fd2af233d09c","meta":{"profile":["http://hl7.org/fhir/us/qicore/StructureDefinition/qicore-encounter"]},"status":"finished","class":{"system":"http://terminology.hl7.org/CodeSystem/v3-ActCode","code":"IMP","display":"inpatient encounter"},"type":[{"coding":[{"system":"http://snomed.info/sct","code":"8715000"}]}],"subject":{"reference":"Patient/9f57cf87-16db-42df-90fc-10b68d59c9af"},"period":{"start":"2025-06-08T08:00:00.000Z","end":"2025-06-10T08:15:00.000Z"},"length":{"value":2.0,"unit":"days"},"diagnosis":[{"condition":{"reference":"Condition/delivery-of-singleton-f83c"},"use":{"coding":[{"system":"http://snomed.info/sct","code":"169826009","display":"Delivery of Singleton"}]}}]},"request":{"method":"PUT","url":"Encounter/10503e8b-8c84-43de-85bb-fd2af233d09c"}},{"fullUrl":"https://madie.cms.gov/Procedure/5d014eb2b848460872380577","resource":{"resourceType":"Procedure","id":"2299ead2-e68a-4a63-839d-edb177259fa6","meta":{"profile":["http://hl7.org/fhir/us/qicore/StructureDefinition/qicore-procedure"]},"extension":[{"url":"http://hl7.org/fhir/us/qicore/StructureDefinition/qicore-recorded","valueDateTime":"2013-04-05T09:35:00-04:00"}],"status":"completed","code":{"coding":[{"system":"http://www.cms.gov/Medicare/Coding/ICD10","code":"10D00Z0"},{"system":"http://snomed.info/sct","code":"4504004"}]},"subject":{"reference":"Patient/9f57cf87-16db-42df-90fc-10b68d59c9af"},"performedPeriod":{"start":"2025-06-08T20:00:00.000Z","end":"2025-06-08T20:15:00.000Z"}},"request":{"method":"PUT","url":"Procedure/2299ead2-e68a-4a63-839d-edb177259fa6"}},{"fullUrl":"https://madie.cms.gov/Coverage/1","resource":{"resourceType":"Coverage","id":"c12dfab6-5d53-4ab1-ad69-f5341f8a0667","meta":{"profile":["http://hl7.org/fhir/us/qicore/StructureDefinition/qicore-coverage"]},"status":"active","beneficiary":{"reference":"Patient/9f57cf87-16db-42df-90fc-10b68d59c9af"},"payor":[{"reference":"Organization/880a275e-1cf2-4fb9-869b-f1d2173fdc2b"}]},"request":{"method":"PUT","url":"Coverage/c12dfab6-5d53-4ab1-ad69-f5341f8a0667"}},{"fullUrl":"https://madie.cms.gov/Organization/123456","resource":{"resourceType":"Organization","id":"880a275e-1cf2-4fb9-869b-f1d2173fdc2b","meta":{"profile":["http://hl7.org/fhir/us/qicore/StructureDefinition/qicore-organization"]},"identifier":[{"use":"temp","system":"urn:oid:2.16.840.1.113883.4.4","value":"21-3259825"}],"active":true,"type":[{"coding":[{"system":"http://terminology.hl7.org/CodeSystem/organization-type","code":"pay","display":"Payer"}]}],"name":"Blue Cross Blue Shield of Texas","telecom":[{"system":"phone","value":"(+1) 972-766-6900"}],"address":[{"use":"billing","type":"postal","line":["P.O. Box 660044"],"city":"Dallas","state":"TX","postalCode":"75266-0044","country":"USA"}]},"request":{"method":"PUT","url":"Organization/880a275e-1cf2-4fb9-869b-f1d2173fdc2b"}},{"fullUrl":"https://madie.cms.gov/Condition/delivery-of-singleton-f83c","resource":{"resourceType":"Condition","id":"d1568cc2-4d39-4061-a791-c29d93bd77a8","meta":{"profile":["http://hl7.org/fhir/us/qicore/StructureDefinition/qicore-condition"]},"category":[{"coding":[{"system":"http://terminology.hl7.org/CodeSystem/condition-category","code":"encounter-diagnosis","display":"Encounter Diagnosis"}]}],"code":{"coding":[{"system":"http://snomed.info/sct","code":"169826009","display":"Single live birth (finding)"}]},"subject":{"reference":"Patient/9f57cf87-16db-42df-90fc-10b68d59c9af"}},"request":{"method":"PUT","url":"Condition/d1568cc2-4d39-4061-a791-c29d93bd77a8"}},{"fullUrl":"https://madie.cms.gov/Practitioner/practitioner-123456","resource":{"resourceType":"Practitioner","id":"02055c39-6408-4333-9058-be17f7ed6770","identifier":[{"system":"http://hl7.org/fhir/sid/us-npi","value":"123456"}],"name":[{"family":"Evil","prefix":["Dr"]}]},"request":{"method":"PUT","url":"Practitioner/02055c39-6408-4333-9058-be17f7ed6770"}},{"fullUrl":"https://madie.cms.gov/MeasureReport/bed1e4be-0d5d-4908-9dfa-4ed1e4529724","resource":{"resourceType":"MeasureReport","id":"bed1e4be-0d5d-4908-9dfa-4ed1e4529724","meta":{"profile":["http://hl7.org/fhir/us/cqfmeasures/StructureDefinition/test-case-cqfm"]},"contained":[{"resourceType":"Parameters","id":"d10b69f8-60da-44a9-b219-bb54dac3c7a9-parameters","parameter":[{"name":"subject","valueString":"9f57cf87-16db-42df-90fc-10b68d59c9af"}]}],"extension":[{"url":"http://hl7.org/fhir/us/cqfmeasures/StructureDefinition/cqfm-inputParameters","valueReference":{"reference":"#d10b69f8-60da-44a9-b219-bb54dac3c7a9-parameters"}},{"url":"http://hl7.org/fhir/us/cqfmeasures/StructureDefinition/cqfm-testCaseDescription","valueMarkdown":"Passes IP,   Gravida 2, Parity has no result. *Note: if change to P0 will then pass even tho G2*\n"}],"modifierExtension":[{"url":"http://hl7.org/fhir/us/cqfmeasures/StructureDefinition/cqfm-isTestCase","valueBoolean":true}],"status":"complete","type":"individual","measure":"https://madie.cms.gov/Measure/CesareanBirthFHIR","period":{"start":"2025-01-01","end":"2025-12-31"},"group":[{"population":[{"code":{"coding":[{"system":"http://terminology.hl7.org/CodeSystem/measure-population","code":"initial-population","display":"Initial Population"}]},"count":1},{"code":{"coding":[{"system":"http://terminology.hl7.org/CodeSystem/measure-population","code":"denominator","display":"Denominator"}]},"count":0},{"code":{"coding":[{"system":"http://terminology.hl7.org/CodeSystem/measure-population","code":"denominator-exclusion","display":"Denominator Exclusion"}]},"count":0},{"code":{"coding":[{"system":"http://terminology.hl7.org/CodeSystem/measure-population","code":"numerator","display":"Numerator"}]},"count":0}]}]},"request":{"method":"PUT","url":"MeasureReport/bed1e4be-0d5d-4908-9dfa-4ed1e4529724"}}]}