{"resourceType":"Bundle","id":"tests-55667be7-f623-43bd-889f-9ca7f28252d1-bundle","type":"transaction","entry":[{"fullUrl":"https://madie.cms.gov/Patient/55667be7-f623-43bd-889f-9ca7f28252d1","resource":{"resourceType":"Patient","id":"55667be7-f623-43bd-889f-9ca7f28252d1","meta":{"profile":["http://hl7.org/fhir/us/qicore/StructureDefinition/qicore-patient"]},"text":{"status":"generated","div":"<div xmlns=\"http://www.w3.org/1999/xhtml\"><div class=\"hapiHeaderText\">AssessPreTerm0RelDateTime42wksand1minB4DelivDateTime <b>DENFAIL </b></div><table class=\"hapiPropertyTable\"><tbody><tr><td>Identifier</td><td>422c2dba3b85e09cc57593562310cdd8d8e31fe2380a4241b6ce60d5e444f4c4</td></tr><tr><td>Date of birth</td><td><span>14 February 1985</span></td></tr></tbody></table></div>"},"extension":[{"url":"http://hl7.org/fhir/us/core/StructureDefinition/us-core-race","extension":[{"url":"ombCategory","valueCoding":{"system":"urn:oid:2.16.840.1.113883.6.238","code":"1002-5","display":"American Indian or Alaska Native","userSelected":true}},{"url":"text","valueString":"American Indian or Alaska Native"}]},{"url":"http://hl7.org/fhir/us/core/StructureDefinition/us-core-ethnicity","extension":[{"url":"ombCategory","valueCoding":{"system":"urn:oid:2.16.840.1.113883.6.238","code":"2135-2","display":"Hispanic or Latino","userSelected":true}},{"url":"text","valueString":"Hispanic or Latino"}]}],"identifier":[{"type":{"coding":[{"system":"http://terminology.hl7.org/CodeSystem/v2-0203","code":"MR"}]},"system":"https://bonnie-fhir.healthit.gov/","value":"63487c2f0968f80122540193"}],"active":true,"name":[{"use":"usual","family":"DENFail","given":["AssessPreTerm0RelDateTime42wksand1minB4DelivDateTime"]}],"gender":"female","birthDate":"1997-02-14"},"request":{"method":"PUT","url":"Patient/55667be7-f623-43bd-889f-9ca7f28252d1"}},{"fullUrl":"https://madie.cms.gov/Observation/5d014eb3b8484608723806b6","resource":{"resourceType":"Observation","id":"37a33b96-235f-4b91-b3b4-260e050fdfdf","meta":{"profile":["http://hl7.org/fhir/us/qicore/StructureDefinition/qicore-observation"]},"status":"final","category":[{"coding":[{"system":"http://terminology.hl7.org/CodeSystem/observation-category","code":"exam","display":"exam","userSelected":true}]}],"code":{"coding":[{"system":"http://loinc.org","code":"11637-6"}]},"subject":{"reference":"Patient/55667be7-f623-43bd-889f-9ca7f28252d1"},"effectiveDateTime":"2024-08-11T19:59:00.000+00:00","valueInteger":0},"request":{"method":"PUT","url":"Observation/37a33b96-235f-4b91-b3b4-260e050fdfdf"}},{"fullUrl":"https://madie.cms.gov/Observation/5d014eb3b8484608723806b8","resource":{"resourceType":"Observation","id":"748e284f-a6c7-4724-88d1-44ba7155684f","meta":{"profile":["http://hl7.org/fhir/us/qicore/StructureDefinition/qicore-observation"]},"status":"final","category":[{"coding":[{"system":"http://terminology.hl7.org/CodeSystem/observation-category","code":"exam","display":"exam","userSelected":true}]}],"code":{"coding":[{"system":"http://loinc.org","code":"11639-2"}]},"subject":{"reference":"Patient/55667be7-f623-43bd-889f-9ca7f28252d1"},"effectiveDateTime":"2024-09-19T09:00:00.000+00:00","valueInteger":0},"request":{"method":"PUT","url":"Observation/748e284f-a6c7-4724-88d1-44ba7155684f"}},{"fullUrl":"https://madie.cms.gov/Observation/5d014eb3b8484608723806bb","resource":{"resourceType":"Observation","id":"1e67581e-3ab7-4900-9f11-02a31b221238","meta":{"profile":["http://hl7.org/fhir/us/qicore/StructureDefinition/qicore-observation"]},"status":"final","category":[{"coding":[{"system":"http://terminology.hl7.org/CodeSystem/observation-category","code":"exam","display":"exam","userSelected":true}]}],"code":{"coding":[{"system":"http://loinc.org","code":"11884-4"}]},"subject":{"reference":"Patient/55667be7-f623-43bd-889f-9ca7f28252d1"},"effectiveDateTime":"2025-06-08T20:00:00.000+00:00","valueQuantity":{"value":37.0,"system":"http://unitsofmeasure.org","code":"weeks"}},"request":{"method":"PUT","url":"Observation/1e67581e-3ab7-4900-9f11-02a31b221238"}},{"fullUrl":"https://madie.cms.gov/Observation/5e69660e7ffec70000321645","resource":{"resourceType":"Observation","id":"a1ce28c6-d526-4b71-9ccb-50c6a91a99d1","meta":{"profile":["http://hl7.org/fhir/us/qicore/StructureDefinition/qicore-observation"]},"status":"final","category":[{"coding":[{"system":"http://terminology.hl7.org/CodeSystem/observation-category","code":"exam","display":"exam","userSelected":true}]}],"code":{"coding":[{"system":"http://loinc.org","code":"93857-1"}]},"subject":{"reference":"Patient/55667be7-f623-43bd-889f-9ca7f28252d1"},"effectiveDateTime":"2025-06-08T20:00:00.000+00:00","valueDateTime":"2025-06-08T20:00:00+00:00"},"request":{"method":"PUT","url":"Observation/a1ce28c6-d526-4b71-9ccb-50c6a91a99d1"}},{"fullUrl":"https://madie.cms.gov/Encounter/5d014eb3b8484608723806b4","resource":{"resourceType":"Encounter","id":"bcda4684-823c-4713-b2ba-a889e242609d","meta":{"profile":["http://hl7.org/fhir/us/qicore/StructureDefinition/qicore-encounter"]},"status":"finished","class":{"system":"http://terminology.hl7.org/CodeSystem/v3-ActCode","code":"IMP","display":"inpatient encounter"},"type":[{"coding":[{"system":"http://snomed.info/sct","code":"8715000"}]}],"subject":{"reference":"Patient/55667be7-f623-43bd-889f-9ca7f28252d1"},"period":{"start":"2025-06-08T08:00:00.000Z","end":"2025-06-10T08:15:00.000Z"},"length":{"value":2.0,"unit":"days"},"diagnosis":[{"condition":{"reference":"Condition/delivery-of-singleton-f83c"},"use":{"coding":[{"system":"http://snomed.info/sct","code":"169826009","display":"Delivery of Singleton"}]}},{"condition":{"reference":"Condition/delivery-of-singleton-4b10"}}]},"request":{"method":"PUT","url":"Encounter/bcda4684-823c-4713-b2ba-a889e242609d"}},{"fullUrl":"https://madie.cms.gov/Procedure/5d014eb3b8484608723806b5","resource":{"resourceType":"Procedure","id":"c6a4f1ab-9f1a-4cdb-beab-8ce39a84e742","meta":{"profile":["http://hl7.org/fhir/us/qicore/StructureDefinition/qicore-procedure"]},"extension":[{"url":"http://hl7.org/fhir/us/qicore/StructureDefinition/qicore-recorded","valueDateTime":"2013-04-05T09:35:00-04:00"}],"status":"completed","code":{"coding":[{"system":"http://www.cms.gov/Medicare/Coding/ICD10","code":"10D00Z0"},{"system":"http://snomed.info/sct","code":"4504004"},{"system":"http://www.icd10data.com/icd10pcs","code":"10D00Z0","userSelected":true}]},"subject":{"reference":"Patient/55667be7-f623-43bd-889f-9ca7f28252d1"},"performedPeriod":{"start":"2025-06-08T20:00:00.000Z","end":"2025-06-08T20:15:00.000Z"}},"request":{"method":"PUT","url":"Procedure/c6a4f1ab-9f1a-4cdb-beab-8ce39a84e742"}},{"fullUrl":"https://madie.cms.gov/Condition/delivery-of-singleton-4b10","resource":{"resourceType":"Condition","id":"55ddf517-5cd4-468f-b885-d4f0154cb198","meta":{"profile":["http://hl7.org/fhir/us/qicore/StructureDefinition/qicore-condition"]},"category":[{"coding":[{"system":"http://terminology.hl7.org/CodeSystem/condition-category","code":"encounter-diagnosis","display":"Encounter Diagnosis"}]}],"code":{"coding":[{"system":"http://snomed.info/sct","version":"2022-09","code":"169826009","display":"Single live birth (finding)","userSelected":true}]},"subject":{"reference":"Patient/55667be7-f623-43bd-889f-9ca7f28252d1"},"recordedDate":"2025-10-21T08:00:00.000+00:00"},"request":{"method":"PUT","url":"Condition/55ddf517-5cd4-468f-b885-d4f0154cb198"}},{"fullUrl":"https://madie.cms.gov/Coverage/1","resource":{"resourceType":"Coverage","id":"7a2f45c7-9d3b-4347-8ae8-e81d861e40db","meta":{"profile":["http://hl7.org/fhir/us/qicore/StructureDefinition/qicore-coverage"]},"status":"active","beneficiary":{"reference":"Patient/55667be7-f623-43bd-889f-9ca7f28252d1"},"payor":[{"reference":"Organization/a6c3e6fa-301e-4714-9d04-3dde9a7e7c49"}]},"request":{"method":"PUT","url":"Coverage/7a2f45c7-9d3b-4347-8ae8-e81d861e40db"}},{"fullUrl":"https://madie.cms.gov/Organization/123456","resource":{"resourceType":"Organization","id":"a6c3e6fa-301e-4714-9d04-3dde9a7e7c49","meta":{"profile":["http://hl7.org/fhir/us/qicore/StructureDefinition/qicore-organization"]},"identifier":[{"use":"temp","system":"urn:oid:2.16.840.1.113883.4.4","value":"21-3259825"}],"active":true,"type":[{"coding":[{"system":"http://terminology.hl7.org/CodeSystem/organization-type","code":"pay","display":"Payer"}]}],"name":"Blue Cross Blue Shield of Texas","telecom":[{"system":"phone","value":"(+1) 972-766-6900"}],"address":[{"use":"billing","type":"postal","line":["P.O. Box 660044"],"city":"Dallas","state":"TX","postalCode":"75266-0044","country":"USA"}]},"request":{"method":"PUT","url":"Organization/a6c3e6fa-301e-4714-9d04-3dde9a7e7c49"}},{"fullUrl":"https://madie.cms.gov/Practitioner/practitioner-123456","resource":{"resourceType":"Practitioner","id":"cc99b76e-5e94-4fad-ac42-f9f4ffb5f78a","identifier":[{"system":"http://hl7.org/fhir/sid/us-npi","value":"123456"}],"name":[{"family":"Evil","prefix":["Dr"]}]},"request":{"method":"PUT","url":"Practitioner/cc99b76e-5e94-4fad-ac42-f9f4ffb5f78a"}},{"fullUrl":"https://madie.cms.gov/MeasureReport/3ed2fe3d-e5cc-43dc-a7cc-74982f6b6ae6","resource":{"resourceType":"MeasureReport","id":"3ed2fe3d-e5cc-43dc-a7cc-74982f6b6ae6","meta":{"profile":["http://hl7.org/fhir/us/cqfmeasures/StructureDefinition/test-case-cqfm"]},"contained":[{"resourceType":"Parameters","id":"490ae0c6-73a5-4c4f-980d-7455a21f84a0-parameters","parameter":[{"name":"subject","valueString":"55667be7-f623-43bd-889f-9ca7f28252d1"}]}],"extension":[{"url":"http://hl7.org/fhir/us/cqfmeasures/StructureDefinition/cqfm-inputParameters","valueReference":{"reference":"#490ae0c6-73a5-4c4f-980d-7455a21f84a0-parameters"}},{"url":"http://hl7.org/fhir/us/cqfmeasures/StructureDefinition/cqfm-testCaseDescription","valueMarkdown":"Preterm Births=0, relevant date  42weeks  and 1 min before Asse delivery date/time\n"}],"modifierExtension":[{"url":"http://hl7.org/fhir/us/cqfmeasures/StructureDefinition/cqfm-isTestCase","valueBoolean":true}],"status":"complete","type":"individual","measure":"https://madie.cms.gov/Measure/CesareanBirthFHIR","period":{"start":"2025-01-01","end":"2025-12-31"},"group":[{"population":[{"code":{"coding":[{"system":"http://terminology.hl7.org/CodeSystem/measure-population","code":"initial-population","display":"Initial Population"}]},"count":1},{"code":{"coding":[{"system":"http://terminology.hl7.org/CodeSystem/measure-population","code":"denominator","display":"Denominator"}]},"count":0},{"code":{"coding":[{"system":"http://terminology.hl7.org/CodeSystem/measure-population","code":"denominator-exclusion","display":"Denominator Exclusion"}]},"count":0},{"code":{"coding":[{"system":"http://terminology.hl7.org/CodeSystem/measure-population","code":"numerator","display":"Numerator"}]},"count":0}]}]},"request":{"method":"PUT","url":"MeasureReport/3ed2fe3d-e5cc-43dc-a7cc-74982f6b6ae6"}}]}