{"resourceType":"Bundle","id":"tests-a8a9f09f-168b-4548-b18a-cb65f30fdb24-bundle","type":"transaction","entry":[{"fullUrl":"https://madie.cms.gov/Patient/a8a9f09f-168b-4548-b18a-cb65f30fdb24","resource":{"resourceType":"Patient","id":"a8a9f09f-168b-4548-b18a-cb65f30fdb24","meta":{"profile":["http://hl7.org/fhir/us/qicore/StructureDefinition/qicore-patient"]},"text":{"status":"generated","div":"<div xmlns=\"http://www.w3.org/1999/xhtml\"><div class=\"hapiHeaderText\">AssessTimeOfDelivResultEQDelivEncEnd <b>DENPASS </b></div><table class=\"hapiPropertyTable\"><tbody><tr><td>Identifier</td><td>71189d70ba3427612f2a418107466ed1652ec9a0e76c1b9c30a1691a1d91b34c</td></tr><tr><td>Date of birth</td><td><span>14 February 1985</span></td></tr></tbody></table></div>"},"extension":[{"url":"http://hl7.org/fhir/us/core/StructureDefinition/us-core-race","extension":[{"url":"ombCategory","valueCoding":{"system":"urn:oid:2.16.840.1.113883.6.238","code":"1002-5","display":"American Indian or Alaska Native","userSelected":true}},{"url":"text","valueString":"American Indian or Alaska Native"}]},{"url":"http://hl7.org/fhir/us/core/StructureDefinition/us-core-ethnicity","extension":[{"url":"ombCategory","valueCoding":{"system":"urn:oid:2.16.840.1.113883.6.238","code":"2135-2","display":"Hispanic or Latino","userSelected":true}},{"url":"text","valueString":"Hispanic or Latino"}]}],"identifier":[{"type":{"coding":[{"system":"http://terminology.hl7.org/CodeSystem/v2-0203","code":"MR"}]},"system":"https://bonnie-fhir.healthit.gov/","value":"63487c300968f801225401c5"}],"active":true,"name":[{"use":"usual","family":"DENPass","given":["AssessTimeOfDelivResultEQDelivEncEnd"]}],"gender":"female","birthDate":"1997-02-14"},"request":{"method":"PUT","url":"Patient/a8a9f09f-168b-4548-b18a-cb65f30fdb24"}},{"fullUrl":"https://madie.cms.gov/Observation/5d014eb1b848460872380537","resource":{"resourceType":"Observation","id":"b545ff8e-6002-4f45-98ec-4a62725dc735","meta":{"profile":["http://hl7.org/fhir/us/qicore/StructureDefinition/qicore-observation"]},"status":"final","category":[{"coding":[{"system":"http://terminology.hl7.org/CodeSystem/observation-category","code":"exam","display":"exam","userSelected":true}]}],"code":{"coding":[{"system":"http://loinc.org","code":"11996-6"}]},"subject":{"reference":"Patient/a8a9f09f-168b-4548-b18a-cb65f30fdb24"},"effectiveDateTime":"2025-03-09T08:00:00.000+00:00","valueInteger":1},"request":{"method":"PUT","url":"Observation/b545ff8e-6002-4f45-98ec-4a62725dc735"}},{"fullUrl":"https://madie.cms.gov/Observation/5d014eb1b848460872380539","resource":{"resourceType":"Observation","id":"647cac1f-3e97-480f-b5be-3166ad43688b","meta":{"profile":["http://hl7.org/fhir/us/qicore/StructureDefinition/qicore-observation"]},"status":"final","category":[{"coding":[{"system":"http://terminology.hl7.org/CodeSystem/observation-category","code":"exam","display":"exam","userSelected":true}]}],"code":{"coding":[{"system":"http://loinc.org","code":"11884-4"}]},"subject":{"reference":"Patient/a8a9f09f-168b-4548-b18a-cb65f30fdb24"},"effectiveDateTime":"2025-11-30T08:00:00.000+00:00","valueQuantity":{"value":40.0,"system":"http://unitsofmeasure.org","code":"weeks"}},"request":{"method":"PUT","url":"Observation/647cac1f-3e97-480f-b5be-3166ad43688b"}},{"fullUrl":"https://madie.cms.gov/Observation/5e693e147ffec7000031f2d2","resource":{"resourceType":"Observation","id":"5e1d880e-9243-4469-b4e0-feda0c93ca35","meta":{"profile":["http://hl7.org/fhir/us/qicore/StructureDefinition/qicore-observation"]},"status":"final","category":[{"coding":[{"system":"http://terminology.hl7.org/CodeSystem/observation-category","code":"exam","display":"exam","userSelected":true}]}],"code":{"coding":[{"system":"http://loinc.org","code":"93857-1"}]},"subject":{"reference":"Patient/a8a9f09f-168b-4548-b18a-cb65f30fdb24"},"effectiveDateTime":"2025-11-28T21:30:00.000+00:00","valueDateTime":"2025-11-30T08:15:00+00:00"},"request":{"method":"PUT","url":"Observation/5e1d880e-9243-4469-b4e0-feda0c93ca35"}},{"fullUrl":"https://madie.cms.gov/Encounter/5d014eb1b848460872380535","resource":{"resourceType":"Encounter","id":"d8490478-1bd2-45bf-896c-45558adc47ec","meta":{"profile":["http://hl7.org/fhir/us/qicore/StructureDefinition/qicore-encounter"]},"status":"finished","class":{"system":"http://terminology.hl7.org/CodeSystem/v3-ActCode","code":"IMP","display":"inpatient encounter"},"type":[{"coding":[{"system":"http://snomed.info/sct","code":"8715000"}]}],"subject":{"reference":"Patient/a8a9f09f-168b-4548-b18a-cb65f30fdb24"},"period":{"start":"2025-11-28T08:00:00.000Z","end":"2025-11-30T08:15:00.000Z"},"length":{"value":2.0,"unit":"days"},"diagnosis":[{"condition":{"reference":"Condition/delivery-of-singleton-f83c"},"use":{"coding":[{"system":"http://snomed.info/sct","code":"169826009","display":"Delivery of Singleton"}]}},{"condition":{"reference":"Condition/delivery-of-singleton-7767"}}]},"request":{"method":"PUT","url":"Encounter/d8490478-1bd2-45bf-896c-45558adc47ec"}},{"fullUrl":"https://madie.cms.gov/Procedure/5d014eb1b848460872380536","resource":{"resourceType":"Procedure","id":"b7145976-a994-410c-ab7b-9cff2a0b3c36","meta":{"profile":["http://hl7.org/fhir/us/qicore/StructureDefinition/qicore-procedure"]},"extension":[{"url":"http://hl7.org/fhir/us/qicore/StructureDefinition/qicore-recorded","valueDateTime":"2013-04-05T09:35:00-04:00"}],"status":"completed","code":{"coding":[{"system":"http://snomed.info/sct","code":"22633006"}]},"subject":{"reference":"Patient/a8a9f09f-168b-4548-b18a-cb65f30fdb24"},"performedPeriod":{"start":"2025-11-28T20:00:00.000Z","end":"2025-11-28T20:15:00.000Z"}},"request":{"method":"PUT","url":"Procedure/b7145976-a994-410c-ab7b-9cff2a0b3c36"}},{"fullUrl":"https://madie.cms.gov/Condition/delivery-of-singleton-7767","resource":{"resourceType":"Condition","id":"db7a1d70-1fe2-45af-91e7-4383962d1c70","meta":{"profile":["http://hl7.org/fhir/us/qicore/StructureDefinition/qicore-condition"]},"category":[{"coding":[{"system":"http://terminology.hl7.org/CodeSystem/condition-category","code":"encounter-diagnosis","display":"Encounter Diagnosis"}]}],"code":{"coding":[{"system":"http://snomed.info/sct","version":"2022-09","code":"169826009","display":"Single live birth (finding)","userSelected":true}]},"subject":{"reference":"Patient/a8a9f09f-168b-4548-b18a-cb65f30fdb24"},"recordedDate":"2025-10-20T08:00:00.000+00:00"},"request":{"method":"PUT","url":"Condition/db7a1d70-1fe2-45af-91e7-4383962d1c70"}},{"fullUrl":"https://madie.cms.gov/Coverage/1","resource":{"resourceType":"Coverage","id":"97d9d1e6-bc53-448f-98bf-dc4432238b51","meta":{"profile":["http://hl7.org/fhir/us/qicore/StructureDefinition/qicore-coverage"]},"status":"active","beneficiary":{"reference":"Patient/a8a9f09f-168b-4548-b18a-cb65f30fdb24"},"payor":[{"reference":"Organization/806b0255-13cb-4f2b-9412-571554dd2169"}]},"request":{"method":"PUT","url":"Coverage/97d9d1e6-bc53-448f-98bf-dc4432238b51"}},{"fullUrl":"https://madie.cms.gov/Organization/123456","resource":{"resourceType":"Organization","id":"806b0255-13cb-4f2b-9412-571554dd2169","meta":{"profile":["http://hl7.org/fhir/us/qicore/StructureDefinition/qicore-organization"]},"identifier":[{"use":"temp","system":"urn:oid:2.16.840.1.113883.4.4","value":"21-3259825"}],"active":true,"type":[{"coding":[{"system":"http://terminology.hl7.org/CodeSystem/organization-type","code":"pay","display":"Payer"}]}],"name":"Blue Cross Blue Shield of Texas","telecom":[{"system":"phone","value":"(+1) 972-766-6900"}],"address":[{"use":"billing","type":"postal","line":["P.O. Box 660044"],"city":"Dallas","state":"TX","postalCode":"75266-0044","country":"USA"}]},"request":{"method":"PUT","url":"Organization/806b0255-13cb-4f2b-9412-571554dd2169"}},{"fullUrl":"https://madie.cms.gov/Practitioner/practitioner-123456","resource":{"resourceType":"Practitioner","id":"f851dbbb-459a-42c8-b3d8-cf5f9743ec83","identifier":[{"system":"http://hl7.org/fhir/sid/us-npi","value":"123456"}],"name":[{"family":"Evil","prefix":["Dr"]}]},"request":{"method":"PUT","url":"Practitioner/f851dbbb-459a-42c8-b3d8-cf5f9743ec83"}},{"fullUrl":"https://madie.cms.gov/MeasureReport/49d36d4d-1e02-4fab-9806-b8faa9b4b29d","resource":{"resourceType":"MeasureReport","id":"49d36d4d-1e02-4fab-9806-b8faa9b4b29d","meta":{"profile":["http://hl7.org/fhir/us/cqfmeasures/StructureDefinition/test-case-cqfm"]},"contained":[{"resourceType":"Parameters","id":"0bfea0a4-6141-43c2-ba6b-d5f0b7beb9f9-parameters","parameter":[{"name":"subject","valueString":"a8a9f09f-168b-4548-b18a-cb65f30fdb24"}]}],"extension":[{"url":"http://hl7.org/fhir/us/cqfmeasures/StructureDefinition/cqfm-inputParameters","valueReference":{"reference":"#0bfea0a4-6141-43c2-ba6b-d5f0b7beb9f9-parameters"}},{"url":"http://hl7.org/fhir/us/cqfmeasures/StructureDefinition/cqfm-testCaseDescription","valueMarkdown":"Passes IP, Passes DENOM but fails NUM; Gravida 1(auth 42 weeks)  and EGA 40 weeks;  Proc is not Cesarean Birth. LastTimeOfDelivery result equals Delivery Encounter EndTime.   \n"}],"modifierExtension":[{"url":"http://hl7.org/fhir/us/cqfmeasures/StructureDefinition/cqfm-isTestCase","valueBoolean":true}],"status":"complete","type":"individual","measure":"https://madie.cms.gov/Measure/CesareanBirthFHIR","period":{"start":"2025-01-01","end":"2025-12-31"},"group":[{"population":[{"code":{"coding":[{"system":"http://terminology.hl7.org/CodeSystem/measure-population","code":"initial-population","display":"Initial Population"}]},"count":1},{"code":{"coding":[{"system":"http://terminology.hl7.org/CodeSystem/measure-population","code":"denominator","display":"Denominator"}]},"count":1},{"code":{"coding":[{"system":"http://terminology.hl7.org/CodeSystem/measure-population","code":"denominator-exclusion","display":"Denominator Exclusion"}]},"count":0},{"code":{"coding":[{"system":"http://terminology.hl7.org/CodeSystem/measure-population","code":"numerator","display":"Numerator"}]},"count":0}]}]},"request":{"method":"PUT","url":"MeasureReport/49d36d4d-1e02-4fab-9806-b8faa9b4b29d"}}]}