{"resourceType":"Bundle","id":"tests-36c39312-74f4-4e86-9ef8-0c7e191000eb-bundle","type":"transaction","entry":[{"fullUrl":"https://madie.cms.gov/Patient/36c39312-74f4-4e86-9ef8-0c7e191000eb","resource":{"resourceType":"Patient","id":"36c39312-74f4-4e86-9ef8-0c7e191000eb","meta":{"profile":["http://hl7.org/fhir/us/qicore/StructureDefinition/qicore-patient"]},"text":{"status":"generated","div":"<div xmlns=\"http://www.w3.org/1999/xhtml\"><div class=\"hapiHeaderText\">AssessG1RelDateTime42wks1MinB4TimeOfDeliv <b>DENFAIL </b></div><table class=\"hapiPropertyTable\"><tbody><tr><td>Identifier</td><td>0f2eb4e282584341b7686ff02bcd96001425e71741a668fc2710a83bd8038817</td></tr><tr><td>Date of birth</td><td><span>14 February 1985</span></td></tr></tbody></table></div>"},"extension":[{"url":"http://hl7.org/fhir/us/core/StructureDefinition/us-core-race","extension":[{"url":"ombCategory","valueCoding":{"system":"urn:oid:2.16.840.1.113883.6.238","code":"1002-5","display":"American Indian or Alaska Native","userSelected":true}},{"url":"text","valueString":"American Indian or Alaska Native"}]},{"url":"http://hl7.org/fhir/us/core/StructureDefinition/us-core-ethnicity","extension":[{"url":"ombCategory","valueCoding":{"system":"urn:oid:2.16.840.1.113883.6.238","code":"2135-2","display":"Hispanic or Latino","userSelected":true}},{"url":"text","valueString":"Hispanic or Latino"}]}],"identifier":[{"type":{"coding":[{"system":"http://terminology.hl7.org/CodeSystem/v2-0203","code":"MR"}]},"system":"https://bonnie-fhir.healthit.gov/","value":"63487c2e0968f8012254016d"}],"active":true,"name":[{"use":"usual","family":"DENFail","given":["AssessG1RelDateTime42wks1MinB4TimeOfDeliv"]}],"gender":"female","birthDate":"1997-02-14"},"request":{"method":"PUT","url":"Patient/36c39312-74f4-4e86-9ef8-0c7e191000eb"}},{"fullUrl":"https://madie.cms.gov/Observation/5d014eb2b848460872380580","resource":{"resourceType":"Observation","id":"8c4ad37f-6160-4e61-966e-30889e874ff1","meta":{"profile":["http://hl7.org/fhir/us/qicore/StructureDefinition/qicore-observation"]},"status":"final","category":[{"coding":[{"system":"http://terminology.hl7.org/CodeSystem/observation-category","code":"exam","display":"exam","userSelected":true}]}],"code":{"coding":[{"system":"http://loinc.org","code":"11996-6"}]},"subject":{"reference":"Patient/36c39312-74f4-4e86-9ef8-0c7e191000eb"},"effectiveDateTime":"2025-06-25T18:59:00.000+00:00","valueInteger":1},"request":{"method":"PUT","url":"Observation/8c4ad37f-6160-4e61-966e-30889e874ff1"}},{"fullUrl":"https://madie.cms.gov/Observation/5d014eb2b848460872380582","resource":{"resourceType":"Observation","id":"a1effeee-5d49-484e-a82f-e9e64f3134d6","meta":{"profile":["http://hl7.org/fhir/us/qicore/StructureDefinition/qicore-observation"]},"status":"final","category":[{"coding":[{"system":"http://terminology.hl7.org/CodeSystem/observation-category","code":"exam","display":"exam","userSelected":true}]}],"code":{"coding":[{"system":"http://loinc.org","code":"11884-4"}]},"subject":{"reference":"Patient/36c39312-74f4-4e86-9ef8-0c7e191000eb"},"effectiveDateTime":"2025-06-08T09:15:00.000+00:00","valueQuantity":{"value":38.0,"system":"http://unitsofmeasure.org","code":"weeks"}},"request":{"method":"PUT","url":"Observation/a1effeee-5d49-484e-a82f-e9e64f3134d6"}},{"fullUrl":"https://madie.cms.gov/Observation/5e694d537ffec70000320338","resource":{"resourceType":"Observation","id":"1ae0b430-abae-4944-96c7-68d1af910ed9","meta":{"profile":["http://hl7.org/fhir/us/qicore/StructureDefinition/qicore-observation"]},"status":"final","category":[{"coding":[{"system":"http://terminology.hl7.org/CodeSystem/observation-category","code":"exam","display":"exam","userSelected":true}]}],"code":{"coding":[{"system":"http://loinc.org","code":"93857-1"}]},"subject":{"reference":"Patient/36c39312-74f4-4e86-9ef8-0c7e191000eb"},"effectiveDateTime":"2025-06-08T19:00:00.000+00:00","valueDateTime":"2025-06-08T19:00:00+00:00"},"request":{"method":"PUT","url":"Observation/1ae0b430-abae-4944-96c7-68d1af910ed9"}},{"fullUrl":"https://madie.cms.gov/Encounter/5d014eb2b84846087238057e","resource":{"resourceType":"Encounter","id":"11cac7a7-45d6-42a2-84bc-2aaa471c154e","meta":{"profile":["http://hl7.org/fhir/us/qicore/StructureDefinition/qicore-encounter"]},"status":"finished","class":{"system":"http://terminology.hl7.org/CodeSystem/v3-ActCode","code":"IMP","display":"inpatient encounter"},"type":[{"coding":[{"system":"http://snomed.info/sct","code":"183452005"}]}],"subject":{"reference":"Patient/36c39312-74f4-4e86-9ef8-0c7e191000eb"},"period":{"start":"2025-06-08T08:00:00.000Z","end":"2025-06-10T08:15:00.000Z"},"length":{"value":2.0,"unit":"days"},"diagnosis":[{"condition":{"reference":"Condition/delivery-of-singleton-f83c"},"use":{"coding":[{"system":"http://snomed.info/sct","code":"169826009","display":"Delivery of Singleton"}]}}]},"request":{"method":"PUT","url":"Encounter/11cac7a7-45d6-42a2-84bc-2aaa471c154e"}},{"fullUrl":"https://madie.cms.gov/Procedure/5d014eb2b84846087238057f","resource":{"resourceType":"Procedure","id":"37761259-6531-4a6d-bffe-cd5519b2331c","meta":{"profile":["http://hl7.org/fhir/us/qicore/StructureDefinition/qicore-procedure"]},"extension":[{"url":"http://hl7.org/fhir/us/qicore/StructureDefinition/qicore-recorded","valueDateTime":"2013-04-05T09:35:00-04:00"}],"status":"completed","code":{"coding":[{"system":"http://www.cms.gov/Medicare/Coding/ICD10","code":"10D07Z3"},{"system":"http://www.icd10data.com/icd10pcs","code":"10D07Z3","userSelected":true}]},"subject":{"reference":"Patient/36c39312-74f4-4e86-9ef8-0c7e191000eb"},"performedPeriod":{"start":"2025-06-08T08:10:00.000Z","end":"2025-06-08T09:14:00.000Z"}},"request":{"method":"PUT","url":"Procedure/37761259-6531-4a6d-bffe-cd5519b2331c"}},{"fullUrl":"https://madie.cms.gov/Coverage/1","resource":{"resourceType":"Coverage","id":"ec9ec0c4-eff5-4042-bfbd-50964b2078de","meta":{"profile":["http://hl7.org/fhir/us/qicore/StructureDefinition/qicore-coverage"]},"status":"active","beneficiary":{"reference":"Patient/36c39312-74f4-4e86-9ef8-0c7e191000eb"},"payor":[{"reference":"Organization/77e4d06f-5e3c-436a-a598-80cefcca5028"}]},"request":{"method":"PUT","url":"Coverage/ec9ec0c4-eff5-4042-bfbd-50964b2078de"}},{"fullUrl":"https://madie.cms.gov/Organization/123456","resource":{"resourceType":"Organization","id":"77e4d06f-5e3c-436a-a598-80cefcca5028","meta":{"profile":["http://hl7.org/fhir/us/qicore/StructureDefinition/qicore-organization"]},"identifier":[{"use":"temp","system":"urn:oid:2.16.840.1.113883.4.4","value":"21-3259825"}],"active":true,"type":[{"coding":[{"system":"http://terminology.hl7.org/CodeSystem/organization-type","code":"pay","display":"Payer"}]}],"name":"Blue Cross Blue Shield of Texas","telecom":[{"system":"phone","value":"(+1) 972-766-6900"}],"address":[{"use":"billing","type":"postal","line":["P.O. Box 660044"],"city":"Dallas","state":"TX","postalCode":"75266-0044","country":"USA"}]},"request":{"method":"PUT","url":"Organization/77e4d06f-5e3c-436a-a598-80cefcca5028"}},{"fullUrl":"https://madie.cms.gov/Condition/delivery-of-singleton-f83c","resource":{"resourceType":"Condition","id":"da96a965-4d3b-4c8a-b7e9-1bf16947ef92","meta":{"profile":["http://hl7.org/fhir/us/qicore/StructureDefinition/qicore-condition"]},"category":[{"coding":[{"system":"http://terminology.hl7.org/CodeSystem/condition-category","code":"encounter-diagnosis","display":"Encounter Diagnosis"}]}],"code":{"coding":[{"system":"http://snomed.info/sct","code":"169826009","display":"Single live birth (finding)"}]},"subject":{"reference":"Patient/36c39312-74f4-4e86-9ef8-0c7e191000eb"}},"request":{"method":"PUT","url":"Condition/da96a965-4d3b-4c8a-b7e9-1bf16947ef92"}},{"fullUrl":"https://madie.cms.gov/Practitioner/practitioner-123456","resource":{"resourceType":"Practitioner","id":"ee8179d1-335d-4575-9200-97eed05af61a","identifier":[{"system":"http://hl7.org/fhir/sid/us-npi","value":"123456"}],"name":[{"family":"Evil","prefix":["Dr"]}]},"request":{"method":"PUT","url":"Practitioner/ee8179d1-335d-4575-9200-97eed05af61a"}},{"fullUrl":"https://madie.cms.gov/MeasureReport/9c064805-d41f-4209-9ed4-2d67b7e79a6c","resource":{"resourceType":"MeasureReport","id":"9c064805-d41f-4209-9ed4-2d67b7e79a6c","meta":{"profile":["http://hl7.org/fhir/us/cqfmeasures/StructureDefinition/test-case-cqfm"]},"contained":[{"resourceType":"Parameters","id":"65d95cc1-a14d-49af-bd8c-0106b2129955-parameters","parameter":[{"name":"subject","valueString":"36c39312-74f4-4e86-9ef8-0c7e191000eb"}]}],"extension":[{"url":"http://hl7.org/fhir/us/cqfmeasures/StructureDefinition/cqfm-inputParameters","valueReference":{"reference":"#65d95cc1-a14d-49af-bd8c-0106b2129955-parameters"}},{"url":"http://hl7.org/fhir/us/cqfmeasures/StructureDefinition/cqfm-testCaseDescription","valueMarkdown":"Tests that Assess Gravida Rel  Date/Time is no more than 42 weeks before the Time of Delivery  Date/Time.  This case is 42 weeks and 1 min.\n"}],"modifierExtension":[{"url":"http://hl7.org/fhir/us/cqfmeasures/StructureDefinition/cqfm-isTestCase","valueBoolean":true}],"status":"complete","type":"individual","measure":"https://madie.cms.gov/Measure/CesareanBirthFHIR","period":{"start":"2025-01-01","end":"2025-12-31"},"group":[{"population":[{"code":{"coding":[{"system":"http://terminology.hl7.org/CodeSystem/measure-population","code":"initial-population","display":"Initial Population"}]},"count":1},{"code":{"coding":[{"system":"http://terminology.hl7.org/CodeSystem/measure-population","code":"denominator","display":"Denominator"}]},"count":0},{"code":{"coding":[{"system":"http://terminology.hl7.org/CodeSystem/measure-population","code":"denominator-exclusion","display":"Denominator Exclusion"}]},"count":0},{"code":{"coding":[{"system":"http://terminology.hl7.org/CodeSystem/measure-population","code":"numerator","display":"Numerator"}]},"count":0}]}]},"request":{"method":"PUT","url":"MeasureReport/9c064805-d41f-4209-9ed4-2d67b7e79a6c"}}]}