{"resourceType":"Bundle","id":"tests-d0a65261-add9-4696-80c1-4c210eab58bc-bundle","type":"transaction","entry":[{"fullUrl":"https://madie.cms.gov/Patient/d0a65261-add9-4696-80c1-4c210eab58bc","resource":{"resourceType":"Patient","id":"d0a65261-add9-4696-80c1-4c210eab58bc","meta":{"profile":["http://hl7.org/fhir/us/qicore/StructureDefinition/qicore-patient"]},"text":{"status":"generated","div":"<div xmlns=\"http://www.w3.org/1999/xhtml\"><div class=\"hapiHeaderText\">AssessTerm0RelDateEQ42wk1MinB4TimeOfDeliv <b>DENFAIL </b></div><table class=\"hapiPropertyTable\"><tbody><tr><td>Identifier</td><td>471dbe485040e70d089fc9c9b33b02d66b94c84eb0f888d16ec71b1a1a2ae0b0</td></tr><tr><td>Date of birth</td><td><span>14 February 1985</span></td></tr></tbody></table></div>"},"extension":[{"url":"http://hl7.org/fhir/us/core/StructureDefinition/us-core-race","extension":[{"url":"ombCategory","valueCoding":{"system":"urn:oid:2.16.840.1.113883.6.238","code":"1002-5","display":"American Indian or Alaska Native","userSelected":true}},{"url":"text","valueString":"American Indian or Alaska Native"}]},{"url":"http://hl7.org/fhir/us/core/StructureDefinition/us-core-ethnicity","extension":[{"url":"ombCategory","valueCoding":{"system":"urn:oid:2.16.840.1.113883.6.238","code":"2135-2","display":"Hispanic or Latino","userSelected":true}},{"url":"text","valueString":"Hispanic or Latino"}]}],"identifier":[{"type":{"coding":[{"system":"http://terminology.hl7.org/CodeSystem/v2-0203","code":"MR"}]},"system":"https://bonnie-fhir.healthit.gov/","value":"63487c2d0968f8012254015e"}],"active":true,"name":[{"use":"usual","family":"DENFail","given":["AssessTerm0RelDateEQ42wk1MinB4TimeOfDeliv"]}],"gender":"female","birthDate":"1997-02-14"},"request":{"method":"PUT","url":"Patient/d0a65261-add9-4696-80c1-4c210eab58bc"}},{"fullUrl":"https://madie.cms.gov/Observation/5d014eb1b8484608723804bd","resource":{"resourceType":"Observation","id":"7a147609-323e-44fe-83d6-2ad61f939503","meta":{"profile":["http://hl7.org/fhir/us/qicore/StructureDefinition/qicore-observation"]},"status":"final","category":[{"coding":[{"system":"http://terminology.hl7.org/CodeSystem/observation-category","code":"exam","display":"exam","userSelected":true}]}],"code":{"coding":[{"system":"http://loinc.org","code":"11639-2"}]},"subject":{"reference":"Patient/d0a65261-add9-4696-80c1-4c210eab58bc"},"effectiveDateTime":"2024-08-14T18:59:00.000+00:00","valueInteger":0},"request":{"method":"PUT","url":"Observation/7a147609-323e-44fe-83d6-2ad61f939503"}},{"fullUrl":"https://madie.cms.gov/Observation/5d014eb1b8484608723804bf","resource":{"resourceType":"Observation","id":"87635c4e-0730-4b60-9d32-e3fcb049687c","meta":{"profile":["http://hl7.org/fhir/us/qicore/StructureDefinition/qicore-observation"]},"status":"final","category":[{"coding":[{"system":"http://terminology.hl7.org/CodeSystem/observation-category","code":"exam","display":"exam","userSelected":true}]}],"code":{"coding":[{"system":"http://loinc.org","code":"11637-6"}]},"subject":{"reference":"Patient/d0a65261-add9-4696-80c1-4c210eab58bc"},"effectiveDateTime":"2024-08-19T19:01:00.000+00:00","valueInteger":0},"request":{"method":"PUT","url":"Observation/87635c4e-0730-4b60-9d32-e3fcb049687c"}},{"fullUrl":"https://madie.cms.gov/Observation/5d014eb1b8484608723804c2","resource":{"resourceType":"Observation","id":"bef98d07-a370-45e3-aa6e-d8456cc6bd71","meta":{"profile":["http://hl7.org/fhir/us/qicore/StructureDefinition/qicore-observation"]},"status":"final","category":[{"coding":[{"system":"http://terminology.hl7.org/CodeSystem/observation-category","code":"exam","display":"exam","userSelected":true}]}],"code":{"coding":[{"system":"http://loinc.org","code":"11884-4"}]},"subject":{"reference":"Patient/d0a65261-add9-4696-80c1-4c210eab58bc"},"effectiveDateTime":"2025-06-08T19:00:00.000+00:00","valueQuantity":{"value":37.0,"system":"http://unitsofmeasure.org","code":"weeks"}},"request":{"method":"PUT","url":"Observation/bef98d07-a370-45e3-aa6e-d8456cc6bd71"}},{"fullUrl":"https://madie.cms.gov/Observation/5e696ed27ffec70000322567","resource":{"resourceType":"Observation","id":"bb041a4f-8f4d-4415-b003-9decbf2a8630","meta":{"profile":["http://hl7.org/fhir/us/qicore/StructureDefinition/qicore-observation"]},"status":"final","category":[{"coding":[{"system":"http://terminology.hl7.org/CodeSystem/observation-category","code":"exam","display":"exam","userSelected":true}]}],"code":{"coding":[{"system":"http://loinc.org","code":"93857-1"}]},"subject":{"reference":"Patient/d0a65261-add9-4696-80c1-4c210eab58bc"},"effectiveDateTime":"2025-06-08T19:00:00.000+00:00","valueDateTime":"2025-06-08T19:00:00+00:00"},"request":{"method":"PUT","url":"Observation/bb041a4f-8f4d-4415-b003-9decbf2a8630"}},{"fullUrl":"https://madie.cms.gov/Encounter/5d014eb1b8484608723804bb","resource":{"resourceType":"Encounter","id":"a83def4e-ba0a-4897-ae17-a30fded72822","meta":{"profile":["http://hl7.org/fhir/us/qicore/StructureDefinition/qicore-encounter"]},"status":"finished","class":{"system":"http://terminology.hl7.org/CodeSystem/v3-ActCode","code":"IMP","display":"inpatient encounter"},"type":[{"coding":[{"system":"http://snomed.info/sct","code":"8715000"}]}],"subject":{"reference":"Patient/d0a65261-add9-4696-80c1-4c210eab58bc"},"period":{"start":"2025-06-08T08:00:00.000Z","end":"2025-06-10T08:15:00.000Z"},"length":{"value":2.0,"unit":"days"},"diagnosis":[{"condition":{"reference":"Condition/delivery-of-singleton-f83c"},"use":{"coding":[{"system":"http://snomed.info/sct","code":"169826009","display":"Delivery of Singleton"}]}},{"condition":{"reference":"Condition/delivery-of-singleton-4b18"}}]},"request":{"method":"PUT","url":"Encounter/a83def4e-ba0a-4897-ae17-a30fded72822"}},{"fullUrl":"https://madie.cms.gov/Procedure/5d014eb1b8484608723804bc","resource":{"resourceType":"Procedure","id":"7ae0f6a1-234a-4b04-bf74-cc1fb7264321","meta":{"profile":["http://hl7.org/fhir/us/qicore/StructureDefinition/qicore-procedure"]},"extension":[{"url":"http://hl7.org/fhir/us/qicore/StructureDefinition/qicore-recorded","valueDateTime":"2013-04-05T09:35:00-04:00"}],"status":"completed","code":{"coding":[{"system":"http://www.cms.gov/Medicare/Coding/ICD10","code":"10D00Z0"},{"system":"http://snomed.info/sct","code":"4504004"},{"system":"http://www.icd10data.com/icd10pcs","code":"10D00Z0","userSelected":true}]},"subject":{"reference":"Patient/d0a65261-add9-4696-80c1-4c210eab58bc"},"performedPeriod":{"start":"2025-06-08T20:00:00.000Z","end":"2025-06-08T20:15:00.000Z"}},"request":{"method":"PUT","url":"Procedure/7ae0f6a1-234a-4b04-bf74-cc1fb7264321"}},{"fullUrl":"https://madie.cms.gov/Condition/delivery-of-singleton-4b18","resource":{"resourceType":"Condition","id":"00dbffb9-f1fc-4464-81c1-4d9db4593b39","meta":{"profile":["http://hl7.org/fhir/us/qicore/StructureDefinition/qicore-condition"]},"category":[{"coding":[{"system":"http://terminology.hl7.org/CodeSystem/condition-category","code":"encounter-diagnosis","display":"Encounter Diagnosis"}]}],"code":{"coding":[{"system":"http://snomed.info/sct","version":"2022-09","code":"169826009","display":"Single live birth (finding)","userSelected":true}]},"subject":{"reference":"Patient/d0a65261-add9-4696-80c1-4c210eab58bc"},"recordedDate":"2025-10-21T08:00:00.000+00:00"},"request":{"method":"PUT","url":"Condition/00dbffb9-f1fc-4464-81c1-4d9db4593b39"}},{"fullUrl":"https://madie.cms.gov/Coverage/1","resource":{"resourceType":"Coverage","id":"086f4afd-921e-4ed2-9b74-c3754bfc111c","meta":{"profile":["http://hl7.org/fhir/us/qicore/StructureDefinition/qicore-coverage"]},"status":"active","beneficiary":{"reference":"Patient/d0a65261-add9-4696-80c1-4c210eab58bc"},"payor":[{"reference":"Organization/ec8cac12-7dd8-4c6e-8c44-d6c645085c80"}]},"request":{"method":"PUT","url":"Coverage/086f4afd-921e-4ed2-9b74-c3754bfc111c"}},{"fullUrl":"https://madie.cms.gov/Organization/123456","resource":{"resourceType":"Organization","id":"ec8cac12-7dd8-4c6e-8c44-d6c645085c80","meta":{"profile":["http://hl7.org/fhir/us/qicore/StructureDefinition/qicore-organization"]},"identifier":[{"use":"temp","system":"urn:oid:2.16.840.1.113883.4.4","value":"21-3259825"}],"active":true,"type":[{"coding":[{"system":"http://terminology.hl7.org/CodeSystem/organization-type","code":"pay","display":"Payer"}]}],"name":"Blue Cross Blue Shield of Texas","telecom":[{"system":"phone","value":"(+1) 972-766-6900"}],"address":[{"use":"billing","type":"postal","line":["P.O. Box 660044"],"city":"Dallas","state":"TX","postalCode":"75266-0044","country":"USA"}]},"request":{"method":"PUT","url":"Organization/ec8cac12-7dd8-4c6e-8c44-d6c645085c80"}},{"fullUrl":"https://madie.cms.gov/Practitioner/practitioner-123456","resource":{"resourceType":"Practitioner","id":"8180ad68-c26f-4631-9b7b-2d29b4742c96","identifier":[{"system":"http://hl7.org/fhir/sid/us-npi","value":"123456"}],"name":[{"family":"Evil","prefix":["Dr"]}]},"request":{"method":"PUT","url":"Practitioner/8180ad68-c26f-4631-9b7b-2d29b4742c96"}},{"fullUrl":"https://madie.cms.gov/MeasureReport/4511d2b4-17f2-4d60-bc6c-8f663822734b","resource":{"resourceType":"MeasureReport","id":"4511d2b4-17f2-4d60-bc6c-8f663822734b","meta":{"profile":["http://hl7.org/fhir/us/cqfmeasures/StructureDefinition/test-case-cqfm"]},"contained":[{"resourceType":"Parameters","id":"c2bcb797-7096-4ca0-a449-08e5e7b3fc02-parameters","parameter":[{"name":"subject","valueString":"d0a65261-add9-4696-80c1-4c210eab58bc"}]}],"extension":[{"url":"http://hl7.org/fhir/us/cqfmeasures/StructureDefinition/cqfm-inputParameters","valueReference":{"reference":"#c2bcb797-7096-4ca0-a449-08e5e7b3fc02-parameters"}},{"url":"http://hl7.org/fhir/us/cqfmeasures/StructureDefinition/cqfm-testCaseDescription","valueMarkdown":"\"Preterm Births=0, authored < 42weeks prior to Asse delivery \nTerm Newborn=0, authored, 42weeks, 1 min prior to Asse delivery\"\n"}],"modifierExtension":[{"url":"http://hl7.org/fhir/us/cqfmeasures/StructureDefinition/cqfm-isTestCase","valueBoolean":true}],"status":"complete","type":"individual","measure":"https://madie.cms.gov/Measure/CesareanBirthFHIR","period":{"start":"2025-01-01","end":"2025-12-31"},"group":[{"population":[{"code":{"coding":[{"system":"http://terminology.hl7.org/CodeSystem/measure-population","code":"initial-population","display":"Initial Population"}]},"count":1},{"code":{"coding":[{"system":"http://terminology.hl7.org/CodeSystem/measure-population","code":"denominator","display":"Denominator"}]},"count":0},{"code":{"coding":[{"system":"http://terminology.hl7.org/CodeSystem/measure-population","code":"denominator-exclusion","display":"Denominator Exclusion"}]},"count":0},{"code":{"coding":[{"system":"http://terminology.hl7.org/CodeSystem/measure-population","code":"numerator","display":"Numerator"}]},"count":0}]}]},"request":{"method":"PUT","url":"MeasureReport/4511d2b4-17f2-4d60-bc6c-8f663822734b"}}]}