{"resourceType":"Bundle","id":"tests-6131e62d-2869-4814-9060-4442dbcdc7be-bundle","type":"transaction","entry":[{"fullUrl":"https://madie.cms.gov/Patient/6131e62d-2869-4814-9060-4442dbcdc7be","resource":{"resourceType":"Patient","id":"6131e62d-2869-4814-9060-4442dbcdc7be","meta":{"profile":["http://hl7.org/fhir/us/qicore/StructureDefinition/qicore-patient"]},"text":{"status":"generated","div":"<div xmlns=\"http://www.w3.org/1999/xhtml\"><div class=\"hapiHeaderText\">AssessPerfAbnPresRelvtPeriodAFTimeOfDeliv_DuringEnc <b>DENEXFAIL </b></div><table class=\"hapiPropertyTable\"><tbody><tr><td>Identifier</td><td>db09244543fe550232b604cb7d87decbeb851047882e641e3fe736fdce398a0a</td></tr><tr><td>Date of birth</td><td><span>14 February 1985</span></td></tr></tbody></table></div>"},"extension":[{"url":"http://hl7.org/fhir/us/core/StructureDefinition/us-core-race","extension":[{"url":"ombCategory","valueCoding":{"system":"urn:oid:2.16.840.1.113883.6.238","code":"1002-5","display":"American Indian or Alaska Native","userSelected":true}},{"url":"text","valueString":"American Indian or Alaska Native"}]},{"url":"http://hl7.org/fhir/us/core/StructureDefinition/us-core-ethnicity","extension":[{"url":"ombCategory","valueCoding":{"system":"urn:oid:2.16.840.1.113883.6.238","code":"2135-2","display":"Hispanic or Latino","userSelected":true}},{"url":"text","valueString":"Hispanic or Latino"}]}],"identifier":[{"type":{"coding":[{"system":"http://terminology.hl7.org/CodeSystem/v2-0203","code":"MR"}]},"system":"https://bonnie-fhir.healthit.gov/","value":"63487c300968f801225401d0"}],"active":true,"name":[{"use":"usual","family":"DENEXFail","given":["AssessPerfAbnPresRelvtPeriodAFTimeOfDeliv_DuringEnc"]}],"gender":"female","birthDate":"1997-02-14"},"request":{"method":"PUT","url":"Patient/6131e62d-2869-4814-9060-4442dbcdc7be"}},{"fullUrl":"https://madie.cms.gov/Observation/5d014eb2b8484608723805f9","resource":{"resourceType":"Observation","id":"cdb64246-2d64-4c34-9ef5-36b3ca147c3c","meta":{"profile":["http://hl7.org/fhir/us/qicore/StructureDefinition/qicore-observation"]},"status":"final","category":[{"coding":[{"system":"http://terminology.hl7.org/CodeSystem/observation-category","code":"exam","display":"exam","userSelected":true}]}],"code":{"coding":[{"system":"http://loinc.org","code":"11996-6"}]},"subject":{"reference":"Patient/6131e62d-2869-4814-9060-4442dbcdc7be"},"effectiveDateTime":"2025-06-08T08:00:00.000+00:00","valueInteger":1},"request":{"method":"PUT","url":"Observation/cdb64246-2d64-4c34-9ef5-36b3ca147c3c"}},{"fullUrl":"https://madie.cms.gov/Observation/5d014eb2b8484608723805fb","resource":{"resourceType":"Observation","id":"16f47c31-90ad-4c25-9f22-e5fc7d538a21","meta":{"profile":["http://hl7.org/fhir/us/qicore/StructureDefinition/qicore-observation"]},"status":"final","category":[{"coding":[{"system":"http://terminology.hl7.org/CodeSystem/observation-category","code":"exam","display":"exam","userSelected":true}]}],"code":{"coding":[{"system":"http://loinc.org","code":"11884-4"}]},"subject":{"reference":"Patient/6131e62d-2869-4814-9060-4442dbcdc7be"},"effectiveDateTime":"2025-06-08T08:00:00.000+00:00","valueQuantity":{"value":43.0,"system":"http://unitsofmeasure.org","code":"weeks"}},"request":{"method":"PUT","url":"Observation/16f47c31-90ad-4c25-9f22-e5fc7d538a21"}},{"fullUrl":"https://madie.cms.gov/Observation/5e61164ceadaae0000c2b22f","resource":{"resourceType":"Observation","id":"35ede107-ba41-49f8-9295-4758768bf320","meta":{"profile":["http://hl7.org/fhir/us/qicore/StructureDefinition/qicore-observation"]},"status":"final","category":[{"coding":[{"system":"http://terminology.hl7.org/CodeSystem/observation-category","code":"exam","display":"exam","userSelected":true}]}],"code":{"coding":[{"system":"http://loinc.org","code":"93857-1"}]},"subject":{"reference":"Patient/6131e62d-2869-4814-9060-4442dbcdc7be"},"effectiveDateTime":"2025-06-08T20:30:00.000+00:00","valueDateTime":"2025-06-08T08:30:00+00:00"},"request":{"method":"PUT","url":"Observation/35ede107-ba41-49f8-9295-4758768bf320"}},{"fullUrl":"https://madie.cms.gov/Observation/606dbe2184679a0000f3ba33","resource":{"resourceType":"Observation","id":"ad5ade8a-4f8a-4847-a0c2-e9ecdd34fb1f","meta":{"profile":["http://hl7.org/fhir/us/qicore/StructureDefinition/qicore-observation"]},"status":"final","category":[{"coding":[{"system":"http://terminology.hl7.org/CodeSystem/observation-category","code":"exam","display":"exam","userSelected":true}]}],"code":{"coding":[{"system":"http://snomed.info/sct","code":"18559007"}]},"subject":{"reference":"Patient/6131e62d-2869-4814-9060-4442dbcdc7be"},"effectivePeriod":{"start":"2025-06-08T08:35:00.000Z","end":"2025-06-08T08:35:00.000Z"}},"request":{"method":"PUT","url":"Observation/ad5ade8a-4f8a-4847-a0c2-e9ecdd34fb1f"}},{"fullUrl":"https://madie.cms.gov/Encounter/5d014eb2b8484608723805f6","resource":{"resourceType":"Encounter","id":"e9360ef9-9d6a-45ed-b4aa-1560fe7220ae","meta":{"profile":["http://hl7.org/fhir/us/qicore/StructureDefinition/qicore-encounter"]},"status":"finished","class":{"system":"http://terminology.hl7.org/CodeSystem/v3-ActCode","code":"IMP","display":"inpatient encounter"},"type":[{"coding":[{"system":"http://snomed.info/sct","code":"8715000"}]}],"subject":{"reference":"Patient/6131e62d-2869-4814-9060-4442dbcdc7be"},"period":{"start":"2025-06-08T08:00:00.000Z","end":"2025-06-10T08:15:00.000Z"},"diagnosis":[{"condition":{"reference":"Condition/delivery-of-singleton-09a4"}}]},"request":{"method":"PUT","url":"Encounter/e9360ef9-9d6a-45ed-b4aa-1560fe7220ae"}},{"fullUrl":"https://madie.cms.gov/Procedure/5d014eb2b8484608723805f7","resource":{"resourceType":"Procedure","id":"2a347eca-b112-46d5-94fd-5c8aee86ce13","meta":{"profile":["http://hl7.org/fhir/us/qicore/StructureDefinition/qicore-procedure"]},"extension":[{"url":"http://hl7.org/fhir/us/qicore/StructureDefinition/qicore-recorded","valueDateTime":"2013-04-05T09:35:00-04:00"}],"status":"completed","code":{"coding":[{"system":"http://snomed.info/sct","code":"4504004"}]},"subject":{"reference":"Patient/6131e62d-2869-4814-9060-4442dbcdc7be"},"performedPeriod":{"start":"2025-06-08T20:00:00.000Z","end":"2025-06-18T20:00:00.000Z"}},"request":{"method":"PUT","url":"Procedure/2a347eca-b112-46d5-94fd-5c8aee86ce13"}},{"fullUrl":"https://madie.cms.gov/Condition/delivery-of-singleton-09a4","resource":{"resourceType":"Condition","id":"698cf50e-9149-4700-abd8-4b0afc4e1a71","meta":{"profile":["http://hl7.org/fhir/us/qicore/StructureDefinition/qicore-condition"]},"category":[{"coding":[{"system":"http://terminology.hl7.org/CodeSystem/condition-category","code":"encounter-diagnosis","display":"Encounter Diagnosis"}]}],"code":{"coding":[{"system":"http://snomed.info/sct","version":"2022-09","code":"169826009","display":"Single live birth (finding)","userSelected":true}]},"subject":{"reference":"Patient/6131e62d-2869-4814-9060-4442dbcdc7be"},"recordedDate":"2025-10-17T08:00:00.000+00:00"},"request":{"method":"PUT","url":"Condition/698cf50e-9149-4700-abd8-4b0afc4e1a71"}},{"fullUrl":"https://madie.cms.gov/Coverage/1","resource":{"resourceType":"Coverage","id":"fbde078c-23e4-4b6c-9b11-8da8911d0a35","meta":{"profile":["http://hl7.org/fhir/us/qicore/StructureDefinition/qicore-coverage"]},"status":"active","beneficiary":{"reference":"Patient/6131e62d-2869-4814-9060-4442dbcdc7be"},"payor":[{"reference":"Organization/80e3e0d1-b2aa-43a6-b1d2-00bfa3164a0f"}]},"request":{"method":"PUT","url":"Coverage/fbde078c-23e4-4b6c-9b11-8da8911d0a35"}},{"fullUrl":"https://madie.cms.gov/Organization/123456","resource":{"resourceType":"Organization","id":"80e3e0d1-b2aa-43a6-b1d2-00bfa3164a0f","meta":{"profile":["http://hl7.org/fhir/us/qicore/StructureDefinition/qicore-organization"]},"identifier":[{"use":"temp","system":"urn:oid:2.16.840.1.113883.4.4","value":"21-3259825"}],"active":true,"type":[{"coding":[{"system":"http://terminology.hl7.org/CodeSystem/organization-type","code":"pay","display":"Payer"}]}],"name":"Blue Cross Blue Shield of Texas","telecom":[{"system":"phone","value":"(+1) 972-766-6900"}],"address":[{"use":"billing","type":"postal","line":["P.O. Box 660044"],"city":"Dallas","state":"TX","postalCode":"75266-0044","country":"USA"}]},"request":{"method":"PUT","url":"Organization/80e3e0d1-b2aa-43a6-b1d2-00bfa3164a0f"}},{"fullUrl":"https://madie.cms.gov/Practitioner/practitioner-123456","resource":{"resourceType":"Practitioner","id":"0483b008-5dd0-4522-8320-4d0c373f676d","identifier":[{"system":"http://hl7.org/fhir/sid/us-npi","value":"123456"}],"name":[{"family":"Evil","prefix":["Dr"]}]},"request":{"method":"PUT","url":"Practitioner/0483b008-5dd0-4522-8320-4d0c373f676d"}},{"fullUrl":"https://madie.cms.gov/MeasureReport/dd0214a4-55bb-4710-9eb3-ede902e811db","resource":{"resourceType":"MeasureReport","id":"dd0214a4-55bb-4710-9eb3-ede902e811db","meta":{"profile":["http://hl7.org/fhir/us/cqfmeasures/StructureDefinition/test-case-cqfm"]},"contained":[{"resourceType":"Parameters","id":"8d687c13-7181-4493-a5c7-7ff80871dc0f-parameters","parameter":[{"name":"subject","valueString":"6131e62d-2869-4814-9060-4442dbcdc7be"}]}],"extension":[{"url":"http://hl7.org/fhir/us/cqfmeasures/StructureDefinition/cqfm-inputParameters","valueReference":{"reference":"#8d687c13-7181-4493-a5c7-7ff80871dc0f-parameters"}},{"url":"http://hl7.org/fhir/us/cqfmeasures/StructureDefinition/cqfm-testCaseDescription","valueMarkdown":"EGA 43 weeks; Failed DenExcl because Assessment performed Abnormal presentation relevant Period after time of delivery and during Enc \n"}],"modifierExtension":[{"url":"http://hl7.org/fhir/us/cqfmeasures/StructureDefinition/cqfm-isTestCase","valueBoolean":true}],"status":"complete","type":"individual","measure":"https://madie.cms.gov/Measure/CesareanBirthFHIR","period":{"start":"2025-01-01","end":"2025-12-31"},"group":[{"population":[{"code":{"coding":[{"system":"http://terminology.hl7.org/CodeSystem/measure-population","code":"initial-population","display":"Initial Population"}]},"count":1},{"code":{"coding":[{"system":"http://terminology.hl7.org/CodeSystem/measure-population","code":"denominator","display":"Denominator"}]},"count":1},{"code":{"coding":[{"system":"http://terminology.hl7.org/CodeSystem/measure-population","code":"denominator-exclusion","display":"Denominator Exclusion"}]},"count":0},{"code":{"coding":[{"system":"http://terminology.hl7.org/CodeSystem/measure-population","code":"numerator","display":"Numerator"}]},"count":0}]}]},"request":{"method":"PUT","url":"MeasureReport/dd0214a4-55bb-4710-9eb3-ede902e811db"}}]}