{"resourceType":"Bundle","id":"tests-a354a551-030b-4e72-979a-a81cbb7b8249-bundle","type":"transaction","entry":[{"fullUrl":"https://madie.cms.gov/Patient/a354a551-030b-4e72-979a-a81cbb7b8249","resource":{"resourceType":"Patient","id":"a354a551-030b-4e72-979a-a81cbb7b8249","meta":{"profile":["http://hl7.org/fhir/us/qicore/StructureDefinition/qicore-patient"]},"text":{"status":"generated","div":"<div xmlns=\"http://www.w3.org/1999/xhtml\"><div class=\"hapiHeaderText\">AssessP1 <b>DENFAIL </b></div><table class=\"hapiPropertyTable\"><tbody><tr><td>Identifier</td><td>433af885768545c0b7502198218da0f1b5a64d7905cba864af8028ff627f6e9c</td></tr><tr><td>Date of birth</td><td><span>14 February 1985</span></td></tr></tbody></table></div>"},"extension":[{"url":"http://hl7.org/fhir/us/core/StructureDefinition/us-core-race","extension":[{"url":"ombCategory","valueCoding":{"system":"urn:oid:2.16.840.1.113883.6.238","code":"1002-5","display":"American Indian or Alaska Native","userSelected":true}},{"url":"text","valueString":"American Indian or Alaska Native"}]},{"url":"http://hl7.org/fhir/us/core/StructureDefinition/us-core-ethnicity","extension":[{"url":"ombCategory","valueCoding":{"system":"urn:oid:2.16.840.1.113883.6.238","code":"2135-2","display":"Hispanic or Latino","userSelected":true}},{"url":"text","valueString":"Hispanic or Latino"}]}],"identifier":[{"type":{"coding":[{"system":"http://terminology.hl7.org/CodeSystem/v2-0203","code":"MR"}]},"system":"https://bonnie-fhir.healthit.gov/","value":"63487c2d0968f80122540145"}],"active":true,"name":[{"use":"usual","family":"DENFail","given":["AssessP1 "]}],"gender":"female","birthDate":"1997-02-14"},"request":{"method":"PUT","url":"Patient/a354a551-030b-4e72-979a-a81cbb7b8249"}},{"fullUrl":"https://madie.cms.gov/Observation/5d014eb2b848460872380631","resource":{"resourceType":"Observation","id":"ebafc60d-66d3-4d31-88b7-e9d561456135","meta":{"profile":["http://hl7.org/fhir/us/qicore/StructureDefinition/qicore-observation"]},"status":"final","category":[{"coding":[{"system":"http://terminology.hl7.org/CodeSystem/observation-category","code":"exam","display":"exam","userSelected":true}]}],"code":{"coding":[{"system":"http://loinc.org","code":"11977-6"}]},"subject":{"reference":"Patient/a354a551-030b-4e72-979a-a81cbb7b8249"},"effectiveDateTime":"2025-03-08T09:00:00.000+00:00","valueInteger":1},"request":{"method":"PUT","url":"Observation/ebafc60d-66d3-4d31-88b7-e9d561456135"}},{"fullUrl":"https://madie.cms.gov/Observation/5d014eb2b848460872380634","resource":{"resourceType":"Observation","id":"dab26680-2bc5-47fe-b9e8-13089996c647","meta":{"profile":["http://hl7.org/fhir/us/qicore/StructureDefinition/qicore-observation"]},"status":"final","category":[{"coding":[{"system":"http://terminology.hl7.org/CodeSystem/observation-category","code":"exam","display":"exam","userSelected":true}]}],"code":{"coding":[{"system":"http://loinc.org","code":"11884-4"}]},"subject":{"reference":"Patient/a354a551-030b-4e72-979a-a81cbb7b8249"},"effectiveDateTime":"2025-06-08T20:00:00.000+00:00","valueQuantity":{"value":37.0,"system":"http://unitsofmeasure.org","code":"weeks"}},"request":{"method":"PUT","url":"Observation/dab26680-2bc5-47fe-b9e8-13089996c647"}},{"fullUrl":"https://madie.cms.gov/Observation/5e6962297ffec7000032118d","resource":{"resourceType":"Observation","id":"66671534-4b08-4ea1-bc41-c8084d8cd15d","meta":{"profile":["http://hl7.org/fhir/us/qicore/StructureDefinition/qicore-observation"]},"status":"final","category":[{"coding":[{"system":"http://terminology.hl7.org/CodeSystem/observation-category","code":"exam","display":"exam","userSelected":true}]}],"code":{"coding":[{"system":"http://loinc.org","code":"93857-1"}]},"subject":{"reference":"Patient/a354a551-030b-4e72-979a-a81cbb7b8249"},"effectiveDateTime":"2025-06-08T20:00:00.000+00:00","valueDateTime":"2025-06-08T20:00:00+00:00"},"request":{"method":"PUT","url":"Observation/66671534-4b08-4ea1-bc41-c8084d8cd15d"}},{"fullUrl":"https://madie.cms.gov/Encounter/5d014eb2b84846087238062f","resource":{"resourceType":"Encounter","id":"73101962-7868-4849-8f02-68eeaa2018bb","meta":{"profile":["http://hl7.org/fhir/us/qicore/StructureDefinition/qicore-encounter"]},"status":"finished","class":{"system":"http://terminology.hl7.org/CodeSystem/v3-ActCode","code":"IMP","display":"inpatient encounter"},"type":[{"coding":[{"system":"http://snomed.info/sct","code":"8715000"}]}],"subject":{"reference":"Patient/a354a551-030b-4e72-979a-a81cbb7b8249"},"period":{"start":"2025-06-08T08:00:00.000Z","end":"2025-06-10T08:15:00.000Z"},"length":{"value":2.0,"unit":"days"},"diagnosis":[{"condition":{"reference":"Condition/delivery-of-singleton-f83c"},"use":{"coding":[{"system":"http://snomed.info/sct","code":"169826009","display":"Delivery of Singleton"}]}},{"condition":{"reference":"Condition/delivery-of-singleton-4b0c"}}]},"request":{"method":"PUT","url":"Encounter/73101962-7868-4849-8f02-68eeaa2018bb"}},{"fullUrl":"https://madie.cms.gov/Procedure/5d014eb2b848460872380630","resource":{"resourceType":"Procedure","id":"9ad7505f-e332-42f7-931e-352faccd0921","meta":{"profile":["http://hl7.org/fhir/us/qicore/StructureDefinition/qicore-procedure"]},"extension":[{"url":"http://hl7.org/fhir/us/qicore/StructureDefinition/qicore-recorded","valueDateTime":"2013-04-05T09:35:00-04:00"}],"status":"completed","code":{"coding":[{"system":"http://www.cms.gov/Medicare/Coding/ICD10","code":"10D00Z0"},{"system":"http://snomed.info/sct","code":"4504004"},{"system":"http://www.icd10data.com/icd10pcs","code":"10D00Z0","userSelected":true}]},"subject":{"reference":"Patient/a354a551-030b-4e72-979a-a81cbb7b8249"},"performedPeriod":{"start":"2025-06-08T20:00:00.000Z","end":"2025-06-08T20:15:00.000Z"}},"request":{"method":"PUT","url":"Procedure/9ad7505f-e332-42f7-931e-352faccd0921"}},{"fullUrl":"https://madie.cms.gov/Condition/delivery-of-singleton-4b0c","resource":{"resourceType":"Condition","id":"29fb5ac9-3e06-4417-9c02-2fd236f508f0","meta":{"profile":["http://hl7.org/fhir/us/qicore/StructureDefinition/qicore-condition"]},"category":[{"coding":[{"system":"http://terminology.hl7.org/CodeSystem/condition-category","code":"encounter-diagnosis","display":"Encounter Diagnosis"}]}],"code":{"coding":[{"system":"http://snomed.info/sct","version":"2022-09","code":"169826009","display":"Single live birth (finding)","userSelected":true}]},"subject":{"reference":"Patient/a354a551-030b-4e72-979a-a81cbb7b8249"},"recordedDate":"2025-10-21T08:00:00.000+00:00"},"request":{"method":"PUT","url":"Condition/29fb5ac9-3e06-4417-9c02-2fd236f508f0"}},{"fullUrl":"https://madie.cms.gov/Coverage/1","resource":{"resourceType":"Coverage","id":"a97ff254-1933-4627-a14a-557c59bd213b","meta":{"profile":["http://hl7.org/fhir/us/qicore/StructureDefinition/qicore-coverage"]},"status":"active","beneficiary":{"reference":"Patient/a354a551-030b-4e72-979a-a81cbb7b8249"},"payor":[{"reference":"Organization/77e4d06f-5e3c-436a-a598-80cefcca5028"}]},"request":{"method":"PUT","url":"Coverage/a97ff254-1933-4627-a14a-557c59bd213b"}},{"fullUrl":"https://madie.cms.gov/Organization/123456","resource":{"resourceType":"Organization","id":"77e4d06f-5e3c-436a-a598-80cefcca5028","meta":{"profile":["http://hl7.org/fhir/us/qicore/StructureDefinition/qicore-organization"]},"identifier":[{"use":"temp","system":"urn:oid:2.16.840.1.113883.4.4","value":"21-3259825"}],"active":true,"type":[{"coding":[{"system":"http://terminology.hl7.org/CodeSystem/organization-type","code":"pay","display":"Payer"}]}],"name":"Blue Cross Blue Shield of Texas","telecom":[{"system":"phone","value":"(+1) 972-766-6900"}],"address":[{"use":"billing","type":"postal","line":["P.O. Box 660044"],"city":"Dallas","state":"TX","postalCode":"75266-0044","country":"USA"}]},"request":{"method":"PUT","url":"Organization/77e4d06f-5e3c-436a-a598-80cefcca5028"}},{"fullUrl":"https://madie.cms.gov/Practitioner/practitioner-123456","resource":{"resourceType":"Practitioner","id":"d4d3acb9-9381-4b48-9044-cf1356daabca","identifier":[{"system":"http://hl7.org/fhir/sid/us-npi","value":"123456"}],"name":[{"family":"Evil","prefix":["Dr"]}]},"request":{"method":"PUT","url":"Practitioner/d4d3acb9-9381-4b48-9044-cf1356daabca"}},{"fullUrl":"https://madie.cms.gov/MeasureReport/64bfe869-51d3-4727-9e6f-bf61827e141a","resource":{"resourceType":"MeasureReport","id":"64bfe869-51d3-4727-9e6f-bf61827e141a","meta":{"profile":["http://hl7.org/fhir/us/cqfmeasures/StructureDefinition/test-case-cqfm"]},"contained":[{"resourceType":"Parameters","id":"4ca92308-c6b0-4a46-a000-3c9fc448103f-parameters","parameter":[{"name":"subject","valueString":"a354a551-030b-4e72-979a-a81cbb7b8249"}]}],"extension":[{"url":"http://hl7.org/fhir/us/cqfmeasures/StructureDefinition/cqfm-inputParameters","valueReference":{"reference":"#4ca92308-c6b0-4a46-a000-3c9fc448103f-parameters"}},{"url":"http://hl7.org/fhir/us/cqfmeasures/StructureDefinition/cqfm-testCaseDescription","valueMarkdown":"Passes IP,  fail Denom with  Parity= 1\n"}],"modifierExtension":[{"url":"http://hl7.org/fhir/us/cqfmeasures/StructureDefinition/cqfm-isTestCase","valueBoolean":true}],"status":"complete","type":"individual","measure":"https://madie.cms.gov/Measure/CesareanBirthFHIR","period":{"start":"2025-01-01","end":"2025-12-31"},"group":[{"population":[{"code":{"coding":[{"system":"http://terminology.hl7.org/CodeSystem/measure-population","code":"initial-population","display":"Initial Population"}]},"count":1},{"code":{"coding":[{"system":"http://terminology.hl7.org/CodeSystem/measure-population","code":"denominator","display":"Denominator"}]},"count":0},{"code":{"coding":[{"system":"http://terminology.hl7.org/CodeSystem/measure-population","code":"denominator-exclusion","display":"Denominator Exclusion"}]},"count":0},{"code":{"coding":[{"system":"http://terminology.hl7.org/CodeSystem/measure-population","code":"numerator","display":"Numerator"}]},"count":0}]}]},"request":{"method":"PUT","url":"MeasureReport/64bfe869-51d3-4727-9e6f-bf61827e141a"}}]}