{"resourceType":"Bundle","id":"tests-8390a4d8-d09d-4889-8c3e-122900ba6a3e-bundle","type":"transaction","entry":[{"fullUrl":"https://madie.cms.gov/Patient/8390a4d8-d09d-4889-8c3e-122900ba6a3e","resource":{"resourceType":"Patient","id":"8390a4d8-d09d-4889-8c3e-122900ba6a3e","meta":{"profile":["http://hl7.org/fhir/us/qicore/StructureDefinition/qicore-patient"]},"text":{"status":"generated","div":"<div xmlns=\"http://www.w3.org/1999/xhtml\"><div class=\"hapiHeaderText\">EGAEQ37weeks <b>DENPASS </b></div><table class=\"hapiPropertyTable\"><tbody><tr><td>Identifier</td><td>73d161bbd72a0b8d656073de21758ea0022c984462702bb844daf97a7291f479</td></tr><tr><td>Date of birth</td><td><span>14 February 1985</span></td></tr></tbody></table></div>"},"extension":[{"url":"http://hl7.org/fhir/us/core/StructureDefinition/us-core-race","extension":[{"url":"ombCategory","valueCoding":{"system":"urn:oid:2.16.840.1.113883.6.238","code":"1002-5","display":"American Indian or Alaska Native","userSelected":true}},{"url":"text","valueString":"American Indian or Alaska Native"}]},{"url":"http://hl7.org/fhir/us/core/StructureDefinition/us-core-ethnicity","extension":[{"url":"ombCategory","valueCoding":{"system":"urn:oid:2.16.840.1.113883.6.238","code":"2135-2","display":"Hispanic or Latino","userSelected":true}},{"url":"text","valueString":"Hispanic or Latino"}]}],"identifier":[{"type":{"coding":[{"system":"http://terminology.hl7.org/CodeSystem/v2-0203","code":"MR"}]},"system":"https://bonnie-fhir.healthit.gov/","value":"63487c2e0968f80122540175"}],"active":true,"name":[{"use":"usual","family":"DENPass","given":["EGAEQ37weeks "]}],"gender":"female","birthDate":"1997-02-14"},"request":{"method":"PUT","url":"Patient/8390a4d8-d09d-4889-8c3e-122900ba6a3e"}},{"fullUrl":"https://madie.cms.gov/Observation/5d014eb2b84846087238059c","resource":{"resourceType":"Observation","id":"be763726-36a2-40e4-8ce5-9ee7da426045","meta":{"profile":["http://hl7.org/fhir/us/qicore/StructureDefinition/qicore-observation"]},"status":"final","category":[{"coding":[{"system":"http://terminology.hl7.org/CodeSystem/observation-category","code":"exam","display":"exam","userSelected":true}]}],"code":{"coding":[{"system":"http://loinc.org","code":"11996-6"}]},"subject":{"reference":"Patient/8390a4d8-d09d-4889-8c3e-122900ba6a3e"},"effectiveDateTime":"2025-06-08T08:00:00.000+00:00","valueInteger":1},"request":{"method":"PUT","url":"Observation/be763726-36a2-40e4-8ce5-9ee7da426045"}},{"fullUrl":"https://madie.cms.gov/Observation/5d014eb2b84846087238059e","resource":{"resourceType":"Observation","id":"ebd7b96d-a945-47e3-bf5d-1d3b04bc695c","meta":{"profile":["http://hl7.org/fhir/us/qicore/StructureDefinition/qicore-observation"]},"status":"final","category":[{"coding":[{"system":"http://terminology.hl7.org/CodeSystem/observation-category","code":"exam","display":"exam","userSelected":true}]}],"code":{"coding":[{"system":"http://loinc.org","code":"11884-4"}]},"subject":{"reference":"Patient/8390a4d8-d09d-4889-8c3e-122900ba6a3e"},"effectiveDateTime":"2025-06-08T09:15:00.000+00:00","valueQuantity":{"value":37.0,"system":"http://unitsofmeasure.org","code":"weeks"}},"request":{"method":"PUT","url":"Observation/ebd7b96d-a945-47e3-bf5d-1d3b04bc695c"}},{"fullUrl":"https://madie.cms.gov/Observation/5e6938707ffec7000031e98a","resource":{"resourceType":"Observation","id":"bccb1ccc-ba1d-4001-b8bb-40922c50c9fc","meta":{"profile":["http://hl7.org/fhir/us/qicore/StructureDefinition/qicore-observation"]},"status":"final","category":[{"coding":[{"system":"http://terminology.hl7.org/CodeSystem/observation-category","code":"exam","display":"exam","userSelected":true}]}],"code":{"coding":[{"system":"http://loinc.org","code":"93857-1"}]},"subject":{"reference":"Patient/8390a4d8-d09d-4889-8c3e-122900ba6a3e"},"effectiveDateTime":"2025-06-08T09:15:00.000+00:00","valueDateTime":"2025-06-08T09:15:00+00:00"},"request":{"method":"PUT","url":"Observation/bccb1ccc-ba1d-4001-b8bb-40922c50c9fc"}},{"fullUrl":"https://madie.cms.gov/Encounter/5d014eb2b84846087238059a","resource":{"resourceType":"Encounter","id":"dca68559-1adb-47ed-9eb5-06328c84595a","meta":{"profile":["http://hl7.org/fhir/us/qicore/StructureDefinition/qicore-encounter"]},"status":"finished","class":{"system":"http://terminology.hl7.org/CodeSystem/v3-ActCode","code":"IMP","display":"inpatient encounter"},"type":[{"coding":[{"system":"http://snomed.info/sct","code":"183452005"}]}],"subject":{"reference":"Patient/8390a4d8-d09d-4889-8c3e-122900ba6a3e"},"period":{"start":"2025-06-08T08:00:00.000Z","end":"2025-06-10T08:15:00.000Z"},"length":{"value":2.0,"unit":"days"},"diagnosis":[{"condition":{"reference":"Condition/delivery-of-singleton-f83c"},"use":{"coding":[{"system":"http://snomed.info/sct","code":"169826009","display":"Delivery of Singleton"}]}},{"condition":{"reference":"Condition/abnormal-presentation-9a7b"},"use":{"coding":[{"system":"http://snomed.info/sct","code":"18559007","display":"Frank breech presentation (finding)"}]}},{"condition":{"reference":"Condition/delivery-of-singleton-7770"}},{"condition":{"reference":"Condition/abnormal-presentation-9a7b"}}]},"request":{"method":"PUT","url":"Encounter/dca68559-1adb-47ed-9eb5-06328c84595a"}},{"fullUrl":"https://madie.cms.gov/Procedure/5d014eb2b84846087238059b","resource":{"resourceType":"Procedure","id":"19bdf863-b185-4519-8530-9c9cdf4e965c","meta":{"profile":["http://hl7.org/fhir/us/qicore/StructureDefinition/qicore-procedure"]},"extension":[{"url":"http://hl7.org/fhir/us/qicore/StructureDefinition/qicore-recorded","valueDateTime":"2013-04-05T09:35:00-04:00"}],"status":"completed","code":{"coding":[{"system":"http://www.cms.gov/Medicare/Coding/ICD10","code":"10D00Z0"},{"system":"http://www.icd10data.com/icd10pcs","code":"10D07Z3","userSelected":true}]},"subject":{"reference":"Patient/8390a4d8-d09d-4889-8c3e-122900ba6a3e"},"performedPeriod":{"start":"2025-06-08T08:00:00.000Z","end":"2025-06-08T09:15:00.000Z"}},"request":{"method":"PUT","url":"Procedure/19bdf863-b185-4519-8530-9c9cdf4e965c"}},{"fullUrl":"https://madie.cms.gov/Condition/delivery-of-singleton-7770","resource":{"resourceType":"Condition","id":"7083fc1d-edbd-4e71-b703-15eb8a28185c","meta":{"profile":["http://hl7.org/fhir/us/qicore/StructureDefinition/qicore-condition"]},"category":[{"coding":[{"system":"http://terminology.hl7.org/CodeSystem/condition-category","code":"encounter-diagnosis","display":"Encounter Diagnosis"}]}],"code":{"coding":[{"system":"http://snomed.info/sct","version":"2022-09","code":"169826009","display":"Single live birth (finding)","userSelected":true}]},"subject":{"reference":"Patient/8390a4d8-d09d-4889-8c3e-122900ba6a3e"},"recordedDate":"2025-10-20T08:00:00.000+00:00"},"request":{"method":"PUT","url":"Condition/7083fc1d-edbd-4e71-b703-15eb8a28185c"}},{"fullUrl":"https://madie.cms.gov/Condition/abnormal-presentation-9a7b","resource":{"resourceType":"Condition","id":"f1e6cd80-f5c1-409e-8baa-224367379803","meta":{"profile":["http://hl7.org/fhir/us/qicore/StructureDefinition/qicore-condition"]},"category":[{"coding":[{"system":"http://terminology.hl7.org/CodeSystem/condition-category","code":"encounter-diagnosis","display":"Encounter Diagnosis"}]}],"code":{"coding":[{"system":"http://snomed.info/sct","version":"2022-09","code":"18559007","display":"Frank breech presentation (finding)","userSelected":true}]},"subject":{"reference":"Patient/8390a4d8-d09d-4889-8c3e-122900ba6a3e"},"recordedDate":"2025-10-21T08:00:00.000+00:00"},"request":{"method":"PUT","url":"Condition/f1e6cd80-f5c1-409e-8baa-224367379803"}},{"fullUrl":"https://madie.cms.gov/Coverage/1","resource":{"resourceType":"Coverage","id":"28650fa2-2f38-4b2b-96c4-bb72a9fa4383","meta":{"profile":["http://hl7.org/fhir/us/qicore/StructureDefinition/qicore-coverage"]},"status":"active","beneficiary":{"reference":"Patient/8390a4d8-d09d-4889-8c3e-122900ba6a3e"},"payor":[{"reference":"Organization/4d7da20f-8773-4347-8f6b-80adcdcee1f4"}]},"request":{"method":"PUT","url":"Coverage/28650fa2-2f38-4b2b-96c4-bb72a9fa4383"}},{"fullUrl":"https://madie.cms.gov/Organization/123456","resource":{"resourceType":"Organization","id":"4d7da20f-8773-4347-8f6b-80adcdcee1f4","meta":{"profile":["http://hl7.org/fhir/us/qicore/StructureDefinition/qicore-organization"]},"identifier":[{"use":"temp","system":"urn:oid:2.16.840.1.113883.4.4","value":"21-3259825"}],"active":true,"type":[{"coding":[{"system":"http://terminology.hl7.org/CodeSystem/organization-type","code":"pay","display":"Payer"}]}],"name":"Blue Cross Blue Shield of Texas","telecom":[{"system":"phone","value":"(+1) 972-766-6900"}],"address":[{"use":"billing","type":"postal","line":["P.O. Box 660044"],"city":"Dallas","state":"TX","postalCode":"75266-0044","country":"USA"}]},"request":{"method":"PUT","url":"Organization/4d7da20f-8773-4347-8f6b-80adcdcee1f4"}},{"fullUrl":"https://madie.cms.gov/Practitioner/practitioner-123456","resource":{"resourceType":"Practitioner","id":"0324d517-91e1-4027-aa43-bf4aaea1779e","identifier":[{"system":"http://hl7.org/fhir/sid/us-npi","value":"123456"}],"name":[{"family":"Evil","prefix":["Dr"]}]},"request":{"method":"PUT","url":"Practitioner/0324d517-91e1-4027-aa43-bf4aaea1779e"}},{"fullUrl":"https://madie.cms.gov/MeasureReport/fddc612d-1c68-459b-a258-e7fe18041351","resource":{"resourceType":"MeasureReport","id":"fddc612d-1c68-459b-a258-e7fe18041351","meta":{"profile":["http://hl7.org/fhir/us/cqfmeasures/StructureDefinition/test-case-cqfm"]},"contained":[{"resourceType":"Parameters","id":"94d6f818-0197-4480-90a8-b17607d97f83-parameters","parameter":[{"name":"subject","valueString":"8390a4d8-d09d-4889-8c3e-122900ba6a3e"}]}],"extension":[{"url":"http://hl7.org/fhir/us/cqfmeasures/StructureDefinition/cqfm-inputParameters","valueReference":{"reference":"#94d6f818-0197-4480-90a8-b17607d97f83-parameters"}},{"url":"http://hl7.org/fhir/us/cqfmeasures/StructureDefinition/cqfm-testCaseDescription","valueMarkdown":"Passes: IP, Pt is 27 years of age,  encounter dx of delivery of singleton, gravida, EGA @ 37 weeks\n"}],"modifierExtension":[{"url":"http://hl7.org/fhir/us/cqfmeasures/StructureDefinition/cqfm-isTestCase","valueBoolean":true}],"status":"complete","type":"individual","measure":"https://madie.cms.gov/Measure/CesareanBirthFHIR","period":{"start":"2025-01-01","end":"2025-12-31"},"group":[{"population":[{"code":{"coding":[{"system":"http://terminology.hl7.org/CodeSystem/measure-population","code":"initial-population","display":"Initial Population"}]},"count":1},{"code":{"coding":[{"system":"http://terminology.hl7.org/CodeSystem/measure-population","code":"denominator","display":"Denominator"}]},"count":1},{"code":{"coding":[{"system":"http://terminology.hl7.org/CodeSystem/measure-population","code":"denominator-exclusion","display":"Denominator Exclusion"}]},"count":1},{"code":{"coding":[{"system":"http://terminology.hl7.org/CodeSystem/measure-population","code":"numerator","display":"Numerator"}]},"count":0}]}]},"request":{"method":"PUT","url":"MeasureReport/fddc612d-1c68-459b-a258-e7fe18041351"}}]}