{"resourceType":"Bundle","id":"tests-f073dc3e-d38e-4986-a343-0e3146ba46c0-bundle","type":"transaction","entry":[{"fullUrl":"https://madie.cms.gov/Patient/f073dc3e-d38e-4986-a343-0e3146ba46c0","resource":{"resourceType":"Patient","id":"f073dc3e-d38e-4986-a343-0e3146ba46c0","meta":{"profile":["http://hl7.org/fhir/us/qicore/StructureDefinition/qicore-patient"]},"text":{"status":"generated","div":"<div xmlns=\"http://www.w3.org/1999/xhtml\"><div class=\"hapiHeaderText\">AssessPreTermResultIsNull <b>DENFAIL </b></div><table class=\"hapiPropertyTable\"><tbody><tr><td>Identifier</td><td>68ae6e24f0fface97c058e998841dc5fd1e621f11f5d5bc2aeef1a3a248ebc14</td></tr><tr><td>Date of birth</td><td><span>14 February 1985</span></td></tr></tbody></table></div>"},"extension":[{"url":"http://hl7.org/fhir/us/core/StructureDefinition/us-core-race","extension":[{"url":"ombCategory","valueCoding":{"system":"urn:oid:2.16.840.1.113883.6.238","code":"1002-5","display":"American Indian or Alaska Native","userSelected":true}},{"url":"text","valueString":"American Indian or Alaska Native"}]},{"url":"http://hl7.org/fhir/us/core/StructureDefinition/us-core-ethnicity","extension":[{"url":"ombCategory","valueCoding":{"system":"urn:oid:2.16.840.1.113883.6.238","code":"2135-2","display":"Hispanic or Latino","userSelected":true}},{"url":"text","valueString":"Hispanic or Latino"}]}],"identifier":[{"type":{"coding":[{"system":"http://terminology.hl7.org/CodeSystem/v2-0203","code":"MR"}]},"system":"https://bonnie-fhir.healthit.gov/","value":"63487c300968f801225401c7"}],"active":true,"name":[{"use":"usual","family":"DENFail","given":["AssessPreTermResultIsNull"]}],"gender":"female","birthDate":"1997-02-14"},"request":{"method":"PUT","url":"Patient/f073dc3e-d38e-4986-a343-0e3146ba46c0"}},{"fullUrl":"https://madie.cms.gov/Observation/5d014eb2b848460872380652","resource":{"resourceType":"Observation","id":"fda20db8-8685-4a69-8072-e52a685ed59b","meta":{"profile":["http://hl7.org/fhir/us/qicore/StructureDefinition/qicore-observation"]},"status":"final","category":[{"coding":[{"system":"http://terminology.hl7.org/CodeSystem/observation-category","code":"exam","display":"exam","userSelected":true}]}],"code":{"coding":[{"system":"http://loinc.org","code":"11639-2"}]},"subject":{"reference":"Patient/f073dc3e-d38e-4986-a343-0e3146ba46c0"},"effectiveDateTime":"2024-09-19T09:00:00.000+00:00","valueInteger":0},"request":{"method":"PUT","url":"Observation/fda20db8-8685-4a69-8072-e52a685ed59b"}},{"fullUrl":"https://madie.cms.gov/Observation/5d014eb2b848460872380654","resource":{"resourceType":"Observation","id":"553f6b0d-3a78-4dd5-bedb-b0ef4406fa54","meta":{"profile":["http://hl7.org/fhir/us/qicore/StructureDefinition/qicore-observation"]},"status":"final","category":[{"coding":[{"system":"http://terminology.hl7.org/CodeSystem/observation-category","code":"exam","display":"exam","userSelected":true}]}],"code":{"coding":[{"system":"http://loinc.org","code":"11637-6"}]},"subject":{"reference":"Patient/f073dc3e-d38e-4986-a343-0e3146ba46c0"},"effectiveDateTime":"2025-06-08T09:00:00.000+00:00"},"request":{"method":"PUT","url":"Observation/553f6b0d-3a78-4dd5-bedb-b0ef4406fa54"}},{"fullUrl":"https://madie.cms.gov/Observation/5d014eb2b848460872380656","resource":{"resourceType":"Observation","id":"1d800e14-b375-4f78-8241-f72ff8169827","meta":{"profile":["http://hl7.org/fhir/us/qicore/StructureDefinition/qicore-observation"]},"status":"final","category":[{"coding":[{"system":"http://terminology.hl7.org/CodeSystem/observation-category","code":"exam","display":"exam","userSelected":true}]}],"code":{"coding":[{"system":"http://loinc.org","code":"11884-4"}]},"subject":{"reference":"Patient/f073dc3e-d38e-4986-a343-0e3146ba46c0"},"effectiveDateTime":"2025-06-08T20:00:00.000+00:00","valueQuantity":{"value":37.0,"system":"http://unitsofmeasure.org","code":"weeks"}},"request":{"method":"PUT","url":"Observation/1d800e14-b375-4f78-8241-f72ff8169827"}},{"fullUrl":"https://madie.cms.gov/Observation/5e692f8b7ffec7000031dd09","resource":{"resourceType":"Observation","id":"3a8f8528-acc7-4308-830f-3b7fb614172d","meta":{"profile":["http://hl7.org/fhir/us/qicore/StructureDefinition/qicore-observation"]},"status":"final","category":[{"coding":[{"system":"http://terminology.hl7.org/CodeSystem/observation-category","code":"exam","display":"exam","userSelected":true}]}],"code":{"coding":[{"system":"http://loinc.org","code":"93857-1"}]},"subject":{"reference":"Patient/f073dc3e-d38e-4986-a343-0e3146ba46c0"},"effectiveDateTime":"2025-06-08T20:00:00.000+00:00","valueDateTime":"2025-06-08T20:00:00+00:00"},"request":{"method":"PUT","url":"Observation/3a8f8528-acc7-4308-830f-3b7fb614172d"}},{"fullUrl":"https://madie.cms.gov/Encounter/5d014eb2b848460872380650","resource":{"resourceType":"Encounter","id":"dbab9329-25b3-4436-952f-f6ebf8040ecc","meta":{"profile":["http://hl7.org/fhir/us/qicore/StructureDefinition/qicore-encounter"]},"status":"finished","class":{"system":"http://terminology.hl7.org/CodeSystem/v3-ActCode","code":"IMP","display":"inpatient encounter"},"type":[{"coding":[{"system":"http://snomed.info/sct","code":"8715000"}]}],"subject":{"reference":"Patient/f073dc3e-d38e-4986-a343-0e3146ba46c0"},"period":{"start":"2025-06-08T08:00:00.000Z","end":"2025-06-10T08:15:00.000Z"},"length":{"value":2.0,"unit":"days"},"diagnosis":[{"condition":{"reference":"Condition/delivery-of-singleton-f83c"},"use":{"coding":[{"system":"http://snomed.info/sct","code":"169826009","display":"Delivery of Singleton"}]}},{"condition":{"reference":"Condition/delivery-of-singleton-4b17"}}]},"request":{"method":"PUT","url":"Encounter/dbab9329-25b3-4436-952f-f6ebf8040ecc"}},{"fullUrl":"https://madie.cms.gov/Procedure/5d014eb2b848460872380651","resource":{"resourceType":"Procedure","id":"d570f293-f767-445c-be71-3b427ea52e60","meta":{"profile":["http://hl7.org/fhir/us/qicore/StructureDefinition/qicore-procedure"]},"extension":[{"url":"http://hl7.org/fhir/us/qicore/StructureDefinition/qicore-recorded","valueDateTime":"2013-04-05T09:35:00-04:00"}],"status":"completed","code":{"coding":[{"system":"http://www.cms.gov/Medicare/Coding/ICD10","code":"10D00Z0"},{"system":"http://snomed.info/sct","code":"4504004"},{"system":"http://www.icd10data.com/icd10pcs","code":"10D00Z0","userSelected":true}]},"subject":{"reference":"Patient/f073dc3e-d38e-4986-a343-0e3146ba46c0"},"performedPeriod":{"start":"2025-06-08T20:00:00.000Z","end":"2025-06-08T20:15:00.000Z"}},"request":{"method":"PUT","url":"Procedure/d570f293-f767-445c-be71-3b427ea52e60"}},{"fullUrl":"https://madie.cms.gov/Condition/delivery-of-singleton-4b17","resource":{"resourceType":"Condition","id":"4473920c-04cb-438c-8ac3-7ad1dcec6e62","meta":{"profile":["http://hl7.org/fhir/us/qicore/StructureDefinition/qicore-condition"]},"category":[{"coding":[{"system":"http://terminology.hl7.org/CodeSystem/condition-category","code":"encounter-diagnosis","display":"Encounter Diagnosis"}]}],"code":{"coding":[{"system":"http://snomed.info/sct","version":"2022-09","code":"169826009","display":"Single live birth (finding)","userSelected":true}]},"subject":{"reference":"Patient/f073dc3e-d38e-4986-a343-0e3146ba46c0"},"recordedDate":"2025-10-21T08:00:00.000+00:00"},"request":{"method":"PUT","url":"Condition/4473920c-04cb-438c-8ac3-7ad1dcec6e62"}},{"fullUrl":"https://madie.cms.gov/Coverage/1","resource":{"resourceType":"Coverage","id":"1116693c-3b94-4c41-b8df-c3ae8c496b4f","meta":{"profile":["http://hl7.org/fhir/us/qicore/StructureDefinition/qicore-coverage"]},"status":"active","beneficiary":{"reference":"Patient/f073dc3e-d38e-4986-a343-0e3146ba46c0"},"payor":[{"reference":"Organization/a6c3e6fa-301e-4714-9d04-3dde9a7e7c49"}]},"request":{"method":"PUT","url":"Coverage/1116693c-3b94-4c41-b8df-c3ae8c496b4f"}},{"fullUrl":"https://madie.cms.gov/Organization/123456","resource":{"resourceType":"Organization","id":"a6c3e6fa-301e-4714-9d04-3dde9a7e7c49","meta":{"profile":["http://hl7.org/fhir/us/qicore/StructureDefinition/qicore-organization"]},"identifier":[{"use":"temp","system":"urn:oid:2.16.840.1.113883.4.4","value":"21-3259825"}],"active":true,"type":[{"coding":[{"system":"http://terminology.hl7.org/CodeSystem/organization-type","code":"pay","display":"Payer"}]}],"name":"Blue Cross Blue Shield of Texas","telecom":[{"system":"phone","value":"(+1) 972-766-6900"}],"address":[{"use":"billing","type":"postal","line":["P.O. Box 660044"],"city":"Dallas","state":"TX","postalCode":"75266-0044","country":"USA"}]},"request":{"method":"PUT","url":"Organization/a6c3e6fa-301e-4714-9d04-3dde9a7e7c49"}},{"fullUrl":"https://madie.cms.gov/Practitioner/practitioner-123456","resource":{"resourceType":"Practitioner","id":"7713e933-461c-49ca-b37e-a7aabb9cd7c7","identifier":[{"system":"http://hl7.org/fhir/sid/us-npi","value":"123456"}],"name":[{"family":"Evil","prefix":["Dr"]}]},"request":{"method":"PUT","url":"Practitioner/7713e933-461c-49ca-b37e-a7aabb9cd7c7"}},{"fullUrl":"https://madie.cms.gov/MeasureReport/dbbce1ed-334d-42eb-a616-ee0f5218dd4e","resource":{"resourceType":"MeasureReport","id":"dbbce1ed-334d-42eb-a616-ee0f5218dd4e","meta":{"profile":["http://hl7.org/fhir/us/cqfmeasures/StructureDefinition/test-case-cqfm"]},"contained":[{"resourceType":"Parameters","id":"cf696b91-8e8e-4e46-89d9-79a9085f8268-parameters","parameter":[{"name":"subject","valueString":"f073dc3e-d38e-4986-a343-0e3146ba46c0"}]}],"extension":[{"url":"http://hl7.org/fhir/us/cqfmeasures/StructureDefinition/cqfm-inputParameters","valueReference":{"reference":"#cf696b91-8e8e-4e46-89d9-79a9085f8268-parameters"}},{"url":"http://hl7.org/fhir/us/cqfmeasures/StructureDefinition/cqfm-testCaseDescription","valueMarkdown":"\"Preterm Births is null, relevant date/time before Asse delivery datetime\nTerm Newborn=0, authored < 42weeks prior to Asse delivery\"\n"}],"modifierExtension":[{"url":"http://hl7.org/fhir/us/cqfmeasures/StructureDefinition/cqfm-isTestCase","valueBoolean":true}],"status":"complete","type":"individual","measure":"https://madie.cms.gov/Measure/CesareanBirthFHIR","period":{"start":"2025-01-01","end":"2025-12-31"},"group":[{"population":[{"code":{"coding":[{"system":"http://terminology.hl7.org/CodeSystem/measure-population","code":"initial-population","display":"Initial Population"}]},"count":1},{"code":{"coding":[{"system":"http://terminology.hl7.org/CodeSystem/measure-population","code":"denominator","display":"Denominator"}]},"count":0},{"code":{"coding":[{"system":"http://terminology.hl7.org/CodeSystem/measure-population","code":"denominator-exclusion","display":"Denominator Exclusion"}]},"count":0},{"code":{"coding":[{"system":"http://terminology.hl7.org/CodeSystem/measure-population","code":"numerator","display":"Numerator"}]},"count":0}]}]},"request":{"method":"PUT","url":"MeasureReport/dbbce1ed-334d-42eb-a616-ee0f5218dd4e"}}]}