{"resourceType":"Bundle","id":"tests-5279c487-da7f-459d-9e7b-0b5cb185e3a4-bundle","type":"transaction","entry":[{"fullUrl":"https://madie.cms.gov/Patient/5279c487-da7f-459d-9e7b-0b5cb185e3a4","resource":{"resourceType":"Patient","id":"5279c487-da7f-459d-9e7b-0b5cb185e3a4","meta":{"profile":["http://hl7.org/fhir/us/qicore/StructureDefinition/qicore-patient"]},"text":{"status":"generated","div":"<div xmlns=\"http://www.w3.org/1999/xhtml\"><div class=\"hapiHeaderText\">2AssessPerfAbnPresRelDtTime_1BFTimeOfDeliv_1AFDelivery <b>DENEXPASS </b></div><table class=\"hapiPropertyTable\"><tbody><tr><td>Identifier</td><td>026ef11ad83a8a7cf2dd9a5df623df3fb5fe5e8210cfb6bc83e410fca26c8633</td></tr><tr><td>Date of birth</td><td><span>14 February 1985</span></td></tr></tbody></table></div>"},"extension":[{"url":"http://hl7.org/fhir/us/core/StructureDefinition/us-core-race","extension":[{"url":"ombCategory","valueCoding":{"system":"urn:oid:2.16.840.1.113883.6.238","code":"1002-5","display":"American Indian or Alaska Native","userSelected":true}},{"url":"text","valueString":"American Indian or Alaska Native"}]},{"url":"http://hl7.org/fhir/us/core/StructureDefinition/us-core-ethnicity","extension":[{"url":"ombCategory","valueCoding":{"system":"urn:oid:2.16.840.1.113883.6.238","code":"2135-2","display":"Hispanic or Latino","userSelected":true}},{"url":"text","valueString":"Hispanic or Latino"}]}],"identifier":[{"type":{"coding":[{"system":"http://terminology.hl7.org/CodeSystem/v2-0203","code":"MR"}]},"system":"https://bonnie-fhir.healthit.gov/","value":"63487c300968f801225401d1"}],"active":true,"name":[{"use":"usual","family":"DENEXPass","given":["2AssessPerfAbnPresRelDtTime_1BFTimeOfDeliv_1AFDelivery"]}],"gender":"female","birthDate":"1997-02-14"},"request":{"method":"PUT","url":"Patient/5279c487-da7f-459d-9e7b-0b5cb185e3a4"}},{"fullUrl":"https://madie.cms.gov/Observation/5d014eb3b8484608723806d1","resource":{"resourceType":"Observation","id":"e8388a2f-8f23-4573-aad4-8d7120c235ed","meta":{"profile":["http://hl7.org/fhir/us/qicore/StructureDefinition/qicore-observation"]},"status":"final","category":[{"coding":[{"system":"http://terminology.hl7.org/CodeSystem/observation-category","code":"exam","display":"exam","userSelected":true}]}],"code":{"coding":[{"system":"http://loinc.org","code":"11996-6"}]},"subject":{"reference":"Patient/5279c487-da7f-459d-9e7b-0b5cb185e3a4"},"effectiveDateTime":"2025-06-08T08:00:00.000+00:00","valueInteger":1},"request":{"method":"PUT","url":"Observation/e8388a2f-8f23-4573-aad4-8d7120c235ed"}},{"fullUrl":"https://madie.cms.gov/Observation/5d014eb3b8484608723806d3","resource":{"resourceType":"Observation","id":"eaded50d-5eb8-456e-a4d2-7feab65484bc","meta":{"profile":["http://hl7.org/fhir/us/qicore/StructureDefinition/qicore-observation"]},"status":"final","category":[{"coding":[{"system":"http://terminology.hl7.org/CodeSystem/observation-category","code":"exam","display":"exam","userSelected":true}]}],"code":{"coding":[{"system":"http://loinc.org","code":"11884-4"}]},"subject":{"reference":"Patient/5279c487-da7f-459d-9e7b-0b5cb185e3a4"},"effectiveDateTime":"2025-06-08T19:59:00.000+00:00","valueQuantity":{"value":43.0,"system":"http://unitsofmeasure.org","code":"weeks"}},"request":{"method":"PUT","url":"Observation/eaded50d-5eb8-456e-a4d2-7feab65484bc"}},{"fullUrl":"https://madie.cms.gov/Observation/5e611823eadaae0000c2b50f","resource":{"resourceType":"Observation","id":"031286af-7ade-453e-8687-9f7596c4ec98","meta":{"profile":["http://hl7.org/fhir/us/qicore/StructureDefinition/qicore-observation"]},"status":"final","category":[{"coding":[{"system":"http://terminology.hl7.org/CodeSystem/observation-category","code":"exam","display":"exam","userSelected":true}]}],"code":{"coding":[{"system":"http://loinc.org","code":"93857-1"}]},"subject":{"reference":"Patient/5279c487-da7f-459d-9e7b-0b5cb185e3a4"},"effectiveDateTime":"2025-06-08T20:00:00.000+00:00","valueDateTime":"2025-06-08T20:00:00+00:00"},"request":{"method":"PUT","url":"Observation/031286af-7ade-453e-8687-9f7596c4ec98"}},{"fullUrl":"https://madie.cms.gov/Observation/607db27f1d17b7000049dc99","resource":{"resourceType":"Observation","id":"78666d02-8d60-4f17-af54-b9cefb0a3de9","meta":{"profile":["http://hl7.org/fhir/us/qicore/StructureDefinition/qicore-observation"]},"status":"final","category":[{"coding":[{"system":"http://terminology.hl7.org/CodeSystem/observation-category","code":"exam","display":"exam","userSelected":true}]}],"code":{"coding":[{"system":"http://snomed.info/sct","code":"18559007"}]},"subject":{"reference":"Patient/5279c487-da7f-459d-9e7b-0b5cb185e3a4"},"effectiveDateTime":"2025-06-08T19:59:00.000+00:00"},"request":{"method":"PUT","url":"Observation/78666d02-8d60-4f17-af54-b9cefb0a3de9"}},{"fullUrl":"https://madie.cms.gov/Encounter/5d014eb3b8484608723806ce","resource":{"resourceType":"Encounter","id":"d7829fce-cba9-4a50-9531-8bdd4b0e975a","meta":{"profile":["http://hl7.org/fhir/us/qicore/StructureDefinition/qicore-encounter"]},"status":"finished","class":{"system":"http://terminology.hl7.org/CodeSystem/v3-ActCode","code":"IMP","display":"inpatient encounter"},"type":[{"coding":[{"system":"http://snomed.info/sct","code":"8715000"}]}],"subject":{"reference":"Patient/5279c487-da7f-459d-9e7b-0b5cb185e3a4"},"period":{"start":"2025-06-08T08:00:00.000Z","end":"2025-06-10T08:15:00.000Z"},"diagnosis":[{"condition":{"reference":"Condition/delivery-of-singleton-8dea"}}]},"request":{"method":"PUT","url":"Encounter/d7829fce-cba9-4a50-9531-8bdd4b0e975a"}},{"fullUrl":"https://madie.cms.gov/Procedure/5d014eb3b8484608723806cf","resource":{"resourceType":"Procedure","id":"2a75d015-2ae1-4dab-a915-f2ce916180e7","meta":{"profile":["http://hl7.org/fhir/us/qicore/StructureDefinition/qicore-procedure"]},"extension":[{"url":"http://hl7.org/fhir/us/qicore/StructureDefinition/qicore-recorded","valueDateTime":"2013-04-05T09:35:00-04:00"}],"status":"completed","code":{"coding":[{"system":"http://snomed.info/sct","code":"4504004"}]},"subject":{"reference":"Patient/5279c487-da7f-459d-9e7b-0b5cb185e3a4"},"performedPeriod":{"start":"2025-06-08T20:00:00.000Z","end":"2025-06-18T20:00:00.000Z"}},"request":{"method":"PUT","url":"Procedure/2a75d015-2ae1-4dab-a915-f2ce916180e7"}},{"fullUrl":"https://madie.cms.gov/Condition/delivery-of-singleton-8dea","resource":{"resourceType":"Condition","id":"6ada63ab-d8f0-4742-ad32-6b46cee67fca","meta":{"profile":["http://hl7.org/fhir/us/qicore/StructureDefinition/qicore-condition"]},"category":[{"coding":[{"system":"http://terminology.hl7.org/CodeSystem/condition-category","code":"encounter-diagnosis","display":"Encounter Diagnosis"}]}],"code":{"coding":[{"system":"http://snomed.info/sct","version":"2022-09","code":"169826009","display":"Single live birth (finding)","userSelected":true}]},"subject":{"reference":"Patient/5279c487-da7f-459d-9e7b-0b5cb185e3a4"},"recordedDate":"2025-10-17T08:00:00.000+00:00"},"request":{"method":"PUT","url":"Condition/6ada63ab-d8f0-4742-ad32-6b46cee67fca"}},{"fullUrl":"https://madie.cms.gov/Observation/abnormal-presentation-099c","resource":{"resourceType":"Observation","id":"31279e26-a026-4661-ae5b-4174e2fd2eb2","status":"final","category":[{"coding":[{"system":"http://terminology.hl7.org/CodeSystem/observation-category","code":"exam","display":"exam","userSelected":true}]}],"code":{"coding":[{"system":"http://snomed.info/sct","version":"2022-09","code":"18559007","display":"Frank breech presentation (finding)","userSelected":true}]},"subject":{"reference":"Patient/5279c487-da7f-459d-9e7b-0b5cb185e3a4"},"effectiveDateTime":"2025-06-08T20:01:00.000+00:00"},"request":{"method":"PUT","url":"Observation/31279e26-a026-4661-ae5b-4174e2fd2eb2"}},{"fullUrl":"https://madie.cms.gov/Coverage/1","resource":{"resourceType":"Coverage","id":"5d03a80b-7f32-4e69-b62a-59142ed4e45d","meta":{"profile":["http://hl7.org/fhir/us/qicore/StructureDefinition/qicore-coverage"]},"status":"active","beneficiary":{"reference":"Patient/5279c487-da7f-459d-9e7b-0b5cb185e3a4"},"payor":[{"reference":"Organization/024e2731-b045-43bf-80d2-684774c5b51c"}]},"request":{"method":"PUT","url":"Coverage/5d03a80b-7f32-4e69-b62a-59142ed4e45d"}},{"fullUrl":"https://madie.cms.gov/Organization/123456","resource":{"resourceType":"Organization","id":"024e2731-b045-43bf-80d2-684774c5b51c","meta":{"profile":["http://hl7.org/fhir/us/qicore/StructureDefinition/qicore-organization"]},"identifier":[{"use":"temp","system":"urn:oid:2.16.840.1.113883.4.4","value":"21-3259825"}],"active":true,"type":[{"coding":[{"system":"http://terminology.hl7.org/CodeSystem/organization-type","code":"pay","display":"Payer"}]}],"name":"Blue Cross Blue Shield of Texas","telecom":[{"system":"phone","value":"(+1) 972-766-6900"}],"address":[{"use":"billing","type":"postal","line":["P.O. Box 660044"],"city":"Dallas","state":"TX","postalCode":"75266-0044","country":"USA"}]},"request":{"method":"PUT","url":"Organization/024e2731-b045-43bf-80d2-684774c5b51c"}},{"fullUrl":"https://madie.cms.gov/Practitioner/practitioner-123456","resource":{"resourceType":"Practitioner","id":"93e6a54d-cb8d-4738-afaf-3fac5e7e1f51","identifier":[{"system":"http://hl7.org/fhir/sid/us-npi","value":"123456"}],"name":[{"family":"Evil","prefix":["Dr"]}]},"request":{"method":"PUT","url":"Practitioner/93e6a54d-cb8d-4738-afaf-3fac5e7e1f51"}},{"fullUrl":"https://madie.cms.gov/MeasureReport/250af5a7-f6df-444b-9ef9-6debd46638b0","resource":{"resourceType":"MeasureReport","id":"250af5a7-f6df-444b-9ef9-6debd46638b0","meta":{"profile":["http://hl7.org/fhir/us/cqfmeasures/StructureDefinition/test-case-cqfm"]},"contained":[{"resourceType":"Parameters","id":"55419cb5-702b-4485-b40b-d541adf79b90-parameters","parameter":[{"name":"subject","valueString":"5279c487-da7f-459d-9e7b-0b5cb185e3a4"}]}],"extension":[{"url":"http://hl7.org/fhir/us/cqfmeasures/StructureDefinition/cqfm-inputParameters","valueReference":{"reference":"#55419cb5-702b-4485-b40b-d541adf79b90-parameters"}},{"url":"http://hl7.org/fhir/us/cqfmeasures/StructureDefinition/cqfm-testCaseDescription","valueMarkdown":"EGA 43 weeks; the last Assessment performed Abnormal presentation prior to delivery, another one is after Delivery time. THe logic pick one prior to delivery time.\n"}],"modifierExtension":[{"url":"http://hl7.org/fhir/us/cqfmeasures/StructureDefinition/cqfm-isTestCase","valueBoolean":true}],"status":"complete","type":"individual","measure":"https://madie.cms.gov/Measure/CesareanBirthFHIR","period":{"start":"2025-01-01","end":"2025-12-31"},"group":[{"population":[{"code":{"coding":[{"system":"http://terminology.hl7.org/CodeSystem/measure-population","code":"initial-population","display":"Initial Population"}]},"count":1},{"code":{"coding":[{"system":"http://terminology.hl7.org/CodeSystem/measure-population","code":"denominator","display":"Denominator"}]},"count":1},{"code":{"coding":[{"system":"http://terminology.hl7.org/CodeSystem/measure-population","code":"denominator-exclusion","display":"Denominator Exclusion"}]},"count":1},{"code":{"coding":[{"system":"http://terminology.hl7.org/CodeSystem/measure-population","code":"numerator","display":"Numerator"}]},"count":0}]}]},"request":{"method":"PUT","url":"MeasureReport/250af5a7-f6df-444b-9ef9-6debd46638b0"}}]}