{"resourceType":"Bundle","id":"tests-663f65ef-8b51-4a5c-a18f-570677441fd1-bundle","type":"transaction","entry":[{"fullUrl":"https://madie.cms.gov/Patient/663f65ef-8b51-4a5c-a18f-570677441fd1","resource":{"resourceType":"Patient","id":"663f65ef-8b51-4a5c-a18f-570677441fd1","meta":{"profile":["http://hl7.org/fhir/us/qicore/StructureDefinition/qicore-patient"]},"text":{"status":"generated","div":"<div xmlns=\"http://www.w3.org/1999/xhtml\"><div class=\"hapiHeaderText\">EncDxAbnPres <b>DENEXPASS </b></div><table class=\"hapiPropertyTable\"><tbody><tr><td>Identifier</td><td>e60ac0c86374d56542751bc908b8f4587a0e4d04c5ad61e351ba0274daf18ca0</td></tr><tr><td>Date of birth</td><td><span>14 February 1985</span></td></tr></tbody></table></div>"},"extension":[{"url":"http://hl7.org/fhir/us/core/StructureDefinition/us-core-race","extension":[{"url":"ombCategory","valueCoding":{"system":"urn:oid:2.16.840.1.113883.6.238","code":"1002-5","display":"American Indian or Alaska Native","userSelected":true}},{"url":"text","valueString":"American Indian or Alaska Native"}]},{"url":"http://hl7.org/fhir/us/core/StructureDefinition/us-core-ethnicity","extension":[{"url":"ombCategory","valueCoding":{"system":"urn:oid:2.16.840.1.113883.6.238","code":"2135-2","display":"Hispanic or Latino","userSelected":true}},{"url":"text","valueString":"Hispanic or Latino"}]}],"identifier":[{"type":{"coding":[{"system":"http://terminology.hl7.org/CodeSystem/v2-0203","code":"MR"}]},"system":"https://bonnie-fhir.healthit.gov/","value":"63487c2e0968f80122540178"}],"active":true,"name":[{"use":"usual","family":"DENEXPass","given":["EncDxAbnPres "]}],"gender":"female","birthDate":"1997-02-14"},"request":{"method":"PUT","url":"Patient/663f65ef-8b51-4a5c-a18f-570677441fd1"}},{"fullUrl":"https://madie.cms.gov/Observation/5d014eb2b8484608723805b6","resource":{"resourceType":"Observation","id":"94299a64-ca90-4b7a-be9d-81fd39304ce0","meta":{"profile":["http://hl7.org/fhir/us/qicore/StructureDefinition/qicore-observation"]},"status":"final","category":[{"coding":[{"system":"http://terminology.hl7.org/CodeSystem/observation-category","code":"exam","display":"exam","userSelected":true}]}],"code":{"coding":[{"system":"http://loinc.org","code":"11996-6"}]},"subject":{"reference":"Patient/663f65ef-8b51-4a5c-a18f-570677441fd1"},"effectiveDateTime":"2025-06-08T08:00:00.000+00:00","valueInteger":1},"request":{"method":"PUT","url":"Observation/94299a64-ca90-4b7a-be9d-81fd39304ce0"}},{"fullUrl":"https://madie.cms.gov/Observation/5d014eb2b8484608723805b8","resource":{"resourceType":"Observation","id":"faa2f8db-5184-4ec7-96a6-f67032b1c446","meta":{"profile":["http://hl7.org/fhir/us/qicore/StructureDefinition/qicore-observation"]},"status":"final","category":[{"coding":[{"system":"http://terminology.hl7.org/CodeSystem/observation-category","code":"exam","display":"exam","userSelected":true}]}],"code":{"coding":[{"system":"http://loinc.org","code":"11884-4"}]},"subject":{"reference":"Patient/663f65ef-8b51-4a5c-a18f-570677441fd1"},"effectiveDateTime":"2025-06-08T08:00:00.000+00:00","valueQuantity":{"value":43.0,"system":"http://unitsofmeasure.org","code":"weeks"}},"request":{"method":"PUT","url":"Observation/faa2f8db-5184-4ec7-96a6-f67032b1c446"}},{"fullUrl":"https://madie.cms.gov/Observation/5e61189beadaae0000c2b65b","resource":{"resourceType":"Observation","id":"571de73c-838f-4963-9556-369b91de2242","meta":{"profile":["http://hl7.org/fhir/us/qicore/StructureDefinition/qicore-observation"]},"status":"final","category":[{"coding":[{"system":"http://terminology.hl7.org/CodeSystem/observation-category","code":"exam","display":"exam","userSelected":true}]}],"code":{"coding":[{"system":"http://loinc.org","code":"93857-1"}]},"subject":{"reference":"Patient/663f65ef-8b51-4a5c-a18f-570677441fd1"},"effectiveDateTime":"2025-06-08T20:00:00.000+00:00","valueDateTime":"2025-06-08T20:00:00+00:00"},"request":{"method":"PUT","url":"Observation/571de73c-838f-4963-9556-369b91de2242"}},{"fullUrl":"https://madie.cms.gov/Encounter/5d014eb2b8484608723805b4","resource":{"resourceType":"Encounter","id":"9e2e9467-725f-4dc3-ab9e-b7dab9175480","meta":{"profile":["http://hl7.org/fhir/us/qicore/StructureDefinition/qicore-encounter"]},"status":"finished","class":{"system":"http://terminology.hl7.org/CodeSystem/v3-ActCode","code":"IMP","display":"inpatient encounter"},"type":[{"coding":[{"system":"http://snomed.info/sct","code":"8715000"}]}],"subject":{"reference":"Patient/663f65ef-8b51-4a5c-a18f-570677441fd1"},"period":{"start":"2025-06-08T08:00:00.000Z","end":"2025-06-10T08:15:00.000Z"},"diagnosis":[{"condition":{"reference":"Condition/delivery-of-singleton-099e"}},{"condition":{"reference":"Condition/abnormal-presentation-099f"}}]},"request":{"method":"PUT","url":"Encounter/9e2e9467-725f-4dc3-ab9e-b7dab9175480"}},{"fullUrl":"https://madie.cms.gov/Procedure/5d014eb2b8484608723805b5","resource":{"resourceType":"Procedure","id":"8e21bf26-a4d2-424f-90e0-c434a1d0e0af","meta":{"profile":["http://hl7.org/fhir/us/qicore/StructureDefinition/qicore-procedure"]},"extension":[{"url":"http://hl7.org/fhir/us/qicore/StructureDefinition/qicore-recorded","valueDateTime":"2013-04-05T09:35:00-04:00"}],"status":"completed","code":{"coding":[{"system":"http://snomed.info/sct","code":"4504004"}]},"subject":{"reference":"Patient/663f65ef-8b51-4a5c-a18f-570677441fd1"},"performedPeriod":{"start":"2025-06-08T20:00:00.000Z","end":"2025-06-09T20:00:00.000Z"}},"request":{"method":"PUT","url":"Procedure/8e21bf26-a4d2-424f-90e0-c434a1d0e0af"}},{"fullUrl":"https://madie.cms.gov/Condition/delivery-of-singleton-099e","resource":{"resourceType":"Condition","id":"7be9a911-5149-42bc-8380-2962dff20952","meta":{"profile":["http://hl7.org/fhir/us/qicore/StructureDefinition/qicore-condition"]},"category":[{"coding":[{"system":"http://terminology.hl7.org/CodeSystem/condition-category","code":"encounter-diagnosis","display":"Encounter Diagnosis"}]}],"code":{"coding":[{"system":"http://snomed.info/sct","version":"2022-09","code":"169826009","display":"Single live birth (finding)","userSelected":true}]},"subject":{"reference":"Patient/663f65ef-8b51-4a5c-a18f-570677441fd1"},"recordedDate":"2025-10-17T08:00:00.000+00:00"},"request":{"method":"PUT","url":"Condition/7be9a911-5149-42bc-8380-2962dff20952"}},{"fullUrl":"https://madie.cms.gov/Condition/abnormal-presentation-099f","resource":{"resourceType":"Condition","id":"b74d7c9d-9985-4bd0-ad76-2b2261d8fb7f","meta":{"profile":["http://hl7.org/fhir/us/qicore/StructureDefinition/qicore-condition"]},"category":[{"coding":[{"system":"http://terminology.hl7.org/CodeSystem/condition-category","code":"encounter-diagnosis","display":"Encounter Diagnosis"}]}],"code":{"coding":[{"system":"http://snomed.info/sct","version":"2022-09","code":"18559007","display":"Frank breech presentation (finding)","userSelected":true}]},"subject":{"reference":"Patient/663f65ef-8b51-4a5c-a18f-570677441fd1"},"recordedDate":"2025-10-17T08:00:00.000+00:00"},"request":{"method":"PUT","url":"Condition/b74d7c9d-9985-4bd0-ad76-2b2261d8fb7f"}},{"fullUrl":"https://madie.cms.gov/Coverage/1","resource":{"resourceType":"Coverage","id":"11d935f1-ad78-4bf6-a07f-2b4407332f48","meta":{"profile":["http://hl7.org/fhir/us/qicore/StructureDefinition/qicore-coverage"]},"status":"active","beneficiary":{"reference":"Patient/663f65ef-8b51-4a5c-a18f-570677441fd1"},"payor":[{"reference":"Organization/a6c3e6fa-301e-4714-9d04-3dde9a7e7c49"}]},"request":{"method":"PUT","url":"Coverage/11d935f1-ad78-4bf6-a07f-2b4407332f48"}},{"fullUrl":"https://madie.cms.gov/Organization/123456","resource":{"resourceType":"Organization","id":"a6c3e6fa-301e-4714-9d04-3dde9a7e7c49","meta":{"profile":["http://hl7.org/fhir/us/qicore/StructureDefinition/qicore-organization"]},"identifier":[{"use":"temp","system":"urn:oid:2.16.840.1.113883.4.4","value":"21-3259825"}],"active":true,"type":[{"coding":[{"system":"http://terminology.hl7.org/CodeSystem/organization-type","code":"pay","display":"Payer"}]}],"name":"Blue Cross Blue Shield of Texas","telecom":[{"system":"phone","value":"(+1) 972-766-6900"}],"address":[{"use":"billing","type":"postal","line":["P.O. Box 660044"],"city":"Dallas","state":"TX","postalCode":"75266-0044","country":"USA"}]},"request":{"method":"PUT","url":"Organization/a6c3e6fa-301e-4714-9d04-3dde9a7e7c49"}},{"fullUrl":"https://madie.cms.gov/Practitioner/practitioner-123456","resource":{"resourceType":"Practitioner","id":"47a2812f-9116-4fc7-b342-81ef461fe0e4","identifier":[{"system":"http://hl7.org/fhir/sid/us-npi","value":"123456"}],"name":[{"family":"Evil","prefix":["Dr"]}]},"request":{"method":"PUT","url":"Practitioner/47a2812f-9116-4fc7-b342-81ef461fe0e4"}},{"fullUrl":"https://madie.cms.gov/MeasureReport/595d8f16-ff29-4dec-a359-920b46a6bd95","resource":{"resourceType":"MeasureReport","id":"595d8f16-ff29-4dec-a359-920b46a6bd95","meta":{"profile":["http://hl7.org/fhir/us/cqfmeasures/StructureDefinition/test-case-cqfm"]},"contained":[{"resourceType":"Parameters","id":"be575a8e-57b8-446a-881e-892567087100-parameters","parameter":[{"name":"subject","valueString":"663f65ef-8b51-4a5c-a18f-570677441fd1"}]}],"extension":[{"url":"http://hl7.org/fhir/us/cqfmeasures/StructureDefinition/cqfm-inputParameters","valueReference":{"reference":"#be575a8e-57b8-446a-881e-892567087100-parameters"}},{"url":"http://hl7.org/fhir/us/cqfmeasures/StructureDefinition/cqfm-testCaseDescription","valueMarkdown":"EGA 43 weeks; Enc Dx Abnormal presentation, gravida 1\n"}],"modifierExtension":[{"url":"http://hl7.org/fhir/us/cqfmeasures/StructureDefinition/cqfm-isTestCase","valueBoolean":true}],"status":"complete","type":"individual","measure":"https://madie.cms.gov/Measure/CesareanBirthFHIR","period":{"start":"2025-01-01","end":"2025-12-31"},"group":[{"population":[{"code":{"coding":[{"system":"http://terminology.hl7.org/CodeSystem/measure-population","code":"initial-population","display":"Initial Population"}]},"count":1},{"code":{"coding":[{"system":"http://terminology.hl7.org/CodeSystem/measure-population","code":"denominator","display":"Denominator"}]},"count":1},{"code":{"coding":[{"system":"http://terminology.hl7.org/CodeSystem/measure-population","code":"denominator-exclusion","display":"Denominator Exclusion"}]},"count":1},{"code":{"coding":[{"system":"http://terminology.hl7.org/CodeSystem/measure-population","code":"numerator","display":"Numerator"}]},"count":0}]}]},"request":{"method":"PUT","url":"MeasureReport/595d8f16-ff29-4dec-a359-920b46a6bd95"}}]}