{"resourceType":"Bundle","id":"tests-c2f10a34-81ed-4bf0-93ac-fed868ada54b-bundle","type":"transaction","entry":[{"fullUrl":"https://madie.cms.gov/Patient/c2f10a34-81ed-4bf0-93ac-fed868ada54b","resource":{"resourceType":"Patient","id":"c2f10a34-81ed-4bf0-93ac-fed868ada54b","meta":{"profile":["http://hl7.org/fhir/us/qicore/StructureDefinition/qicore-patient"]},"text":{"status":"generated","div":"<div xmlns=\"http://www.w3.org/1999/xhtml\"><div class=\"hapiHeaderText\">DelivEncDxNotSing <b>DENFAIL </b></div><table class=\"hapiPropertyTable\"><tbody><tr><td>Identifier</td><td>1ab9ef48e0c90ff3dc9111dd796761e98e296a234123a2d0da91bfa01b2d25ee</td></tr><tr><td>Date of birth</td><td><span>14 February 1985</span></td></tr></tbody></table></div>"},"extension":[{"url":"http://hl7.org/fhir/us/core/StructureDefinition/us-core-race","extension":[{"url":"ombCategory","valueCoding":{"system":"urn:oid:2.16.840.1.113883.6.238","code":"1002-5","display":"American Indian or Alaska Native","userSelected":true}},{"url":"text","valueString":"American Indian or Alaska Native"}]},{"url":"http://hl7.org/fhir/us/core/StructureDefinition/us-core-ethnicity","extension":[{"url":"ombCategory","valueCoding":{"system":"urn:oid:2.16.840.1.113883.6.238","code":"2135-2","display":"Hispanic or Latino","userSelected":true}},{"url":"text","valueString":"Hispanic or Latino"}]}],"identifier":[{"type":{"coding":[{"system":"http://terminology.hl7.org/CodeSystem/v2-0203","code":"MR"}]},"system":"https://bonnie-fhir.healthit.gov/","value":"63487c2f0968f80122540196"}],"active":true,"name":[{"use":"usual","family":"DENFail","given":["DelivEncDxNotSing"]}],"gender":"female","birthDate":"1997-02-14"},"request":{"method":"PUT","url":"Patient/c2f10a34-81ed-4bf0-93ac-fed868ada54b"}},{"fullUrl":"https://madie.cms.gov/Observation/5d014eb3b8484608723806d9","resource":{"resourceType":"Observation","id":"a7c84902-ab6d-40e9-b286-45d5e965592d","meta":{"profile":["http://hl7.org/fhir/us/qicore/StructureDefinition/qicore-observation"]},"status":"final","category":[{"coding":[{"system":"http://terminology.hl7.org/CodeSystem/observation-category","code":"exam","display":"exam","userSelected":true}]}],"code":{"coding":[{"system":"http://loinc.org","code":"11996-6"}]},"subject":{"reference":"Patient/c2f10a34-81ed-4bf0-93ac-fed868ada54b"},"effectiveDateTime":"2025-02-09T08:00:00.000+00:00","valueInteger":1},"request":{"method":"PUT","url":"Observation/a7c84902-ab6d-40e9-b286-45d5e965592d"}},{"fullUrl":"https://madie.cms.gov/Observation/5d014eb3b8484608723806dc","resource":{"resourceType":"Observation","id":"87126a9b-0c1f-4fa1-b7b4-be9c91af57ce","meta":{"profile":["http://hl7.org/fhir/us/qicore/StructureDefinition/qicore-observation"]},"status":"final","category":[{"coding":[{"system":"http://terminology.hl7.org/CodeSystem/observation-category","code":"exam","display":"exam","userSelected":true}]}],"code":{"coding":[{"system":"http://loinc.org","code":"11884-4"}]},"subject":{"reference":"Patient/c2f10a34-81ed-4bf0-93ac-fed868ada54b"},"effectiveDateTime":"2025-11-28T21:15:00.000+00:00","valueQuantity":{"value":40.0,"system":"http://unitsofmeasure.org","code":"weeks"}},"request":{"method":"PUT","url":"Observation/87126a9b-0c1f-4fa1-b7b4-be9c91af57ce"}},{"fullUrl":"https://madie.cms.gov/Observation/5e6974ea7ffec70000323354","resource":{"resourceType":"Observation","id":"8744b4fb-f423-4542-9893-56753d78fa8d","meta":{"profile":["http://hl7.org/fhir/us/qicore/StructureDefinition/qicore-observation"]},"status":"final","category":[{"coding":[{"system":"http://terminology.hl7.org/CodeSystem/observation-category","code":"exam","display":"exam","userSelected":true}]}],"code":{"coding":[{"system":"http://loinc.org","code":"93857-1"}]},"subject":{"reference":"Patient/c2f10a34-81ed-4bf0-93ac-fed868ada54b"},"effectiveDateTime":"2025-11-28T21:15:00.000+00:00","valueDateTime":"2025-11-28T21:15:00+00:00"},"request":{"method":"PUT","url":"Observation/8744b4fb-f423-4542-9893-56753d78fa8d"}},{"fullUrl":"https://madie.cms.gov/Encounter/5d014eb3b8484608723806d7","resource":{"resourceType":"Encounter","id":"b2ef5335-33ef-448d-86a1-c4ba78edc245","meta":{"profile":["http://hl7.org/fhir/us/qicore/StructureDefinition/qicore-encounter"]},"status":"finished","class":{"system":"http://terminology.hl7.org/CodeSystem/v3-ActCode","code":"IMP","display":"inpatient encounter"},"type":[{"coding":[{"system":"http://snomed.info/sct","code":"8715000"}]}],"subject":{"reference":"Patient/c2f10a34-81ed-4bf0-93ac-fed868ada54b"},"period":{"start":"2025-11-28T08:00:00.000Z","end":"2025-11-30T08:15:00.000Z"},"length":{"value":2.0,"unit":"days"},"diagnosis":[{"condition":{"reference":"Condition/Cornual Ectopic Pregnancy"},"use":{"coding":[{"system":"http://snomed.info/sct","code":"87605005","display":"Cornual Ectopic Pregnancy"}]}}]},"request":{"method":"PUT","url":"Encounter/b2ef5335-33ef-448d-86a1-c4ba78edc245"}},{"fullUrl":"https://madie.cms.gov/Procedure/5d014eb3b8484608723806d8","resource":{"resourceType":"Procedure","id":"3ff8795b-d790-4e8d-89e1-a0d95516a9ef","meta":{"profile":["http://hl7.org/fhir/us/qicore/StructureDefinition/qicore-procedure"]},"extension":[{"url":"http://hl7.org/fhir/us/qicore/StructureDefinition/qicore-recorded","valueDateTime":"2013-04-05T09:35:00-04:00"}],"status":"completed","code":{"coding":[{"system":"http://www.cms.gov/Medicare/Coding/ICD10","code":"10D00Z0"},{"system":"http://www.icd10data.com/icd10pcs","code":"10D00Z0","userSelected":true}]},"subject":{"reference":"Patient/c2f10a34-81ed-4bf0-93ac-fed868ada54b"},"performedPeriod":{"start":"2025-11-28T20:00:00.000Z","end":"2025-11-28T20:15:00.000Z"}},"request":{"method":"PUT","url":"Procedure/3ff8795b-d790-4e8d-89e1-a0d95516a9ef"}},{"fullUrl":"https://madie.cms.gov/Coverage/1","resource":{"resourceType":"Coverage","id":"0b80fd23-2793-4f92-add2-a3180e36a9ac","meta":{"profile":["http://hl7.org/fhir/us/qicore/StructureDefinition/qicore-coverage"]},"status":"active","beneficiary":{"reference":"Patient/c2f10a34-81ed-4bf0-93ac-fed868ada54b"},"payor":[{"reference":"Organization/80e3e0d1-b2aa-43a6-b1d2-00bfa3164a0f"}]},"request":{"method":"PUT","url":"Coverage/0b80fd23-2793-4f92-add2-a3180e36a9ac"}},{"fullUrl":"https://madie.cms.gov/Organization/123456","resource":{"resourceType":"Organization","id":"80e3e0d1-b2aa-43a6-b1d2-00bfa3164a0f","meta":{"profile":["http://hl7.org/fhir/us/qicore/StructureDefinition/qicore-organization"]},"identifier":[{"use":"temp","system":"urn:oid:2.16.840.1.113883.4.4","value":"21-3259825"}],"active":true,"type":[{"coding":[{"system":"http://terminology.hl7.org/CodeSystem/organization-type","code":"pay","display":"Payer"}]}],"name":"Blue Cross Blue Shield of Texas","telecom":[{"system":"phone","value":"(+1) 972-766-6900"}],"address":[{"use":"billing","type":"postal","line":["P.O. Box 660044"],"city":"Dallas","state":"TX","postalCode":"75266-0044","country":"USA"}]},"request":{"method":"PUT","url":"Organization/80e3e0d1-b2aa-43a6-b1d2-00bfa3164a0f"}},{"fullUrl":"https://madie.cms.gov/Practitioner/practitioner-123456","resource":{"resourceType":"Practitioner","id":"9a2eda4f-a073-44f4-ad2f-d7663b7a1f5e","identifier":[{"system":"http://hl7.org/fhir/sid/us-npi","value":"123456"}],"name":[{"family":"Evil","prefix":["Dr"]}]},"request":{"method":"PUT","url":"Practitioner/9a2eda4f-a073-44f4-ad2f-d7663b7a1f5e"}},{"fullUrl":"https://madie.cms.gov/MeasureReport/90f10704-4992-4c08-a9d2-029428d0bdb3","resource":{"resourceType":"MeasureReport","id":"90f10704-4992-4c08-a9d2-029428d0bdb3","meta":{"profile":["http://hl7.org/fhir/us/cqfmeasures/StructureDefinition/test-case-cqfm"]},"contained":[{"resourceType":"Parameters","id":"2c133adc-86a5-4bd2-ad36-53fedf23bd7e-parameters","parameter":[{"name":"subject","valueString":"c2f10a34-81ed-4bf0-93ac-fed868ada54b"}]}],"extension":[{"url":"http://hl7.org/fhir/us/cqfmeasures/StructureDefinition/cqfm-inputParameters","valueReference":{"reference":"#2c133adc-86a5-4bd2-ad36-53fedf23bd7e-parameters"}},{"url":"http://hl7.org/fhir/us/cqfmeasures/StructureDefinition/cqfm-testCaseDescription","valueMarkdown":"Passes IP,; Gravida 1(auth 42 weeks)  and EGA 40 weeks; Not Singleton\n"}],"modifierExtension":[{"url":"http://hl7.org/fhir/us/cqfmeasures/StructureDefinition/cqfm-isTestCase","valueBoolean":true}],"status":"complete","type":"individual","measure":"https://madie.cms.gov/Measure/CesareanBirthFHIR","period":{"start":"2025-01-01","end":"2025-12-31"},"group":[{"population":[{"code":{"coding":[{"system":"http://terminology.hl7.org/CodeSystem/measure-population","code":"initial-population","display":"Initial Population"}]},"count":1},{"code":{"coding":[{"system":"http://terminology.hl7.org/CodeSystem/measure-population","code":"denominator","display":"Denominator"}]},"count":0},{"code":{"coding":[{"system":"http://terminology.hl7.org/CodeSystem/measure-population","code":"denominator-exclusion","display":"Denominator Exclusion"}]},"count":0},{"code":{"coding":[{"system":"http://terminology.hl7.org/CodeSystem/measure-population","code":"numerator","display":"Numerator"}]},"count":0}]}]},"request":{"method":"PUT","url":"MeasureReport/90f10704-4992-4c08-a9d2-029428d0bdb3"}}]}