{"resourceType":"Bundle","id":"tests-3c63b420-89fb-4062-9319-ea509a3192c8-bundle","type":"transaction","entry":[{"fullUrl":"https://madie.cms.gov/Patient/3c63b420-89fb-4062-9319-ea509a3192c8","resource":{"resourceType":"Patient","id":"3c63b420-89fb-4062-9319-ea509a3192c8","meta":{"profile":["http://hl7.org/fhir/us/qicore/StructureDefinition/qicore-patient"]},"text":{"status":"generated","div":"<div xmlns=\"http://www.w3.org/1999/xhtml\"><div class=\"hapiHeaderText\">ProcCsectEndEQDelivEncEnd <b>NUMPASS </b></div><table class=\"hapiPropertyTable\"><tbody><tr><td>Identifier</td><td>a67ba324e458907a26a4b913484bc8c56e2f861e5f9a2d3286226ca477cf0053</td></tr><tr><td>Date of birth</td><td><span>14 February 1985</span></td></tr></tbody></table></div>"},"extension":[{"url":"http://hl7.org/fhir/us/core/StructureDefinition/us-core-race","extension":[{"url":"ombCategory","valueCoding":{"system":"urn:oid:2.16.840.1.113883.6.238","code":"1002-5","display":"American Indian or Alaska Native","userSelected":true}},{"url":"text","valueString":"American Indian or Alaska Native"}]},{"url":"http://hl7.org/fhir/us/core/StructureDefinition/us-core-ethnicity","extension":[{"url":"ombCategory","valueCoding":{"system":"urn:oid:2.16.840.1.113883.6.238","code":"2135-2","display":"Hispanic or Latino","userSelected":true}},{"url":"text","valueString":"Hispanic or Latino"}]}],"identifier":[{"type":{"coding":[{"system":"http://terminology.hl7.org/CodeSystem/v2-0203","code":"MR"}]},"system":"https://bonnie-fhir.healthit.gov/","value":"63487c2d0968f80122540152"}],"active":true,"name":[{"use":"usual","family":"NUMPass","given":["ProcCsectEndEQDelivEncEnd"]}],"gender":"female","birthDate":"1997-02-14"},"request":{"method":"PUT","url":"Patient/3c63b420-89fb-4062-9319-ea509a3192c8"}},{"fullUrl":"https://madie.cms.gov/Observation/5d014eb1b84846087238051f","resource":{"resourceType":"Observation","id":"598b8150-04fd-4184-8d5c-38a9b2561cef","meta":{"profile":["http://hl7.org/fhir/us/qicore/StructureDefinition/qicore-observation"]},"status":"final","category":[{"coding":[{"system":"http://terminology.hl7.org/CodeSystem/observation-category","code":"exam","display":"exam","userSelected":true}]}],"code":{"coding":[{"system":"http://loinc.org","code":"11996-6"}]},"subject":{"reference":"Patient/3c63b420-89fb-4062-9319-ea509a3192c8"},"effectiveDateTime":"2025-02-09T08:00:00.000+00:00","valueInteger":1},"request":{"method":"PUT","url":"Observation/598b8150-04fd-4184-8d5c-38a9b2561cef"}},{"fullUrl":"https://madie.cms.gov/Observation/5d014eb1b848460872380521","resource":{"resourceType":"Observation","id":"002809dd-bf94-46a9-9d29-0d1101b74e31","meta":{"profile":["http://hl7.org/fhir/us/qicore/StructureDefinition/qicore-observation"]},"status":"final","category":[{"coding":[{"system":"http://terminology.hl7.org/CodeSystem/observation-category","code":"exam","display":"exam","userSelected":true}]}],"code":{"coding":[{"system":"http://loinc.org","code":"11884-4"}]},"subject":{"reference":"Patient/3c63b420-89fb-4062-9319-ea509a3192c8"},"effectiveDateTime":"2025-11-28T21:15:00.000+00:00","valueQuantity":{"value":40.0,"system":"http://unitsofmeasure.org","code":"weeks"}},"request":{"method":"PUT","url":"Observation/002809dd-bf94-46a9-9d29-0d1101b74e31"}},{"fullUrl":"https://madie.cms.gov/Observation/5e6941727ffec7000031f7ea","resource":{"resourceType":"Observation","id":"eeb53eeb-ca69-452a-a47d-abaa1b10aa79","meta":{"profile":["http://hl7.org/fhir/us/qicore/StructureDefinition/qicore-observation"]},"status":"final","category":[{"coding":[{"system":"http://terminology.hl7.org/CodeSystem/observation-category","code":"exam","display":"exam","userSelected":true}]}],"code":{"coding":[{"system":"http://loinc.org","code":"93857-1"}]},"subject":{"reference":"Patient/3c63b420-89fb-4062-9319-ea509a3192c8"},"effectiveDateTime":"2025-11-28T21:15:00.000+00:00","valueDateTime":"2025-11-28T21:15:00+00:00"},"request":{"method":"PUT","url":"Observation/eeb53eeb-ca69-452a-a47d-abaa1b10aa79"}},{"fullUrl":"https://madie.cms.gov/Encounter/5d014eb1b84846087238051d","resource":{"resourceType":"Encounter","id":"c71000ab-2ab9-4f24-a860-858c1730cd2c","meta":{"profile":["http://hl7.org/fhir/us/qicore/StructureDefinition/qicore-encounter"]},"status":"finished","class":{"system":"http://terminology.hl7.org/CodeSystem/v3-ActCode","code":"IMP","display":"inpatient encounter"},"type":[{"coding":[{"system":"http://snomed.info/sct","code":"8715000"}]}],"subject":{"reference":"Patient/3c63b420-89fb-4062-9319-ea509a3192c8"},"period":{"start":"2025-11-28T08:00:00.000Z","end":"2025-11-30T08:15:00.000Z"},"diagnosis":[{"condition":{"reference":"Condition/delivery-of-singleton-df6e"}}]},"request":{"method":"PUT","url":"Encounter/c71000ab-2ab9-4f24-a860-858c1730cd2c"}},{"fullUrl":"https://madie.cms.gov/Procedure/5d014eb1b84846087238051e","resource":{"resourceType":"Procedure","id":"cbeaff65-9774-4301-a04a-3ed06fa59033","meta":{"profile":["http://hl7.org/fhir/us/qicore/StructureDefinition/qicore-procedure"]},"extension":[{"url":"http://hl7.org/fhir/us/qicore/StructureDefinition/qicore-recorded","valueDateTime":"2013-04-05T09:35:00-04:00"}],"status":"completed","code":{"coding":[{"system":"http://www.cms.gov/Medicare/Coding/ICD10","code":"10D00Z1"},{"system":"http://www.icd10data.com/icd10pcs","code":"10D00Z1","userSelected":true}]},"subject":{"reference":"Patient/3c63b420-89fb-4062-9319-ea509a3192c8"},"performedPeriod":{"start":"2025-11-30T07:00:00.000Z","end":"2025-11-30T08:15:00.000Z"}},"request":{"method":"PUT","url":"Procedure/cbeaff65-9774-4301-a04a-3ed06fa59033"}},{"fullUrl":"https://madie.cms.gov/Condition/delivery-of-singleton-df6e","resource":{"resourceType":"Condition","id":"7f082a0e-70c1-4cfd-b840-0d723b6b9f5b","meta":{"profile":["http://hl7.org/fhir/us/qicore/StructureDefinition/qicore-condition"]},"category":[{"coding":[{"system":"http://terminology.hl7.org/CodeSystem/condition-category","code":"encounter-diagnosis","display":"Encounter Diagnosis"}]}],"code":{"coding":[{"system":"http://snomed.info/sct","version":"2022-09","code":"169826009","display":"Single live birth (finding)","userSelected":true}]},"subject":{"reference":"Patient/3c63b420-89fb-4062-9319-ea509a3192c8"},"recordedDate":"2025-10-17T08:00:00.000+00:00"},"request":{"method":"PUT","url":"Condition/7f082a0e-70c1-4cfd-b840-0d723b6b9f5b"}},{"fullUrl":"https://madie.cms.gov/Coverage/1","resource":{"resourceType":"Coverage","id":"dd7b96d2-f270-4d66-bc29-5cf8731858eb","meta":{"profile":["http://hl7.org/fhir/us/qicore/StructureDefinition/qicore-coverage"]},"status":"active","beneficiary":{"reference":"Patient/3c63b420-89fb-4062-9319-ea509a3192c8"},"payor":[{"reference":"Organization/4d7da20f-8773-4347-8f6b-80adcdcee1f4"}]},"request":{"method":"PUT","url":"Coverage/dd7b96d2-f270-4d66-bc29-5cf8731858eb"}},{"fullUrl":"https://madie.cms.gov/Organization/123456","resource":{"resourceType":"Organization","id":"4d7da20f-8773-4347-8f6b-80adcdcee1f4","meta":{"profile":["http://hl7.org/fhir/us/qicore/StructureDefinition/qicore-organization"]},"identifier":[{"use":"temp","system":"urn:oid:2.16.840.1.113883.4.4","value":"21-3259825"}],"active":true,"type":[{"coding":[{"system":"http://terminology.hl7.org/CodeSystem/organization-type","code":"pay","display":"Payer"}]}],"name":"Blue Cross Blue Shield of Texas","telecom":[{"system":"phone","value":"(+1) 972-766-6900"}],"address":[{"use":"billing","type":"postal","line":["P.O. Box 660044"],"city":"Dallas","state":"TX","postalCode":"75266-0044","country":"USA"}]},"request":{"method":"PUT","url":"Organization/4d7da20f-8773-4347-8f6b-80adcdcee1f4"}},{"fullUrl":"https://madie.cms.gov/Practitioner/practitioner-123456","resource":{"resourceType":"Practitioner","id":"c72c0d29-e4cc-473e-b832-7bf1b822572b","identifier":[{"system":"http://hl7.org/fhir/sid/us-npi","value":"123456"}],"name":[{"family":"Evil","prefix":["Dr"]}]},"request":{"method":"PUT","url":"Practitioner/c72c0d29-e4cc-473e-b832-7bf1b822572b"}},{"fullUrl":"https://madie.cms.gov/MeasureReport/b7b6a438-2274-4230-a9b5-3328a3589f9f","resource":{"resourceType":"MeasureReport","id":"b7b6a438-2274-4230-a9b5-3328a3589f9f","meta":{"profile":["http://hl7.org/fhir/us/cqfmeasures/StructureDefinition/test-case-cqfm"]},"contained":[{"resourceType":"Parameters","id":"ee46e820-6073-4d34-889f-a20e0cf1c1a8-parameters","parameter":[{"name":"subject","valueString":"3c63b420-89fb-4062-9319-ea509a3192c8"}]}],"extension":[{"url":"http://hl7.org/fhir/us/cqfmeasures/StructureDefinition/cqfm-inputParameters","valueReference":{"reference":"#ee46e820-6073-4d34-889f-a20e0cf1c1a8-parameters"}},{"url":"http://hl7.org/fhir/us/cqfmeasures/StructureDefinition/cqfm-testCaseDescription","valueMarkdown":"Passes IP, DEN, NUM; Gravida 1(effective date 42 weeks)  and EGA 40 weeks;  End of Proc Csect equals end of Delivery Encounter."}],"modifierExtension":[{"url":"http://hl7.org/fhir/us/cqfmeasures/StructureDefinition/cqfm-isTestCase","valueBoolean":true}],"status":"complete","type":"individual","measure":"https://madie.cms.gov/Measure/CesareanBirthFHIR","period":{"start":"2025-01-01","end":"2025-12-31"},"group":[{"population":[{"code":{"coding":[{"system":"http://terminology.hl7.org/CodeSystem/measure-population","code":"initial-population","display":"Initial Population"}]},"count":1},{"code":{"coding":[{"system":"http://terminology.hl7.org/CodeSystem/measure-population","code":"denominator","display":"Denominator"}]},"count":1},{"code":{"coding":[{"system":"http://terminology.hl7.org/CodeSystem/measure-population","code":"denominator-exclusion","display":"Denominator Exclusion"}]},"count":0},{"code":{"coding":[{"system":"http://terminology.hl7.org/CodeSystem/measure-population","code":"numerator","display":"Numerator"}]},"count":1}]}]},"request":{"method":"PUT","url":"MeasureReport/b7b6a438-2274-4230-a9b5-3328a3589f9f"}}]}