{"resourceType":"Bundle","id":"tests-faa0909e-a3b5-4fb2-885a-e8ddd20b9ab0-bundle","type":"transaction","entry":[{"fullUrl":"https://madie.cms.gov/Patient/faa0909e-a3b5-4fb2-885a-e8ddd20b9ab0","resource":{"resourceType":"Patient","id":"faa0909e-a3b5-4fb2-885a-e8ddd20b9ab0","meta":{"profile":["http://hl7.org/fhir/us/qicore/StructureDefinition/qicore-patient"]},"text":{"status":"generated","div":"<div xmlns=\"http://www.w3.org/1999/xhtml\"><div class=\"hapiHeaderText\">AssessPreTermMissingResult <b>DENFAIL </b></div><table class=\"hapiPropertyTable\"><tbody><tr><td>Identifier</td><td>68ae6e24f0fface97c058e998841dc5fd1e621f11f5d5bc2aeef1a3a248ebc14</td></tr><tr><td>Date of birth</td><td><span>14 February 1985</span></td></tr></tbody></table></div>"},"extension":[{"url":"http://hl7.org/fhir/us/core/StructureDefinition/us-core-race","extension":[{"url":"ombCategory","valueCoding":{"system":"urn:oid:2.16.840.1.113883.6.238","code":"1002-5","display":"American Indian or Alaska Native","userSelected":true}},{"url":"text","valueString":"American Indian or Alaska Native"}]},{"url":"http://hl7.org/fhir/us/core/StructureDefinition/us-core-ethnicity","extension":[{"url":"ombCategory","valueCoding":{"system":"urn:oid:2.16.840.1.113883.6.238","code":"2135-2","display":"Hispanic or Latino","userSelected":true}},{"url":"text","valueString":"Hispanic or Latino"}]}],"identifier":[{"type":{"coding":[{"system":"http://terminology.hl7.org/CodeSystem/v2-0203","code":"MR"}]},"system":"https://bonnie-fhir.healthit.gov/","value":"63487c300968f801225401bd"}],"active":true,"name":[{"use":"usual","family":"DENFail","given":["AssessPreTermMissingResult"]}],"gender":"female","birthDate":"1997-02-14"},"request":{"method":"PUT","url":"Patient/faa0909e-a3b5-4fb2-885a-e8ddd20b9ab0"}},{"fullUrl":"https://madie.cms.gov/Observation/5d014eb2b848460872380652","resource":{"resourceType":"Observation","id":"93c0ca40-31d1-41fd-9f9e-634523dbc101","meta":{"profile":["http://hl7.org/fhir/us/qicore/StructureDefinition/qicore-observation"]},"status":"final","category":[{"coding":[{"system":"http://terminology.hl7.org/CodeSystem/observation-category","code":"exam","display":"exam","userSelected":true}]}],"code":{"coding":[{"system":"http://loinc.org","code":"11639-2"}]},"subject":{"reference":"Patient/faa0909e-a3b5-4fb2-885a-e8ddd20b9ab0"},"effectiveDateTime":"2024-09-19T09:00:00.000+00:00","valueInteger":0},"request":{"method":"PUT","url":"Observation/93c0ca40-31d1-41fd-9f9e-634523dbc101"}},{"fullUrl":"https://madie.cms.gov/Observation/5d014eb2b848460872380656","resource":{"resourceType":"Observation","id":"4a3757d3-4c46-4d5b-8219-ca83656458ed","meta":{"profile":["http://hl7.org/fhir/us/qicore/StructureDefinition/qicore-observation"]},"status":"final","category":[{"coding":[{"system":"http://terminology.hl7.org/CodeSystem/observation-category","code":"exam","display":"exam","userSelected":true}]}],"code":{"coding":[{"system":"http://loinc.org","code":"11884-4"}]},"subject":{"reference":"Patient/faa0909e-a3b5-4fb2-885a-e8ddd20b9ab0"},"effectiveDateTime":"2025-06-08T20:00:00.000+00:00","valueQuantity":{"value":37.0,"system":"http://unitsofmeasure.org","code":"weeks"}},"request":{"method":"PUT","url":"Observation/4a3757d3-4c46-4d5b-8219-ca83656458ed"}},{"fullUrl":"https://madie.cms.gov/Observation/5e692f8b7ffec7000031dd09","resource":{"resourceType":"Observation","id":"3dfdeec4-bb3f-44ac-ab77-cc5acf734f6f","meta":{"profile":["http://hl7.org/fhir/us/qicore/StructureDefinition/qicore-observation"]},"status":"final","category":[{"coding":[{"system":"http://terminology.hl7.org/CodeSystem/observation-category","code":"exam","display":"exam","userSelected":true}]}],"code":{"coding":[{"system":"http://loinc.org","code":"93857-1"}]},"subject":{"reference":"Patient/faa0909e-a3b5-4fb2-885a-e8ddd20b9ab0"},"effectiveDateTime":"2025-06-08T20:00:00.000+00:00","valueDateTime":"2025-06-08T20:00:00+00:00"},"request":{"method":"PUT","url":"Observation/3dfdeec4-bb3f-44ac-ab77-cc5acf734f6f"}},{"fullUrl":"https://madie.cms.gov/Observation/5e95bbee44339f0000e68c60","resource":{"resourceType":"Observation","id":"98d42f45-7386-4699-9b49-b578e6235345","meta":{"profile":["http://hl7.org/fhir/us/qicore/StructureDefinition/qicore-observation"]},"status":"final","category":[{"coding":[{"system":"http://terminology.hl7.org/CodeSystem/observation-category","code":"exam","display":"exam","userSelected":true}]}],"code":{"coding":[{"system":"http://loinc.org","code":"11637-6"}]},"subject":{"reference":"Patient/faa0909e-a3b5-4fb2-885a-e8ddd20b9ab0"}},"request":{"method":"PUT","url":"Observation/98d42f45-7386-4699-9b49-b578e6235345"}},{"fullUrl":"https://madie.cms.gov/Encounter/5d014eb2b848460872380650","resource":{"resourceType":"Encounter","id":"1e1c8dbe-5577-41b7-8bab-e13f14cb56ba","meta":{"profile":["http://hl7.org/fhir/us/qicore/StructureDefinition/qicore-encounter"]},"status":"finished","class":{"system":"http://terminology.hl7.org/CodeSystem/v3-ActCode","code":"IMP","display":"inpatient encounter"},"type":[{"coding":[{"system":"http://snomed.info/sct","code":"8715000"}]}],"subject":{"reference":"Patient/faa0909e-a3b5-4fb2-885a-e8ddd20b9ab0"},"period":{"start":"2025-06-08T08:00:00.000Z","end":"2025-06-10T08:15:00.000Z"},"length":{"value":2.0,"unit":"days"},"diagnosis":[{"condition":{"reference":"Condition/delivery-of-singleton-f83c"},"use":{"coding":[{"system":"http://snomed.info/sct","code":"169826009","display":"Delivery of Singleton"}]}},{"condition":{"reference":"Condition/delivery-of-singleton-4b16"}}]},"request":{"method":"PUT","url":"Encounter/1e1c8dbe-5577-41b7-8bab-e13f14cb56ba"}},{"fullUrl":"https://madie.cms.gov/Procedure/5d014eb2b848460872380651","resource":{"resourceType":"Procedure","id":"beb242af-140e-4298-ac8b-f6dbcae68a08","meta":{"profile":["http://hl7.org/fhir/us/qicore/StructureDefinition/qicore-procedure"]},"extension":[{"url":"http://hl7.org/fhir/us/qicore/StructureDefinition/qicore-recorded","valueDateTime":"2013-04-05T09:35:00-04:00"}],"status":"completed","code":{"coding":[{"system":"http://www.cms.gov/Medicare/Coding/ICD10","code":"10D00Z0"},{"system":"http://snomed.info/sct","code":"4504004"},{"system":"http://www.icd10data.com/icd10pcs","code":"10D00Z0","userSelected":true}]},"subject":{"reference":"Patient/faa0909e-a3b5-4fb2-885a-e8ddd20b9ab0"},"performedPeriod":{"start":"2025-06-08T20:00:00.000Z","end":"2025-06-08T20:15:00.000Z"}},"request":{"method":"PUT","url":"Procedure/beb242af-140e-4298-ac8b-f6dbcae68a08"}},{"fullUrl":"https://madie.cms.gov/Condition/delivery-of-singleton-4b16","resource":{"resourceType":"Condition","id":"09100982-d27b-4d4b-9f4c-0eeea420fe8f","meta":{"profile":["http://hl7.org/fhir/us/qicore/StructureDefinition/qicore-condition"]},"category":[{"coding":[{"system":"http://terminology.hl7.org/CodeSystem/condition-category","code":"encounter-diagnosis","display":"Encounter Diagnosis"}]}],"code":{"coding":[{"system":"http://snomed.info/sct","version":"2022-09","code":"169826009","display":"Single live birth (finding)","userSelected":true}]},"subject":{"reference":"Patient/faa0909e-a3b5-4fb2-885a-e8ddd20b9ab0"},"recordedDate":"2025-10-21T08:00:00.000+00:00"},"request":{"method":"PUT","url":"Condition/09100982-d27b-4d4b-9f4c-0eeea420fe8f"}},{"fullUrl":"https://madie.cms.gov/Coverage/1","resource":{"resourceType":"Coverage","id":"adfba208-6112-4e24-ad1e-3bedd8af88aa","meta":{"profile":["http://hl7.org/fhir/us/qicore/StructureDefinition/qicore-coverage"]},"status":"active","beneficiary":{"reference":"Patient/faa0909e-a3b5-4fb2-885a-e8ddd20b9ab0"},"payor":[{"reference":"Organization/80e3e0d1-b2aa-43a6-b1d2-00bfa3164a0f"}]},"request":{"method":"PUT","url":"Coverage/adfba208-6112-4e24-ad1e-3bedd8af88aa"}},{"fullUrl":"https://madie.cms.gov/Organization/123456","resource":{"resourceType":"Organization","id":"80e3e0d1-b2aa-43a6-b1d2-00bfa3164a0f","meta":{"profile":["http://hl7.org/fhir/us/qicore/StructureDefinition/qicore-organization"]},"identifier":[{"use":"temp","system":"urn:oid:2.16.840.1.113883.4.4","value":"21-3259825"}],"active":true,"type":[{"coding":[{"system":"http://terminology.hl7.org/CodeSystem/organization-type","code":"pay","display":"Payer"}]}],"name":"Blue Cross Blue Shield of Texas","telecom":[{"system":"phone","value":"(+1) 972-766-6900"}],"address":[{"use":"billing","type":"postal","line":["P.O. Box 660044"],"city":"Dallas","state":"TX","postalCode":"75266-0044","country":"USA"}]},"request":{"method":"PUT","url":"Organization/80e3e0d1-b2aa-43a6-b1d2-00bfa3164a0f"}},{"fullUrl":"https://madie.cms.gov/Practitioner/practitioner-123456","resource":{"resourceType":"Practitioner","id":"c3c1c116-4cd7-4770-958e-9531e5798be7","identifier":[{"system":"http://hl7.org/fhir/sid/us-npi","value":"123456"}],"name":[{"family":"Evil","prefix":["Dr"]}]},"request":{"method":"PUT","url":"Practitioner/c3c1c116-4cd7-4770-958e-9531e5798be7"}},{"fullUrl":"https://madie.cms.gov/MeasureReport/28db9313-0d4b-4b25-baf8-71ff5dade87f","resource":{"resourceType":"MeasureReport","id":"28db9313-0d4b-4b25-baf8-71ff5dade87f","meta":{"profile":["http://hl7.org/fhir/us/cqfmeasures/StructureDefinition/test-case-cqfm"]},"contained":[{"resourceType":"Parameters","id":"99877a02-c74c-4c61-9238-c03587547908-parameters","parameter":[{"name":"subject","valueString":"faa0909e-a3b5-4fb2-885a-e8ddd20b9ab0"}]}],"extension":[{"url":"http://hl7.org/fhir/us/cqfmeasures/StructureDefinition/cqfm-inputParameters","valueReference":{"reference":"#99877a02-c74c-4c61-9238-c03587547908-parameters"}},{"url":"http://hl7.org/fhir/us/cqfmeasures/StructureDefinition/cqfm-testCaseDescription","valueMarkdown":"\"Preterm Births missing result, relevant date/time before Asse delivery datetime\nTerm Newborn=0, authored < 42weeks prior to Asse delivery\"\n"}],"modifierExtension":[{"url":"http://hl7.org/fhir/us/cqfmeasures/StructureDefinition/cqfm-isTestCase","valueBoolean":true}],"status":"complete","type":"individual","measure":"https://madie.cms.gov/Measure/CesareanBirthFHIR","period":{"start":"2025-01-01","end":"2025-12-31"},"group":[{"population":[{"code":{"coding":[{"system":"http://terminology.hl7.org/CodeSystem/measure-population","code":"initial-population","display":"Initial Population"}]},"count":1},{"code":{"coding":[{"system":"http://terminology.hl7.org/CodeSystem/measure-population","code":"denominator","display":"Denominator"}]},"count":0},{"code":{"coding":[{"system":"http://terminology.hl7.org/CodeSystem/measure-population","code":"denominator-exclusion","display":"Denominator Exclusion"}]},"count":0},{"code":{"coding":[{"system":"http://terminology.hl7.org/CodeSystem/measure-population","code":"numerator","display":"Numerator"}]},"count":0}]}]},"request":{"method":"PUT","url":"MeasureReport/28db9313-0d4b-4b25-baf8-71ff5dade87f"}}]}