{"resourceType":"Bundle","id":"tests-848869fc-b6bc-41cb-b441-cfba930e2cc4-bundle","type":"transaction","entry":[{"fullUrl":"https://madie.cms.gov/Patient/848869fc-b6bc-41cb-b441-cfba930e2cc4","resource":{"resourceType":"Patient","id":"848869fc-b6bc-41cb-b441-cfba930e2cc4","meta":{"profile":["http://hl7.org/fhir/us/qicore/StructureDefinition/qicore-patient"]},"text":{"status":"generated","div":"<div xmlns=\"http://www.w3.org/1999/xhtml\"><div class=\"hapiHeaderText\">AssessG1RelDtTimeLTTimeOfDelivRelDtTime <b>DENPASS </b></div><table class=\"hapiPropertyTable\"><tbody><tr><td>Identifier</td><td>919742ce7259ec7b9de1654b5e814cf859dc5253e7d4839ac3b7c6fbe1734140</td></tr><tr><td>Date of birth</td><td><span>14 February 1985</span></td></tr></tbody></table></div>"},"extension":[{"url":"http://hl7.org/fhir/us/core/StructureDefinition/us-core-race","extension":[{"url":"ombCategory","valueCoding":{"system":"urn:oid:2.16.840.1.113883.6.238","code":"1002-5","display":"American Indian or Alaska Native","userSelected":true}},{"url":"text","valueString":"American Indian or Alaska Native"}]},{"url":"http://hl7.org/fhir/us/core/StructureDefinition/us-core-ethnicity","extension":[{"url":"ombCategory","valueCoding":{"system":"urn:oid:2.16.840.1.113883.6.238","code":"2135-2","display":"Hispanic or Latino","userSelected":true}},{"url":"text","valueString":"Hispanic or Latino"}]}],"identifier":[{"type":{"coding":[{"system":"http://terminology.hl7.org/CodeSystem/v2-0203","code":"MR"}]},"system":"https://bonnie-fhir.healthit.gov/","value":"63487c2e0968f80122540179"}],"active":true,"name":[{"use":"usual","family":"DENPass","given":["AssessG1RelDtTimeLTTimeOfDelivRelDtTime"]}],"gender":"female","birthDate":"1997-02-14"},"request":{"method":"PUT","url":"Patient/848869fc-b6bc-41cb-b441-cfba930e2cc4"}},{"fullUrl":"https://madie.cms.gov/Observation/5d014eb2b8484608723805bd","resource":{"resourceType":"Observation","id":"9bb1554b-0e1a-4b8e-9b2b-0345e8b64d44","meta":{"profile":["http://hl7.org/fhir/us/qicore/StructureDefinition/qicore-observation"]},"status":"final","category":[{"coding":[{"system":"http://terminology.hl7.org/CodeSystem/observation-category","code":"exam","display":"exam","userSelected":true}]}],"code":{"coding":[{"system":"http://loinc.org","code":"11884-4"}]},"subject":{"reference":"Patient/848869fc-b6bc-41cb-b441-cfba930e2cc4"},"effectiveDateTime":"2025-06-08T09:15:00.000+00:00","valueQuantity":{"value":38.0,"system":"http://unitsofmeasure.org","code":"weeks"}},"request":{"method":"PUT","url":"Observation/9bb1554b-0e1a-4b8e-9b2b-0345e8b64d44"}},{"fullUrl":"https://madie.cms.gov/Observation/5d014eb2b8484608723805bf","resource":{"resourceType":"Observation","id":"f8d60512-7155-408a-afed-ba5214b72ef1","meta":{"profile":["http://hl7.org/fhir/us/qicore/StructureDefinition/qicore-observation"]},"status":"final","category":[{"coding":[{"system":"http://terminology.hl7.org/CodeSystem/observation-category","code":"exam","display":"exam","userSelected":true}]}],"code":{"coding":[{"system":"http://loinc.org","code":"11996-6"}]},"subject":{"reference":"Patient/848869fc-b6bc-41cb-b441-cfba930e2cc4"},"effectiveDateTime":"2025-06-08T19:59:00.000+00:00","valueInteger":1},"request":{"method":"PUT","url":"Observation/f8d60512-7155-408a-afed-ba5214b72ef1"}},{"fullUrl":"https://madie.cms.gov/Observation/5e6168813e992300009b7069","resource":{"resourceType":"Observation","id":"bad6b973-f6b7-4320-b9e1-3176bdf34315","meta":{"profile":["http://hl7.org/fhir/us/qicore/StructureDefinition/qicore-observation"]},"status":"final","category":[{"coding":[{"system":"http://terminology.hl7.org/CodeSystem/observation-category","code":"exam","display":"exam","userSelected":true}]}],"code":{"coding":[{"system":"http://loinc.org","code":"93857-1"}]},"subject":{"reference":"Patient/848869fc-b6bc-41cb-b441-cfba930e2cc4"},"effectiveDateTime":"2025-06-08T20:00:00.000+00:00","valueDateTime":"2025-06-08T20:00:00+00:00"},"request":{"method":"PUT","url":"Observation/bad6b973-f6b7-4320-b9e1-3176bdf34315"}},{"fullUrl":"https://madie.cms.gov/Encounter/5d014eb2b8484608723805bb","resource":{"resourceType":"Encounter","id":"b70dc93d-5f6e-4f15-a43a-cbda89cd7792","meta":{"profile":["http://hl7.org/fhir/us/qicore/StructureDefinition/qicore-encounter"]},"status":"finished","class":{"system":"http://terminology.hl7.org/CodeSystem/v3-ActCode","code":"IMP","display":"inpatient encounter"},"type":[{"coding":[{"system":"http://snomed.info/sct","code":"183452005"}]}],"subject":{"reference":"Patient/848869fc-b6bc-41cb-b441-cfba930e2cc4"},"period":{"start":"2025-06-08T08:00:00.000Z","end":"2025-06-10T08:15:00.000Z"},"length":{"value":2.0,"unit":"days"},"diagnosis":[{"condition":{"reference":"Condition/delivery-of-singleton-f83c"},"use":{"coding":[{"system":"http://snomed.info/sct","code":"169826009","display":"Delivery of Singleton"}]}},{"condition":{"reference":"Condition/delivery-of-singleton-4d2a"}}]},"request":{"method":"PUT","url":"Encounter/b70dc93d-5f6e-4f15-a43a-cbda89cd7792"}},{"fullUrl":"https://madie.cms.gov/Procedure/5d014eb2b8484608723805bc","resource":{"resourceType":"Procedure","id":"d548c1fe-64a2-47f1-8dc5-a27ec048dea6","meta":{"profile":["http://hl7.org/fhir/us/qicore/StructureDefinition/qicore-procedure"]},"extension":[{"url":"http://hl7.org/fhir/us/qicore/StructureDefinition/qicore-recorded","valueDateTime":"2013-04-05T09:35:00-04:00"}],"status":"completed","code":{"coding":[{"system":"http://www.cms.gov/Medicare/Coding/ICD10","code":"10D07Z3"},{"system":"http://www.icd10data.com/icd10pcs","code":"10D07Z3","userSelected":true}]},"subject":{"reference":"Patient/848869fc-b6bc-41cb-b441-cfba930e2cc4"},"performedPeriod":{"start":"2025-06-08T08:10:00.000Z","end":"2025-06-08T09:14:00.000Z"}},"request":{"method":"PUT","url":"Procedure/d548c1fe-64a2-47f1-8dc5-a27ec048dea6"}},{"fullUrl":"https://madie.cms.gov/Condition/delivery-of-singleton-4d2a","resource":{"resourceType":"Condition","id":"ced4311f-bf58-4416-b627-704915341367","meta":{"profile":["http://hl7.org/fhir/us/qicore/StructureDefinition/qicore-condition"]},"category":[{"coding":[{"system":"http://terminology.hl7.org/CodeSystem/condition-category","code":"encounter-diagnosis","display":"Encounter Diagnosis"}]}],"code":{"coding":[{"system":"http://snomed.info/sct","version":"2022-09","code":"169826009","display":"Single live birth (finding)","userSelected":true}]},"subject":{"reference":"Patient/848869fc-b6bc-41cb-b441-cfba930e2cc4"},"recordedDate":"2025-10-18T08:00:00.000+00:00"},"request":{"method":"PUT","url":"Condition/ced4311f-bf58-4416-b627-704915341367"}},{"fullUrl":"https://madie.cms.gov/Coverage/1","resource":{"resourceType":"Coverage","id":"6bd8257a-f053-4416-8606-718d7599b332","meta":{"profile":["http://hl7.org/fhir/us/qicore/StructureDefinition/qicore-coverage"]},"status":"active","beneficiary":{"reference":"Patient/848869fc-b6bc-41cb-b441-cfba930e2cc4"},"payor":[{"reference":"Organization/806b0255-13cb-4f2b-9412-571554dd2169"}]},"request":{"method":"PUT","url":"Coverage/6bd8257a-f053-4416-8606-718d7599b332"}},{"fullUrl":"https://madie.cms.gov/Organization/123456","resource":{"resourceType":"Organization","id":"806b0255-13cb-4f2b-9412-571554dd2169","meta":{"profile":["http://hl7.org/fhir/us/qicore/StructureDefinition/qicore-organization"]},"identifier":[{"use":"temp","system":"urn:oid:2.16.840.1.113883.4.4","value":"21-3259825"}],"active":true,"type":[{"coding":[{"system":"http://terminology.hl7.org/CodeSystem/organization-type","code":"pay","display":"Payer"}]}],"name":"Blue Cross Blue Shield of Texas","telecom":[{"system":"phone","value":"(+1) 972-766-6900"}],"address":[{"use":"billing","type":"postal","line":["P.O. Box 660044"],"city":"Dallas","state":"TX","postalCode":"75266-0044","country":"USA"}]},"request":{"method":"PUT","url":"Organization/806b0255-13cb-4f2b-9412-571554dd2169"}},{"fullUrl":"https://madie.cms.gov/Practitioner/practitioner-123456","resource":{"resourceType":"Practitioner","id":"6150d467-bb54-4cbf-bf16-f7355625217d","identifier":[{"system":"http://hl7.org/fhir/sid/us-npi","value":"123456"}],"name":[{"family":"Evil","prefix":["Dr"]}]},"request":{"method":"PUT","url":"Practitioner/6150d467-bb54-4cbf-bf16-f7355625217d"}},{"fullUrl":"https://madie.cms.gov/MeasureReport/cd714a01-85db-4de9-b895-c166d02c8dbf","resource":{"resourceType":"MeasureReport","id":"cd714a01-85db-4de9-b895-c166d02c8dbf","meta":{"profile":["http://hl7.org/fhir/us/cqfmeasures/StructureDefinition/test-case-cqfm"]},"contained":[{"resourceType":"Parameters","id":"76415454-27d5-49a8-886e-2693762c702b-parameters","parameter":[{"name":"subject","valueString":"848869fc-b6bc-41cb-b441-cfba930e2cc4"}]}],"extension":[{"url":"http://hl7.org/fhir/us/cqfmeasures/StructureDefinition/cqfm-inputParameters","valueReference":{"reference":"#76415454-27d5-49a8-886e-2693762c702b-parameters"}},{"url":"http://hl7.org/fhir/us/cqfmeasures/StructureDefinition/cqfm-testCaseDescription","valueMarkdown":"Passes: IP, Pt is 27 years of age,  encounter dx delivery of singleton, gravida=1 rel dt/time before time of delivery time, EGA @ 38 weeks\n"}],"modifierExtension":[{"url":"http://hl7.org/fhir/us/cqfmeasures/StructureDefinition/cqfm-isTestCase","valueBoolean":true}],"status":"complete","type":"individual","measure":"https://madie.cms.gov/Measure/CesareanBirthFHIR","period":{"start":"2025-01-01","end":"2025-12-31"},"group":[{"population":[{"code":{"coding":[{"system":"http://terminology.hl7.org/CodeSystem/measure-population","code":"initial-population","display":"Initial Population"}]},"count":1},{"code":{"coding":[{"system":"http://terminology.hl7.org/CodeSystem/measure-population","code":"denominator","display":"Denominator"}]},"count":1},{"code":{"coding":[{"system":"http://terminology.hl7.org/CodeSystem/measure-population","code":"denominator-exclusion","display":"Denominator Exclusion"}]},"count":0},{"code":{"coding":[{"system":"http://terminology.hl7.org/CodeSystem/measure-population","code":"numerator","display":"Numerator"}]},"count":0}]}]},"request":{"method":"PUT","url":"MeasureReport/cd714a01-85db-4de9-b895-c166d02c8dbf"}}]}