{"resourceType":"Bundle","id":"tests-55667be7-f623-43bd-889f-9ca7f28252d1-bundle","type":"transaction","entry":[{"fullUrl":"https://madie.cms.gov/Patient/55667be7-f623-43bd-889f-9ca7f28252d1","resource":{"resourceType":"Patient","id":"55667be7-f623-43bd-889f-9ca7f28252d1","meta":{"profile":["http://hl7.org/fhir/us/qicore/StructureDefinition/qicore-patient"]},"text":{"status":"generated","div":"<div xmlns=\"http://www.w3.org/1999/xhtml\"><div class=\"hapiHeaderText\">AssessPreTerm0RelDateTime42wksand1minB4DelivDateTime <b>DENFAIL </b></div><table class=\"hapiPropertyTable\"><tbody><tr><td>Identifier</td><td>422c2dba3b85e09cc57593562310cdd8d8e31fe2380a4241b6ce60d5e444f4c4</td></tr><tr><td>Date of birth</td><td><span>14 February 1985</span></td></tr></tbody></table></div>"},"extension":[{"url":"http://hl7.org/fhir/us/core/StructureDefinition/us-core-race","extension":[{"url":"ombCategory","valueCoding":{"system":"urn:oid:2.16.840.1.113883.6.238","code":"1002-5","display":"American Indian or Alaska Native","userSelected":true}},{"url":"text","valueString":"American Indian or Alaska Native"}]},{"url":"http://hl7.org/fhir/us/core/StructureDefinition/us-core-ethnicity","extension":[{"url":"ombCategory","valueCoding":{"system":"urn:oid:2.16.840.1.113883.6.238","code":"2135-2","display":"Hispanic or Latino","userSelected":true}},{"url":"text","valueString":"Hispanic or Latino"}]}],"identifier":[{"type":{"coding":[{"system":"http://terminology.hl7.org/CodeSystem/v2-0203","code":"MR"}]},"system":"https://bonnie-fhir.healthit.gov/","value":"63487c2f0968f80122540193"}],"active":true,"name":[{"use":"usual","family":"DENFail","given":["AssessPreTerm0RelDateTime42wksand1minB4DelivDateTime"]}],"gender":"female","birthDate":"1997-02-14"},"request":{"method":"PUT","url":"Patient/55667be7-f623-43bd-889f-9ca7f28252d1"}},{"fullUrl":"https://madie.cms.gov/Observation/5d014eb3b8484608723806b6","resource":{"resourceType":"Observation","id":"996c4279-e098-435a-8d72-a9f4c2b33713","meta":{"profile":["http://hl7.org/fhir/us/qicore/StructureDefinition/qicore-observation"]},"status":"final","category":[{"coding":[{"system":"http://terminology.hl7.org/CodeSystem/observation-category","code":"exam","display":"exam","userSelected":true}]}],"code":{"coding":[{"system":"http://loinc.org","code":"11637-6"}]},"subject":{"reference":"Patient/55667be7-f623-43bd-889f-9ca7f28252d1"},"effectiveDateTime":"2024-08-11T19:59:00.000+00:00","valueInteger":0},"request":{"method":"PUT","url":"Observation/996c4279-e098-435a-8d72-a9f4c2b33713"}},{"fullUrl":"https://madie.cms.gov/Observation/5d014eb3b8484608723806b8","resource":{"resourceType":"Observation","id":"7af4c142-672f-40e2-bfe2-e007b37a221b","meta":{"profile":["http://hl7.org/fhir/us/qicore/StructureDefinition/qicore-observation"]},"status":"final","category":[{"coding":[{"system":"http://terminology.hl7.org/CodeSystem/observation-category","code":"exam","display":"exam","userSelected":true}]}],"code":{"coding":[{"system":"http://loinc.org","code":"11639-2"}]},"subject":{"reference":"Patient/55667be7-f623-43bd-889f-9ca7f28252d1"},"effectiveDateTime":"2024-09-19T09:00:00.000+00:00","valueInteger":0},"request":{"method":"PUT","url":"Observation/7af4c142-672f-40e2-bfe2-e007b37a221b"}},{"fullUrl":"https://madie.cms.gov/Observation/5d014eb3b8484608723806bb","resource":{"resourceType":"Observation","id":"fcc39e46-56a7-46f0-9b7d-ebaffdfa7d84","meta":{"profile":["http://hl7.org/fhir/us/qicore/StructureDefinition/qicore-observation"]},"status":"final","category":[{"coding":[{"system":"http://terminology.hl7.org/CodeSystem/observation-category","code":"exam","display":"exam","userSelected":true}]}],"code":{"coding":[{"system":"http://loinc.org","code":"11884-4"}]},"subject":{"reference":"Patient/55667be7-f623-43bd-889f-9ca7f28252d1"},"effectiveDateTime":"2025-06-08T20:00:00.000+00:00","valueQuantity":{"value":37.0,"system":"http://unitsofmeasure.org","code":"weeks"}},"request":{"method":"PUT","url":"Observation/fcc39e46-56a7-46f0-9b7d-ebaffdfa7d84"}},{"fullUrl":"https://madie.cms.gov/Observation/5e69660e7ffec70000321645","resource":{"resourceType":"Observation","id":"e39d6ef0-baae-43d7-accf-0892ec9fdf85","meta":{"profile":["http://hl7.org/fhir/us/qicore/StructureDefinition/qicore-observation"]},"status":"final","category":[{"coding":[{"system":"http://terminology.hl7.org/CodeSystem/observation-category","code":"exam","display":"exam","userSelected":true}]}],"code":{"coding":[{"system":"http://loinc.org","code":"93857-1"}]},"subject":{"reference":"Patient/55667be7-f623-43bd-889f-9ca7f28252d1"},"effectiveDateTime":"2025-06-08T20:00:00.000+00:00","valueDateTime":"2025-06-08T20:00:00+00:00"},"request":{"method":"PUT","url":"Observation/e39d6ef0-baae-43d7-accf-0892ec9fdf85"}},{"fullUrl":"https://madie.cms.gov/Encounter/5d014eb3b8484608723806b4","resource":{"resourceType":"Encounter","id":"068d56e1-edf6-44dd-8140-5bb4a78eb3bc","meta":{"profile":["http://hl7.org/fhir/us/qicore/StructureDefinition/qicore-encounter"]},"status":"finished","class":{"system":"http://terminology.hl7.org/CodeSystem/v3-ActCode","code":"IMP","display":"inpatient encounter"},"type":[{"coding":[{"system":"http://snomed.info/sct","code":"8715000"}]}],"subject":{"reference":"Patient/55667be7-f623-43bd-889f-9ca7f28252d1"},"period":{"start":"2025-06-08T08:00:00.000Z","end":"2025-06-10T08:15:00.000Z"},"length":{"value":2.0,"unit":"days"},"diagnosis":[{"condition":{"reference":"Condition/delivery-of-singleton-f83c"},"use":{"coding":[{"system":"http://snomed.info/sct","code":"169826009","display":"Delivery of Singleton"}]}},{"condition":{"reference":"Condition/delivery-of-singleton-4b10"}}]},"request":{"method":"PUT","url":"Encounter/068d56e1-edf6-44dd-8140-5bb4a78eb3bc"}},{"fullUrl":"https://madie.cms.gov/Procedure/5d014eb3b8484608723806b5","resource":{"resourceType":"Procedure","id":"1069dd91-2a54-4705-ae7b-b0f75bc0ca05","meta":{"profile":["http://hl7.org/fhir/us/qicore/StructureDefinition/qicore-procedure"]},"extension":[{"url":"http://hl7.org/fhir/us/qicore/StructureDefinition/qicore-recorded","valueDateTime":"2013-04-05T09:35:00-04:00"}],"status":"completed","code":{"coding":[{"system":"http://www.cms.gov/Medicare/Coding/ICD10","code":"10D00Z0"},{"system":"http://snomed.info/sct","code":"4504004"},{"system":"http://www.icd10data.com/icd10pcs","code":"10D00Z0","userSelected":true}]},"subject":{"reference":"Patient/55667be7-f623-43bd-889f-9ca7f28252d1"},"performedPeriod":{"start":"2025-06-08T20:00:00.000Z","end":"2025-06-08T20:15:00.000Z"}},"request":{"method":"PUT","url":"Procedure/1069dd91-2a54-4705-ae7b-b0f75bc0ca05"}},{"fullUrl":"https://madie.cms.gov/Condition/delivery-of-singleton-4b10","resource":{"resourceType":"Condition","id":"28bfc923-f77b-4ad6-9ece-dd3cee22433e","meta":{"profile":["http://hl7.org/fhir/us/qicore/StructureDefinition/qicore-condition"]},"category":[{"coding":[{"system":"http://terminology.hl7.org/CodeSystem/condition-category","code":"encounter-diagnosis","display":"Encounter Diagnosis"}]}],"code":{"coding":[{"system":"http://snomed.info/sct","version":"2022-09","code":"169826009","display":"Single live birth (finding)","userSelected":true}]},"subject":{"reference":"Patient/55667be7-f623-43bd-889f-9ca7f28252d1"},"recordedDate":"2025-10-21T08:00:00.000+00:00"},"request":{"method":"PUT","url":"Condition/28bfc923-f77b-4ad6-9ece-dd3cee22433e"}},{"fullUrl":"https://madie.cms.gov/Coverage/1","resource":{"resourceType":"Coverage","id":"c4c13b99-e62f-4f90-85d2-c8a143ffc2ce","meta":{"profile":["http://hl7.org/fhir/us/qicore/StructureDefinition/qicore-coverage"]},"status":"active","beneficiary":{"reference":"Patient/55667be7-f623-43bd-889f-9ca7f28252d1"},"payor":[{"reference":"Organization/880a275e-1cf2-4fb9-869b-f1d2173fdc2b"}]},"request":{"method":"PUT","url":"Coverage/c4c13b99-e62f-4f90-85d2-c8a143ffc2ce"}},{"fullUrl":"https://madie.cms.gov/Organization/123456","resource":{"resourceType":"Organization","id":"880a275e-1cf2-4fb9-869b-f1d2173fdc2b","meta":{"profile":["http://hl7.org/fhir/us/qicore/StructureDefinition/qicore-organization"]},"identifier":[{"use":"temp","system":"urn:oid:2.16.840.1.113883.4.4","value":"21-3259825"}],"active":true,"type":[{"coding":[{"system":"http://terminology.hl7.org/CodeSystem/organization-type","code":"pay","display":"Payer"}]}],"name":"Blue Cross Blue Shield of Texas","telecom":[{"system":"phone","value":"(+1) 972-766-6900"}],"address":[{"use":"billing","type":"postal","line":["P.O. Box 660044"],"city":"Dallas","state":"TX","postalCode":"75266-0044","country":"USA"}]},"request":{"method":"PUT","url":"Organization/880a275e-1cf2-4fb9-869b-f1d2173fdc2b"}},{"fullUrl":"https://madie.cms.gov/Practitioner/practitioner-123456","resource":{"resourceType":"Practitioner","id":"88a0d9db-af36-4892-847e-6b913f211b17","identifier":[{"system":"http://hl7.org/fhir/sid/us-npi","value":"123456"}],"name":[{"family":"Evil","prefix":["Dr"]}]},"request":{"method":"PUT","url":"Practitioner/88a0d9db-af36-4892-847e-6b913f211b17"}},{"fullUrl":"https://madie.cms.gov/MeasureReport/3ed2fe3d-e5cc-43dc-a7cc-74982f6b6ae6","resource":{"resourceType":"MeasureReport","id":"3ed2fe3d-e5cc-43dc-a7cc-74982f6b6ae6","meta":{"profile":["http://hl7.org/fhir/us/cqfmeasures/StructureDefinition/test-case-cqfm"]},"contained":[{"resourceType":"Parameters","id":"490ae0c6-73a5-4c4f-980d-7455a21f84a0-parameters","parameter":[{"name":"subject","valueString":"55667be7-f623-43bd-889f-9ca7f28252d1"}]}],"extension":[{"url":"http://hl7.org/fhir/us/cqfmeasures/StructureDefinition/cqfm-inputParameters","valueReference":{"reference":"#490ae0c6-73a5-4c4f-980d-7455a21f84a0-parameters"}},{"url":"http://hl7.org/fhir/us/cqfmeasures/StructureDefinition/cqfm-testCaseDescription","valueMarkdown":"Preterm Births=0, relevant date  42weeks  and 1 min before Asse delivery date/time\n"}],"modifierExtension":[{"url":"http://hl7.org/fhir/us/cqfmeasures/StructureDefinition/cqfm-isTestCase","valueBoolean":true}],"status":"complete","type":"individual","measure":"https://madie.cms.gov/Measure/CesareanBirthFHIR","period":{"start":"2025-01-01","end":"2025-12-31"},"group":[{"population":[{"code":{"coding":[{"system":"http://terminology.hl7.org/CodeSystem/measure-population","code":"initial-population","display":"Initial Population"}]},"count":1},{"code":{"coding":[{"system":"http://terminology.hl7.org/CodeSystem/measure-population","code":"denominator","display":"Denominator"}]},"count":0},{"code":{"coding":[{"system":"http://terminology.hl7.org/CodeSystem/measure-population","code":"denominator-exclusion","display":"Denominator Exclusion"}]},"count":0},{"code":{"coding":[{"system":"http://terminology.hl7.org/CodeSystem/measure-population","code":"numerator","display":"Numerator"}]},"count":0}]}]},"request":{"method":"PUT","url":"MeasureReport/3ed2fe3d-e5cc-43dc-a7cc-74982f6b6ae6"}}]}