{"resourceType":"Bundle","id":"tests-d819c502-0f8e-43a3-a9c3-639c8cc24a49-bundle","type":"transaction","entry":[{"fullUrl":"https://madie.cms.gov/Patient/d819c502-0f8e-43a3-a9c3-639c8cc24a49","resource":{"resourceType":"Patient","id":"d819c502-0f8e-43a3-a9c3-639c8cc24a49","meta":{"profile":["http://hl7.org/fhir/us/qicore/StructureDefinition/qicore-patient"]},"text":{"status":"generated","div":"<div xmlns=\"http://www.w3.org/1999/xhtml\"><div class=\"hapiHeaderText\">AssessTerm0PreTerm0NoGravNoPar <b>DENPASS </b></div><table class=\"hapiPropertyTable\"><tbody><tr><td>Identifier</td><td>64127fc9d7fd126eace3c4b20a012fe3796c9abd90c573be4c372bf5eb0ed0f9</td></tr><tr><td>Date of birth</td><td><span>14 February 1985</span></td></tr></tbody></table></div>"},"extension":[{"url":"http://hl7.org/fhir/us/core/StructureDefinition/us-core-race","extension":[{"url":"ombCategory","valueCoding":{"system":"urn:oid:2.16.840.1.113883.6.238","code":"1002-5","display":"American Indian or Alaska Native","userSelected":true}},{"url":"text","valueString":"American Indian or Alaska Native"}]},{"url":"http://hl7.org/fhir/us/core/StructureDefinition/us-core-ethnicity","extension":[{"url":"ombCategory","valueCoding":{"system":"urn:oid:2.16.840.1.113883.6.238","code":"2135-2","display":"Hispanic or Latino","userSelected":true}},{"url":"text","valueString":"Hispanic or Latino"}]}],"identifier":[{"type":{"coding":[{"system":"http://terminology.hl7.org/CodeSystem/v2-0203","code":"MR"}]},"system":"https://bonnie-fhir.healthit.gov/","value":"63487c2d0968f80122540165"}],"active":true,"name":[{"use":"usual","family":"DENPass","given":["2AssessPreTerm0"]}],"gender":"female","birthDate":"1997-02-14"},"request":{"method":"PUT","url":"Patient/d819c502-0f8e-43a3-a9c3-639c8cc24a49"}},{"fullUrl":"https://madie.cms.gov/Observation/5d014eb1b848460872380558","resource":{"resourceType":"Observation","id":"19d12272-aaa2-441a-8260-7868e900d8a1","meta":{"profile":["http://hl7.org/fhir/us/qicore/StructureDefinition/qicore-observation"]},"status":"final","category":[{"coding":[{"system":"http://terminology.hl7.org/CodeSystem/observation-category","code":"exam","display":"exam","userSelected":true}]}],"code":{"coding":[{"system":"http://loinc.org","code":"11639-2"}]},"subject":{"reference":"Patient/d819c502-0f8e-43a3-a9c3-639c8cc24a49"},"effectiveDateTime":"2024-08-19T21:15:00.000+00:00","valueInteger":0},"request":{"method":"PUT","url":"Observation/19d12272-aaa2-441a-8260-7868e900d8a1"}},{"fullUrl":"https://madie.cms.gov/Observation/5d014eb1b84846087238055a","resource":{"resourceType":"Observation","id":"a6658ec8-d553-41d7-a13a-856c74a0ad15","meta":{"profile":["http://hl7.org/fhir/us/qicore/StructureDefinition/qicore-observation"]},"status":"final","category":[{"coding":[{"system":"http://terminology.hl7.org/CodeSystem/observation-category","code":"exam","display":"exam","userSelected":true}]}],"code":{"coding":[{"system":"http://loinc.org","code":"11637-6"}]},"subject":{"reference":"Patient/d819c502-0f8e-43a3-a9c3-639c8cc24a49"},"effectiveDateTime":"2024-08-19T21:15:00.000+00:00","valueInteger":0},"request":{"method":"PUT","url":"Observation/a6658ec8-d553-41d7-a13a-856c74a0ad15"}},{"fullUrl":"https://madie.cms.gov/Observation/5d014eb1b84846087238055b","resource":{"resourceType":"Observation","id":"5d1661dc-bafb-446d-a9a7-0b8ad1561dfa","meta":{"profile":["http://hl7.org/fhir/us/qicore/StructureDefinition/qicore-observation"]},"status":"final","category":[{"coding":[{"system":"http://terminology.hl7.org/CodeSystem/observation-category","code":"exam","display":"exam","userSelected":true}]}],"code":{"coding":[{"system":"http://loinc.org","code":"11637-6"}]},"subject":{"reference":"Patient/d819c502-0f8e-43a3-a9c3-639c8cc24a49"},"effectiveDateTime":"2024-08-19T21:14:00.000+00:00","valueInteger":1},"request":{"method":"PUT","url":"Observation/5d1661dc-bafb-446d-a9a7-0b8ad1561dfa"}},{"fullUrl":"https://madie.cms.gov/Observation/5d014eb1b84846087238055c","resource":{"resourceType":"Observation","id":"d914e5e0-5daf-4f4c-a89d-9d456b517419","meta":{"profile":["http://hl7.org/fhir/us/qicore/StructureDefinition/qicore-observation"]},"status":"final","category":[{"coding":[{"system":"http://terminology.hl7.org/CodeSystem/observation-category","code":"exam","display":"exam","userSelected":true}]}],"code":{"coding":[{"system":"http://loinc.org","code":"11884-4"}]},"subject":{"reference":"Patient/d819c502-0f8e-43a3-a9c3-639c8cc24a49"},"effectiveDateTime":"2025-06-08T21:15:00.000+00:00","valueQuantity":{"value":37.0,"system":"http://unitsofmeasure.org","code":"weeks"}},"request":{"method":"PUT","url":"Observation/d914e5e0-5daf-4f4c-a89d-9d456b517419"}},{"fullUrl":"https://madie.cms.gov/Observation/5e69336f7ffec7000031e54d","resource":{"resourceType":"Observation","id":"2f6fc529-df02-400b-b1b8-82833767342a","meta":{"profile":["http://hl7.org/fhir/us/qicore/StructureDefinition/qicore-observation"]},"status":"final","category":[{"coding":[{"system":"http://terminology.hl7.org/CodeSystem/observation-category","code":"exam","display":"exam","userSelected":true}]}],"code":{"coding":[{"system":"http://loinc.org","code":"93857-1"}]},"subject":{"reference":"Patient/d819c502-0f8e-43a3-a9c3-639c8cc24a49"},"effectiveDateTime":"2025-06-08T21:15:00.000+00:00","valueDateTime":"2025-06-08T21:15:00+00:00"},"request":{"method":"PUT","url":"Observation/2f6fc529-df02-400b-b1b8-82833767342a"}},{"fullUrl":"https://madie.cms.gov/Encounter/5d014eb1b848460872380556","resource":{"resourceType":"Encounter","id":"fb311057-5621-4fe4-9e84-6aed84d59e72","meta":{"profile":["http://hl7.org/fhir/us/qicore/StructureDefinition/qicore-encounter"]},"status":"finished","class":{"system":"http://terminology.hl7.org/CodeSystem/v3-ActCode","code":"IMP","display":"inpatient encounter"},"type":[{"coding":[{"system":"http://snomed.info/sct","code":"8715000"}]}],"subject":{"reference":"Patient/d819c502-0f8e-43a3-a9c3-639c8cc24a49"},"period":{"start":"2025-06-08T08:00:00.000Z","end":"2025-06-10T08:15:00.000Z"},"length":{"value":2.0,"unit":"days"},"diagnosis":[{"condition":{"reference":"Condition/delivery-of-singleton-f83c"},"use":{"coding":[{"system":"http://snomed.info/sct","code":"169826009","display":"Delivery of Singleton"}]}},{"condition":{"reference":"Condition/delivery-of-singleton-947f"}}]},"request":{"method":"PUT","url":"Encounter/fb311057-5621-4fe4-9e84-6aed84d59e72"}},{"fullUrl":"https://madie.cms.gov/Procedure/5e6933dc7ffec7000031e5c8","resource":{"resourceType":"Procedure","id":"65437db3-9438-4b76-8fe3-b9360ecbdf6a","meta":{"profile":["http://hl7.org/fhir/us/qicore/StructureDefinition/qicore-procedure"]},"extension":[{"url":"http://hl7.org/fhir/us/qicore/StructureDefinition/qicore-recorded","valueDateTime":"2013-04-05T09:35:00-04:00"}],"status":"completed","code":{"coding":[{"system":"http://www.cms.gov/Medicare/Coding/ICD10","code":"10D00Z0"},{"system":"http://www.icd10data.com/icd10pcs","code":"10D00Z2","userSelected":true}]},"subject":{"reference":"Patient/d819c502-0f8e-43a3-a9c3-639c8cc24a49"},"performedPeriod":{"start":"2025-06-08T20:00:00.000Z","end":"2025-06-08T21:15:00.000Z"}},"request":{"method":"PUT","url":"Procedure/65437db3-9438-4b76-8fe3-b9360ecbdf6a"}},{"fullUrl":"https://madie.cms.gov/Condition/delivery-of-singleton-947f","resource":{"resourceType":"Condition","id":"3dbb3e08-8fab-4ba6-87b7-dd2ba124004d","meta":{"profile":["http://hl7.org/fhir/us/qicore/StructureDefinition/qicore-condition"]},"category":[{"coding":[{"system":"http://terminology.hl7.org/CodeSystem/condition-category","code":"encounter-diagnosis","display":"Encounter Diagnosis"}]}],"code":{"coding":[{"system":"http://snomed.info/sct","version":"2022-09","code":"169826009","display":"Single live birth (finding)","userSelected":true}]},"subject":{"reference":"Patient/d819c502-0f8e-43a3-a9c3-639c8cc24a49"},"recordedDate":"2025-10-20T08:00:00.000+00:00"},"request":{"method":"PUT","url":"Condition/3dbb3e08-8fab-4ba6-87b7-dd2ba124004d"}},{"fullUrl":"https://madie.cms.gov/Coverage/1","resource":{"resourceType":"Coverage","id":"01b7242d-bd37-45a9-8167-d8fb1227a272","meta":{"profile":["http://hl7.org/fhir/us/qicore/StructureDefinition/qicore-coverage"]},"status":"active","beneficiary":{"reference":"Patient/d819c502-0f8e-43a3-a9c3-639c8cc24a49"},"payor":[{"reference":"Organization/ec8cac12-7dd8-4c6e-8c44-d6c645085c80"}]},"request":{"method":"PUT","url":"Coverage/01b7242d-bd37-45a9-8167-d8fb1227a272"}},{"fullUrl":"https://madie.cms.gov/Organization/123456","resource":{"resourceType":"Organization","id":"ec8cac12-7dd8-4c6e-8c44-d6c645085c80","meta":{"profile":["http://hl7.org/fhir/us/qicore/StructureDefinition/qicore-organization"]},"identifier":[{"use":"temp","system":"urn:oid:2.16.840.1.113883.4.4","value":"21-3259825"}],"active":true,"type":[{"coding":[{"system":"http://terminology.hl7.org/CodeSystem/organization-type","code":"pay","display":"Payer"}]}],"name":"Blue Cross Blue Shield of Texas","telecom":[{"system":"phone","value":"(+1) 972-766-6900"}],"address":[{"use":"billing","type":"postal","line":["P.O. Box 660044"],"city":"Dallas","state":"TX","postalCode":"75266-0044","country":"USA"}]},"request":{"method":"PUT","url":"Organization/ec8cac12-7dd8-4c6e-8c44-d6c645085c80"}},{"fullUrl":"https://madie.cms.gov/Practitioner/practitioner-123456","resource":{"resourceType":"Practitioner","id":"4b152522-d8ae-446d-b45c-c047ad3e75e2","identifier":[{"system":"http://hl7.org/fhir/sid/us-npi","value":"123456"}],"name":[{"family":"Evil","prefix":["Dr"]}]},"request":{"method":"PUT","url":"Practitioner/4b152522-d8ae-446d-b45c-c047ad3e75e2"}},{"fullUrl":"https://madie.cms.gov/MeasureReport/aef707e6-9011-4232-8847-5ef751fb96af","resource":{"resourceType":"MeasureReport","id":"aef707e6-9011-4232-8847-5ef751fb96af","meta":{"profile":["http://hl7.org/fhir/us/cqfmeasures/StructureDefinition/test-case-cqfm"]},"contained":[{"resourceType":"Parameters","id":"fc396422-dd56-4be0-abb3-cf9c914ae3d5-parameters","parameter":[{"name":"subject","valueString":"d819c502-0f8e-43a3-a9c3-639c8cc24a49"}]}],"extension":[{"url":"http://hl7.org/fhir/us/cqfmeasures/StructureDefinition/cqfm-inputParameters","valueReference":{"reference":"#fc396422-dd56-4be0-abb3-cf9c914ae3d5-parameters"}},{"url":"http://hl7.org/fhir/us/cqfmeasures/StructureDefinition/cqfm-testCaseDescription","valueMarkdown":"2 assessments of PreTermBirths.  One relevant start time is 42 weeks before delivery, other is 42 weeks and 1 minute.  Denom is met as LAST is applied and the one meets.."}],"modifierExtension":[{"url":"http://hl7.org/fhir/us/cqfmeasures/StructureDefinition/cqfm-isTestCase","valueBoolean":true}],"status":"complete","type":"individual","measure":"https://madie.cms.gov/Measure/CesareanBirthFHIR","period":{"start":"2025-01-01","end":"2025-12-31"},"group":[{"population":[{"code":{"coding":[{"system":"http://terminology.hl7.org/CodeSystem/measure-population","code":"initial-population","display":"Initial Population"}]},"count":1},{"code":{"coding":[{"system":"http://terminology.hl7.org/CodeSystem/measure-population","code":"denominator","display":"Denominator"}]},"count":1},{"code":{"coding":[{"system":"http://terminology.hl7.org/CodeSystem/measure-population","code":"denominator-exclusion","display":"Denominator Exclusion"}]},"count":0},{"code":{"coding":[{"system":"http://terminology.hl7.org/CodeSystem/measure-population","code":"numerator","display":"Numerator"}]},"count":1}]}]},"request":{"method":"PUT","url":"MeasureReport/aef707e6-9011-4232-8847-5ef751fb96af"}}]}