{"resourceType":"Bundle","id":"tests-f247e141-7e9f-42ec-bef2-869e381ea00d-bundle","type":"transaction","entry":[{"fullUrl":"https://madie.cms.gov/Patient/f247e141-7e9f-42ec-bef2-869e381ea00d","resource":{"resourceType":"Patient","id":"f247e141-7e9f-42ec-bef2-869e381ea00d","meta":{"profile":["http://hl7.org/fhir/us/qicore/StructureDefinition/qicore-patient"]},"text":{"status":"generated","div":"<div xmlns=\"http://www.w3.org/1999/xhtml\"><div class=\"hapiHeaderText\">ProcCsectButVagDelCode <b>NUMPASS </b></div><table class=\"hapiPropertyTable\"><tbody><tr><td>Identifier</td><td>8b7a8f99f3e1839b490bb3076b6cc0feec17e2d3d2b6db6ff89c3711196a7db2</td></tr><tr><td>Date of birth</td><td><span>14 February 1985</span></td></tr></tbody></table></div>"},"extension":[{"url":"http://hl7.org/fhir/us/core/StructureDefinition/us-core-race","extension":[{"url":"ombCategory","valueCoding":{"system":"urn:oid:2.16.840.1.113883.6.238","code":"1002-5","display":"American Indian or Alaska Native","userSelected":true}},{"url":"text","valueString":"American Indian or Alaska Native"}]},{"url":"http://hl7.org/fhir/us/core/StructureDefinition/us-core-ethnicity","extension":[{"url":"ombCategory","valueCoding":{"system":"urn:oid:2.16.840.1.113883.6.238","code":"2135-2","display":"Hispanic or Latino","userSelected":true}},{"url":"text","valueString":"Hispanic or Latino"}]}],"identifier":[{"type":{"coding":[{"system":"http://terminology.hl7.org/CodeSystem/v2-0203","code":"MR"}]},"system":"https://bonnie-fhir.healthit.gov/","value":"63487c2d0968f80122540164"}],"active":true,"name":[{"use":"usual","family":"NUMPass","given":["ProcCsectButVagDelCode"]}],"gender":"female","birthDate":"1997-02-14"},"request":{"method":"PUT","url":"Patient/f247e141-7e9f-42ec-bef2-869e381ea00d"}},{"fullUrl":"https://madie.cms.gov/Observation/5d014eb1b848460872380546","resource":{"resourceType":"Observation","id":"7e086b1b-855a-43bd-a647-38a5127cf1c8","meta":{"profile":["http://hl7.org/fhir/us/qicore/StructureDefinition/qicore-observation"]},"status":"final","category":[{"coding":[{"system":"http://terminology.hl7.org/CodeSystem/observation-category","code":"exam","display":"exam","userSelected":true}]}],"code":{"coding":[{"system":"http://loinc.org","code":"11977-6"}]},"subject":{"reference":"Patient/f247e141-7e9f-42ec-bef2-869e381ea00d"},"effectiveDateTime":"2025-03-08T09:00:00.000+00:00","valueInteger":0},"request":{"method":"PUT","url":"Observation/7e086b1b-855a-43bd-a647-38a5127cf1c8"}},{"fullUrl":"https://madie.cms.gov/Observation/5d014eb1b848460872380548","resource":{"resourceType":"Observation","id":"2a6f5735-91d2-43a9-b396-c33d0842392c","meta":{"profile":["http://hl7.org/fhir/us/qicore/StructureDefinition/qicore-observation"]},"status":"final","category":[{"coding":[{"system":"http://terminology.hl7.org/CodeSystem/observation-category","code":"exam","display":"exam","userSelected":true}]}],"code":{"coding":[{"system":"http://loinc.org","code":"11996-6"}]},"subject":{"reference":"Patient/f247e141-7e9f-42ec-bef2-869e381ea00d"},"effectiveDateTime":"2025-03-09T08:00:00.000+00:00","valueInteger":1},"request":{"method":"PUT","url":"Observation/2a6f5735-91d2-43a9-b396-c33d0842392c"}},{"fullUrl":"https://madie.cms.gov/Observation/5d014eb1b84846087238054a","resource":{"resourceType":"Observation","id":"68ae5e8b-ba24-46a8-9958-c1592f5a1081","meta":{"profile":["http://hl7.org/fhir/us/qicore/StructureDefinition/qicore-observation"]},"status":"final","category":[{"coding":[{"system":"http://terminology.hl7.org/CodeSystem/observation-category","code":"exam","display":"exam","userSelected":true}]}],"code":{"coding":[{"system":"http://loinc.org","code":"11884-4"}]},"subject":{"reference":"Patient/f247e141-7e9f-42ec-bef2-869e381ea00d"},"effectiveDateTime":"2025-06-08T17:00:00.000+00:00","valueQuantity":{"value":37.0,"system":"http://unitsofmeasure.org","code":"weeks"}},"request":{"method":"PUT","url":"Observation/68ae5e8b-ba24-46a8-9958-c1592f5a1081"}},{"fullUrl":"https://madie.cms.gov/Observation/5e69404d7ffec7000031f6ad","resource":{"resourceType":"Observation","id":"5ee98ab9-6af1-41eb-9a7d-c49b60e9c1c1","meta":{"profile":["http://hl7.org/fhir/us/qicore/StructureDefinition/qicore-observation"]},"status":"final","category":[{"coding":[{"system":"http://loinc.org","code":"93857-1","display":"Date and time of obstetric delivery","userSelected":true}]}],"code":{"coding":[{"system":"http://loinc.org","code":"93857-1"}]},"subject":{"reference":"Patient/f247e141-7e9f-42ec-bef2-869e381ea00d"},"effectiveDateTime":"2025-06-08T20:00:00.000+00:00","valueDateTime":"2025-06-08T20:00:00+00:00"},"request":{"method":"PUT","url":"Observation/5ee98ab9-6af1-41eb-9a7d-c49b60e9c1c1"}},{"fullUrl":"https://madie.cms.gov/Encounter/5d014eb1b848460872380543","resource":{"resourceType":"Encounter","id":"ac448d76-cde9-4cd8-99e2-1d70e0ae7796","meta":{"profile":["http://hl7.org/fhir/us/qicore/StructureDefinition/qicore-encounter"]},"status":"finished","class":{"system":"http://terminology.hl7.org/CodeSystem/v3-ActCode","code":"IMP","display":"inpatient encounter"},"type":[{"coding":[{"system":"http://snomed.info/sct","code":"8715000"}]}],"subject":{"reference":"Patient/f247e141-7e9f-42ec-bef2-869e381ea00d"},"period":{"start":"2025-06-08T08:00:00.000Z","end":"2025-06-10T08:15:00.000Z"},"diagnosis":[{"condition":{"reference":"Condition/delivery-of-singleton-df6d"}}]},"request":{"method":"PUT","url":"Encounter/ac448d76-cde9-4cd8-99e2-1d70e0ae7796"}},{"fullUrl":"https://madie.cms.gov/Procedure/5d014eb1b848460872380544","resource":{"resourceType":"Procedure","id":"ecf9a0b3-60c4-4f8b-828f-ccd62e7ea909","meta":{"profile":["http://hl7.org/fhir/us/qicore/StructureDefinition/qicore-procedure"]},"extension":[{"url":"http://hl7.org/fhir/us/qicore/StructureDefinition/qicore-recorded","valueDateTime":"2013-04-05T09:35:00-04:00"}],"status":"completed","code":{"coding":[{"system":"http://www.cms.gov/Medicare/Coding/ICD10","code":"10D07Z3"},{"system":"http://www.icd10data.com/icd10pcs","code":"10D07Z3","userSelected":true}]},"subject":{"reference":"Patient/f247e141-7e9f-42ec-bef2-869e381ea00d"},"performedPeriod":{"start":"2025-06-08T20:00:00.000Z","end":"2025-06-08T21:15:00.000Z"}},"request":{"method":"PUT","url":"Procedure/ecf9a0b3-60c4-4f8b-828f-ccd62e7ea909"}},{"fullUrl":"https://madie.cms.gov/Procedure/5d014eb1b848460872380545","resource":{"resourceType":"Procedure","id":"33503f64-50d7-49ba-8ec6-764020d982eb","meta":{"profile":["http://hl7.org/fhir/us/qicore/StructureDefinition/qicore-procedure"]},"extension":[{"url":"http://hl7.org/fhir/us/qicore/StructureDefinition/qicore-recorded","valueDateTime":"2013-04-05T09:35:00-04:00"}],"status":"completed","code":{"coding":[{"system":"http://snomed.info/sct","code":"11466000"}]},"subject":{"reference":"Patient/f247e141-7e9f-42ec-bef2-869e381ea00d"},"performedPeriod":{"start":"2025-06-08T20:00:00.000Z","end":"2025-06-08T21:15:00.000Z"}},"request":{"method":"PUT","url":"Procedure/33503f64-50d7-49ba-8ec6-764020d982eb"}},{"fullUrl":"https://madie.cms.gov/Condition/delivery-of-singleton-df6d","resource":{"resourceType":"Condition","id":"8086ae2d-d494-4cad-b11c-f06ef0bce73b","meta":{"profile":["http://hl7.org/fhir/us/qicore/StructureDefinition/qicore-condition"]},"category":[{"coding":[{"system":"http://terminology.hl7.org/CodeSystem/condition-category","code":"encounter-diagnosis","display":"Encounter Diagnosis"}]}],"code":{"coding":[{"system":"http://snomed.info/sct","version":"2022-09","code":"169826009","display":"Single live birth (finding)","userSelected":true}]},"subject":{"reference":"Patient/f247e141-7e9f-42ec-bef2-869e381ea00d"},"recordedDate":"2025-10-17T08:00:00.000+00:00"},"request":{"method":"PUT","url":"Condition/8086ae2d-d494-4cad-b11c-f06ef0bce73b"}},{"fullUrl":"https://madie.cms.gov/Coverage/1","resource":{"resourceType":"Coverage","id":"e22d1241-b8cf-4103-931f-b07cbd4278ed","meta":{"profile":["http://hl7.org/fhir/us/qicore/StructureDefinition/qicore-coverage"]},"status":"active","beneficiary":{"reference":"Patient/f247e141-7e9f-42ec-bef2-869e381ea00d"},"payor":[{"reference":"Organization/880a275e-1cf2-4fb9-869b-f1d2173fdc2b"}]},"request":{"method":"PUT","url":"Coverage/e22d1241-b8cf-4103-931f-b07cbd4278ed"}},{"fullUrl":"https://madie.cms.gov/Organization/123456","resource":{"resourceType":"Organization","id":"880a275e-1cf2-4fb9-869b-f1d2173fdc2b","meta":{"profile":["http://hl7.org/fhir/us/qicore/StructureDefinition/qicore-organization"]},"identifier":[{"use":"temp","system":"urn:oid:2.16.840.1.113883.4.4","value":"21-3259825"}],"active":true,"type":[{"coding":[{"system":"http://terminology.hl7.org/CodeSystem/organization-type","code":"pay","display":"Payer"}]}],"name":"Blue Cross Blue Shield of Texas","telecom":[{"system":"phone","value":"(+1) 972-766-6900"}],"address":[{"use":"billing","type":"postal","line":["P.O. Box 660044"],"city":"Dallas","state":"TX","postalCode":"75266-0044","country":"USA"}]},"request":{"method":"PUT","url":"Organization/880a275e-1cf2-4fb9-869b-f1d2173fdc2b"}},{"fullUrl":"https://madie.cms.gov/Practitioner/practitioner-123456","resource":{"resourceType":"Practitioner","id":"d42bbb3e-1519-415b-bed9-3e36cd773fda","identifier":[{"system":"http://hl7.org/fhir/sid/us-npi","value":"123456"}],"name":[{"family":"Evil","prefix":["Dr"]}]},"request":{"method":"PUT","url":"Practitioner/d42bbb3e-1519-415b-bed9-3e36cd773fda"}},{"fullUrl":"https://madie.cms.gov/MeasureReport/7b49fd5c-2001-4c39-933e-ead8c4318f2a","resource":{"resourceType":"MeasureReport","id":"7b49fd5c-2001-4c39-933e-ead8c4318f2a","meta":{"profile":["http://hl7.org/fhir/us/cqfmeasures/StructureDefinition/test-case-cqfm"]},"contained":[{"resourceType":"Parameters","id":"44701719-8766-46ad-90c7-265d7eb4a189-parameters","parameter":[{"name":"subject","valueString":"f247e141-7e9f-42ec-bef2-869e381ea00d"}]}],"extension":[{"url":"http://hl7.org/fhir/us/cqfmeasures/StructureDefinition/cqfm-inputParameters","valueReference":{"reference":"#44701719-8766-46ad-90c7-265d7eb4a189-parameters"}},{"url":"http://hl7.org/fhir/us/cqfmeasures/StructureDefinition/cqfm-testCaseDescription","valueMarkdown":"Passes IP, DEN, NUM.  Passes NUM as Proc Perf = Csection  although \"Delivery Procedures\" indicates vaginal delivery."}],"modifierExtension":[{"url":"http://hl7.org/fhir/us/cqfmeasures/StructureDefinition/cqfm-isTestCase","valueBoolean":true}],"status":"complete","type":"individual","measure":"https://madie.cms.gov/Measure/CesareanBirthFHIR","period":{"start":"2025-01-01","end":"2025-12-31"},"group":[{"population":[{"code":{"coding":[{"system":"http://terminology.hl7.org/CodeSystem/measure-population","code":"initial-population","display":"Initial Population"}]},"count":1},{"code":{"coding":[{"system":"http://terminology.hl7.org/CodeSystem/measure-population","code":"denominator","display":"Denominator"}]},"count":1},{"code":{"coding":[{"system":"http://terminology.hl7.org/CodeSystem/measure-population","code":"denominator-exclusion","display":"Denominator Exclusion"}]},"count":0},{"code":{"coding":[{"system":"http://terminology.hl7.org/CodeSystem/measure-population","code":"numerator","display":"Numerator"}]},"count":1}]}]},"request":{"method":"PUT","url":"MeasureReport/7b49fd5c-2001-4c39-933e-ead8c4318f2a"}}]}