{"resourceType":"Bundle","id":"tests-663f65ef-8b51-4a5c-a18f-570677441fd1-bundle","type":"transaction","entry":[{"fullUrl":"https://madie.cms.gov/Patient/663f65ef-8b51-4a5c-a18f-570677441fd1","resource":{"resourceType":"Patient","id":"663f65ef-8b51-4a5c-a18f-570677441fd1","meta":{"profile":["http://hl7.org/fhir/us/qicore/StructureDefinition/qicore-patient"]},"text":{"status":"generated","div":"<div xmlns=\"http://www.w3.org/1999/xhtml\"><div class=\"hapiHeaderText\">EncDxAbnPres <b>DENEXPASS </b></div><table class=\"hapiPropertyTable\"><tbody><tr><td>Identifier</td><td>e60ac0c86374d56542751bc908b8f4587a0e4d04c5ad61e351ba0274daf18ca0</td></tr><tr><td>Date of birth</td><td><span>14 February 1985</span></td></tr></tbody></table></div>"},"extension":[{"url":"http://hl7.org/fhir/us/core/StructureDefinition/us-core-race","extension":[{"url":"ombCategory","valueCoding":{"system":"urn:oid:2.16.840.1.113883.6.238","code":"1002-5","display":"American Indian or Alaska Native","userSelected":true}},{"url":"text","valueString":"American Indian or Alaska Native"}]},{"url":"http://hl7.org/fhir/us/core/StructureDefinition/us-core-ethnicity","extension":[{"url":"ombCategory","valueCoding":{"system":"urn:oid:2.16.840.1.113883.6.238","code":"2135-2","display":"Hispanic or Latino","userSelected":true}},{"url":"text","valueString":"Hispanic or Latino"}]}],"identifier":[{"type":{"coding":[{"system":"http://terminology.hl7.org/CodeSystem/v2-0203","code":"MR"}]},"system":"https://bonnie-fhir.healthit.gov/","value":"63487c2e0968f80122540178"}],"active":true,"name":[{"use":"usual","family":"DENEXPass","given":["EncDxAbnPres "]}],"gender":"female","birthDate":"1997-02-14"},"request":{"method":"PUT","url":"Patient/663f65ef-8b51-4a5c-a18f-570677441fd1"}},{"fullUrl":"https://madie.cms.gov/Observation/5d014eb2b8484608723805b6","resource":{"resourceType":"Observation","id":"c357769e-c2b7-4d08-b9f0-933189e5fcc7","meta":{"profile":["http://hl7.org/fhir/us/qicore/StructureDefinition/qicore-observation"]},"status":"final","category":[{"coding":[{"system":"http://terminology.hl7.org/CodeSystem/observation-category","code":"exam","display":"exam","userSelected":true}]}],"code":{"coding":[{"system":"http://loinc.org","code":"11996-6"}]},"subject":{"reference":"Patient/663f65ef-8b51-4a5c-a18f-570677441fd1"},"effectiveDateTime":"2025-06-08T08:00:00.000+00:00","valueInteger":1},"request":{"method":"PUT","url":"Observation/c357769e-c2b7-4d08-b9f0-933189e5fcc7"}},{"fullUrl":"https://madie.cms.gov/Observation/5d014eb2b8484608723805b8","resource":{"resourceType":"Observation","id":"81f0b7de-d66f-4c61-964e-af2e3ab51683","meta":{"profile":["http://hl7.org/fhir/us/qicore/StructureDefinition/qicore-observation"]},"status":"final","category":[{"coding":[{"system":"http://terminology.hl7.org/CodeSystem/observation-category","code":"exam","display":"exam","userSelected":true}]}],"code":{"coding":[{"system":"http://loinc.org","code":"11884-4"}]},"subject":{"reference":"Patient/663f65ef-8b51-4a5c-a18f-570677441fd1"},"effectiveDateTime":"2025-06-08T08:00:00.000+00:00","valueQuantity":{"value":43.0,"system":"http://unitsofmeasure.org","code":"weeks"}},"request":{"method":"PUT","url":"Observation/81f0b7de-d66f-4c61-964e-af2e3ab51683"}},{"fullUrl":"https://madie.cms.gov/Observation/5e61189beadaae0000c2b65b","resource":{"resourceType":"Observation","id":"ab93c1a6-ea1e-4cd9-80e0-29303354675f","meta":{"profile":["http://hl7.org/fhir/us/qicore/StructureDefinition/qicore-observation"]},"status":"final","category":[{"coding":[{"system":"http://terminology.hl7.org/CodeSystem/observation-category","code":"exam","display":"exam","userSelected":true}]}],"code":{"coding":[{"system":"http://loinc.org","code":"93857-1"}]},"subject":{"reference":"Patient/663f65ef-8b51-4a5c-a18f-570677441fd1"},"effectiveDateTime":"2025-06-08T20:00:00.000+00:00","valueDateTime":"2025-06-08T20:00:00+00:00"},"request":{"method":"PUT","url":"Observation/ab93c1a6-ea1e-4cd9-80e0-29303354675f"}},{"fullUrl":"https://madie.cms.gov/Encounter/5d014eb2b8484608723805b4","resource":{"resourceType":"Encounter","id":"4da30f36-ee03-49bd-9848-21d4dbcd2941","meta":{"profile":["http://hl7.org/fhir/us/qicore/StructureDefinition/qicore-encounter"]},"status":"finished","class":{"system":"http://terminology.hl7.org/CodeSystem/v3-ActCode","code":"IMP","display":"inpatient encounter"},"type":[{"coding":[{"system":"http://snomed.info/sct","code":"8715000"}]}],"subject":{"reference":"Patient/663f65ef-8b51-4a5c-a18f-570677441fd1"},"period":{"start":"2025-06-08T08:00:00.000Z","end":"2025-06-10T08:15:00.000Z"},"diagnosis":[{"condition":{"reference":"Condition/delivery-of-singleton-099e"}},{"condition":{"reference":"Condition/abnormal-presentation-099f"}}]},"request":{"method":"PUT","url":"Encounter/4da30f36-ee03-49bd-9848-21d4dbcd2941"}},{"fullUrl":"https://madie.cms.gov/Procedure/5d014eb2b8484608723805b5","resource":{"resourceType":"Procedure","id":"e26bce36-f563-4f09-b111-fef54671619f","meta":{"profile":["http://hl7.org/fhir/us/qicore/StructureDefinition/qicore-procedure"]},"extension":[{"url":"http://hl7.org/fhir/us/qicore/StructureDefinition/qicore-recorded","valueDateTime":"2013-04-05T09:35:00-04:00"}],"status":"completed","code":{"coding":[{"system":"http://snomed.info/sct","code":"4504004"}]},"subject":{"reference":"Patient/663f65ef-8b51-4a5c-a18f-570677441fd1"},"performedPeriod":{"start":"2025-06-08T20:00:00.000Z","end":"2025-06-09T20:00:00.000Z"}},"request":{"method":"PUT","url":"Procedure/e26bce36-f563-4f09-b111-fef54671619f"}},{"fullUrl":"https://madie.cms.gov/Condition/delivery-of-singleton-099e","resource":{"resourceType":"Condition","id":"5e4692ad-0ff9-44dc-8f98-807bb2847183","meta":{"profile":["http://hl7.org/fhir/us/qicore/StructureDefinition/qicore-condition"]},"category":[{"coding":[{"system":"http://terminology.hl7.org/CodeSystem/condition-category","code":"encounter-diagnosis","display":"Encounter Diagnosis"}]}],"code":{"coding":[{"system":"http://snomed.info/sct","version":"2022-09","code":"169826009","display":"Single live birth (finding)","userSelected":true}]},"subject":{"reference":"Patient/663f65ef-8b51-4a5c-a18f-570677441fd1"},"recordedDate":"2025-10-17T08:00:00.000+00:00"},"request":{"method":"PUT","url":"Condition/5e4692ad-0ff9-44dc-8f98-807bb2847183"}},{"fullUrl":"https://madie.cms.gov/Condition/abnormal-presentation-099f","resource":{"resourceType":"Condition","id":"e9ca98e2-aa26-460c-9762-f99ed99340ab","meta":{"profile":["http://hl7.org/fhir/us/qicore/StructureDefinition/qicore-condition"]},"category":[{"coding":[{"system":"http://terminology.hl7.org/CodeSystem/condition-category","code":"encounter-diagnosis","display":"Encounter Diagnosis"}]}],"code":{"coding":[{"system":"http://snomed.info/sct","version":"2022-09","code":"18559007","display":"Frank breech presentation (finding)","userSelected":true}]},"subject":{"reference":"Patient/663f65ef-8b51-4a5c-a18f-570677441fd1"},"recordedDate":"2025-10-17T08:00:00.000+00:00"},"request":{"method":"PUT","url":"Condition/e9ca98e2-aa26-460c-9762-f99ed99340ab"}},{"fullUrl":"https://madie.cms.gov/Coverage/1","resource":{"resourceType":"Coverage","id":"de8f1860-9225-46f3-b571-e0cbf7710791","meta":{"profile":["http://hl7.org/fhir/us/qicore/StructureDefinition/qicore-coverage"]},"status":"active","beneficiary":{"reference":"Patient/663f65ef-8b51-4a5c-a18f-570677441fd1"},"payor":[{"reference":"Organization/9e9b3f13-a353-4173-b29b-947d6f1f2031"}]},"request":{"method":"PUT","url":"Coverage/de8f1860-9225-46f3-b571-e0cbf7710791"}},{"fullUrl":"https://madie.cms.gov/Organization/123456","resource":{"resourceType":"Organization","id":"9e9b3f13-a353-4173-b29b-947d6f1f2031","meta":{"profile":["http://hl7.org/fhir/us/qicore/StructureDefinition/qicore-organization"]},"identifier":[{"use":"temp","system":"urn:oid:2.16.840.1.113883.4.4","value":"21-3259825"}],"active":true,"type":[{"coding":[{"system":"http://terminology.hl7.org/CodeSystem/organization-type","code":"pay","display":"Payer"}]}],"name":"Blue Cross Blue Shield of Texas","telecom":[{"system":"phone","value":"(+1) 972-766-6900"}],"address":[{"use":"billing","type":"postal","line":["P.O. Box 660044"],"city":"Dallas","state":"TX","postalCode":"75266-0044","country":"USA"}]},"request":{"method":"PUT","url":"Organization/9e9b3f13-a353-4173-b29b-947d6f1f2031"}},{"fullUrl":"https://madie.cms.gov/Practitioner/practitioner-123456","resource":{"resourceType":"Practitioner","id":"46820fe2-948e-4d03-8c4f-e107acf23914","identifier":[{"system":"http://hl7.org/fhir/sid/us-npi","value":"123456"}],"name":[{"family":"Evil","prefix":["Dr"]}]},"request":{"method":"PUT","url":"Practitioner/46820fe2-948e-4d03-8c4f-e107acf23914"}},{"fullUrl":"https://madie.cms.gov/MeasureReport/595d8f16-ff29-4dec-a359-920b46a6bd95","resource":{"resourceType":"MeasureReport","id":"595d8f16-ff29-4dec-a359-920b46a6bd95","meta":{"profile":["http://hl7.org/fhir/us/cqfmeasures/StructureDefinition/test-case-cqfm"]},"contained":[{"resourceType":"Parameters","id":"be575a8e-57b8-446a-881e-892567087100-parameters","parameter":[{"name":"subject","valueString":"663f65ef-8b51-4a5c-a18f-570677441fd1"}]}],"extension":[{"url":"http://hl7.org/fhir/us/cqfmeasures/StructureDefinition/cqfm-inputParameters","valueReference":{"reference":"#be575a8e-57b8-446a-881e-892567087100-parameters"}},{"url":"http://hl7.org/fhir/us/cqfmeasures/StructureDefinition/cqfm-testCaseDescription","valueMarkdown":"EGA 43 weeks; Enc Dx Abnormal presentation, gravida 1\n"}],"modifierExtension":[{"url":"http://hl7.org/fhir/us/cqfmeasures/StructureDefinition/cqfm-isTestCase","valueBoolean":true}],"status":"complete","type":"individual","measure":"https://madie.cms.gov/Measure/CesareanBirthFHIR","period":{"start":"2025-01-01","end":"2025-12-31"},"group":[{"population":[{"code":{"coding":[{"system":"http://terminology.hl7.org/CodeSystem/measure-population","code":"initial-population","display":"Initial Population"}]},"count":1},{"code":{"coding":[{"system":"http://terminology.hl7.org/CodeSystem/measure-population","code":"denominator","display":"Denominator"}]},"count":1},{"code":{"coding":[{"system":"http://terminology.hl7.org/CodeSystem/measure-population","code":"denominator-exclusion","display":"Denominator Exclusion"}]},"count":1},{"code":{"coding":[{"system":"http://terminology.hl7.org/CodeSystem/measure-population","code":"numerator","display":"Numerator"}]},"count":0}]}]},"request":{"method":"PUT","url":"MeasureReport/595d8f16-ff29-4dec-a359-920b46a6bd95"}}]}