{"resourceType":"Bundle","id":"tests-912e076d-3b5d-46cc-b2cb-c78172b295a3-bundle","type":"transaction","entry":[{"fullUrl":"https://madie.cms.gov/Patient/912e076d-3b5d-46cc-b2cb-c78172b295a3","resource":{"resourceType":"Patient","id":"912e076d-3b5d-46cc-b2cb-c78172b295a3","meta":{"profile":["http://hl7.org/fhir/us/qicore/StructureDefinition/qicore-patient"]},"text":{"status":"generated","div":"<div xmlns=\"http://www.w3.org/1999/xhtml\"><div class=\"hapiHeaderText\">EGALT37weeks <b>DENFAIL </b></div><table class=\"hapiPropertyTable\"><tbody><tr><td>Identifier</td><td>abdde563892ce226aeccbefc9ec5c953</td></tr><tr><td>Date of birth</td><td><span>14 February 1985</span></td></tr></tbody></table></div>"},"extension":[{"url":"http://hl7.org/fhir/us/core/StructureDefinition/us-core-race","extension":[{"url":"ombCategory","valueCoding":{"system":"urn:oid:2.16.840.1.113883.6.238","code":"1002-5","display":"American Indian or Alaska Native","userSelected":true}},{"url":"text","valueString":"American Indian or Alaska Native"}]},{"url":"http://hl7.org/fhir/us/core/StructureDefinition/us-core-ethnicity","extension":[{"url":"ombCategory","valueCoding":{"system":"urn:oid:2.16.840.1.113883.6.238","code":"2135-2","display":"Hispanic or Latino","userSelected":true}},{"url":"text","valueString":"Hispanic or Latino"}]}],"identifier":[{"type":{"coding":[{"system":"http://terminology.hl7.org/CodeSystem/v2-0203","code":"MR"}]},"system":"https://bonnie-fhir.healthit.gov/","value":"63487c2d0968f80122540143"}],"active":true,"name":[{"use":"usual","family":"DENFail","given":["EGALT37weeks"]}],"gender":"female","birthDate":"1997-02-14"},"request":{"method":"PUT","url":"Patient/912e076d-3b5d-46cc-b2cb-c78172b295a3"}},{"fullUrl":"https://madie.cms.gov/Observation/5d014eb0b848460872380449","resource":{"resourceType":"Observation","id":"886dff77-b6f4-4d8a-89a5-1f9a637c9209","meta":{"profile":["http://hl7.org/fhir/us/qicore/StructureDefinition/qicore-observation"]},"status":"final","category":[{"coding":[{"system":"http://terminology.hl7.org/CodeSystem/observation-category","code":"exam","display":"exam","userSelected":true}]}],"code":{"coding":[{"system":"http://loinc.org","code":"11977-6"}]},"subject":{"reference":"Patient/912e076d-3b5d-46cc-b2cb-c78172b295a3"},"effectiveDateTime":"2025-03-08T09:00:00.000+00:00","valueInteger":0},"request":{"method":"PUT","url":"Observation/886dff77-b6f4-4d8a-89a5-1f9a637c9209"}},{"fullUrl":"https://madie.cms.gov/Observation/5d014eb0b84846087238044b","resource":{"resourceType":"Observation","id":"b90ae93c-4e6a-4434-b76f-c62ad15b45a7","meta":{"profile":["http://hl7.org/fhir/us/qicore/StructureDefinition/qicore-observation"]},"status":"final","category":[{"coding":[{"system":"http://terminology.hl7.org/CodeSystem/observation-category","code":"exam","display":"exam","userSelected":true}]}],"code":{"coding":[{"system":"http://loinc.org","code":"11996-6"}]},"subject":{"reference":"Patient/912e076d-3b5d-46cc-b2cb-c78172b295a3"},"effectiveDateTime":"2025-03-09T08:00:00.000+00:00","valueInteger":1},"request":{"method":"PUT","url":"Observation/b90ae93c-4e6a-4434-b76f-c62ad15b45a7"}},{"fullUrl":"https://madie.cms.gov/Observation/5d014eb0b84846087238044d","resource":{"resourceType":"Observation","id":"95d9a256-991f-44f0-b0c7-e2d5b4ff55ee","meta":{"profile":["http://hl7.org/fhir/us/qicore/StructureDefinition/qicore-observation"]},"status":"final","category":[{"coding":[{"system":"http://terminology.hl7.org/CodeSystem/observation-category","code":"exam","display":"exam","userSelected":true}]}],"code":{"coding":[{"system":"http://loinc.org","code":"11884-4"}]},"subject":{"reference":"Patient/912e076d-3b5d-46cc-b2cb-c78172b295a3"},"effectiveDateTime":"2025-06-08T17:00:00.000+00:00","valueQuantity":{"value":36.0,"system":"http://unitsofmeasure.org","code":"weeks"}},"request":{"method":"PUT","url":"Observation/95d9a256-991f-44f0-b0c7-e2d5b4ff55ee"}},{"fullUrl":"https://madie.cms.gov/Observation/5e698cf97ffec7000032359c","resource":{"resourceType":"Observation","id":"10b7e9f3-de90-4a88-a50a-88ba91962bcb","meta":{"profile":["http://hl7.org/fhir/us/qicore/StructureDefinition/qicore-observation"]},"status":"final","category":[{"coding":[{"system":"http://terminology.hl7.org/CodeSystem/observation-category","code":"exam","display":"exam","userSelected":true}]}],"code":{"coding":[{"system":"http://loinc.org","code":"93857-1"}]},"subject":{"reference":"Patient/912e076d-3b5d-46cc-b2cb-c78172b295a3"},"effectiveDateTime":"2025-06-08T20:00:00.000+00:00","valueDateTime":"2025-06-08T20:00:00+00:00"},"request":{"method":"PUT","url":"Observation/10b7e9f3-de90-4a88-a50a-88ba91962bcb"}},{"fullUrl":"https://madie.cms.gov/Encounter/5d014eb0b848460872380447","resource":{"resourceType":"Encounter","id":"f8a9c015-20a9-44d5-8806-b5606d1c71f1","meta":{"profile":["http://hl7.org/fhir/us/qicore/StructureDefinition/qicore-encounter"]},"status":"finished","class":{"system":"http://terminology.hl7.org/CodeSystem/v3-ActCode","code":"IMP","display":"inpatient encounter"},"type":[{"coding":[{"system":"http://snomed.info/sct","code":"8715000"}]}],"subject":{"reference":"Patient/912e076d-3b5d-46cc-b2cb-c78172b295a3"},"period":{"start":"2025-06-08T08:00:00.000Z","end":"2025-06-10T08:15:00.000Z"},"length":{"value":2.0,"unit":"days"},"diagnosis":[{"condition":{"reference":"Condition/delivery-of-singleton-f83c"},"use":{"coding":[{"system":"http://snomed.info/sct","code":"169826009","display":"Delivery of Singleton"}]}},{"condition":{"reference":"Condition/delivery-of-singleton-4b2c"}}]},"request":{"method":"PUT","url":"Encounter/f8a9c015-20a9-44d5-8806-b5606d1c71f1"}},{"fullUrl":"https://madie.cms.gov/Procedure/5d014eb0b848460872380448","resource":{"resourceType":"Procedure","id":"03231eb6-2d4b-42ee-ba49-fa3555fd9aab","meta":{"profile":["http://hl7.org/fhir/us/qicore/StructureDefinition/qicore-procedure"]},"extension":[{"url":"http://hl7.org/fhir/us/qicore/StructureDefinition/qicore-recorded","valueDateTime":"2013-04-05T09:35:00-04:00"}],"status":"completed","code":{"coding":[{"system":"http://www.cms.gov/Medicare/Coding/ICD10","code":"10D00Z0"},{"system":"http://snomed.info/sct","code":"4504004"},{"system":"http://www.icd10data.com/icd10pcs","code":"10D00Z0","userSelected":true}]},"subject":{"reference":"Patient/912e076d-3b5d-46cc-b2cb-c78172b295a3"},"performedPeriod":{"start":"2025-06-08T20:00:00.000Z"}},"request":{"method":"PUT","url":"Procedure/03231eb6-2d4b-42ee-ba49-fa3555fd9aab"}},{"fullUrl":"https://madie.cms.gov/Condition/delivery-of-singleton-4b2c","resource":{"resourceType":"Condition","id":"623d3397-5970-4b5b-92bd-5006db8253d9","meta":{"profile":["http://hl7.org/fhir/us/qicore/StructureDefinition/qicore-condition"]},"category":[{"coding":[{"system":"http://terminology.hl7.org/CodeSystem/condition-category","code":"encounter-diagnosis","display":"Encounter Diagnosis"}]}],"code":{"coding":[{"system":"http://snomed.info/sct","version":"2022-09","code":"169826009","display":"Single live birth (finding)","userSelected":true}]},"subject":{"reference":"Patient/912e076d-3b5d-46cc-b2cb-c78172b295a3"},"recordedDate":"2025-10-21T08:00:00.000+00:00"},"request":{"method":"PUT","url":"Condition/623d3397-5970-4b5b-92bd-5006db8253d9"}},{"fullUrl":"https://madie.cms.gov/Coverage/1","resource":{"resourceType":"Coverage","id":"3a978f06-f92b-4f1a-a3c7-538923304952","meta":{"profile":["http://hl7.org/fhir/us/qicore/StructureDefinition/qicore-coverage"]},"status":"active","beneficiary":{"reference":"Patient/912e076d-3b5d-46cc-b2cb-c78172b295a3"},"payor":[{"reference":"Organization/33ead57e-5e04-40e4-95ea-bc3cdbd58917"}]},"request":{"method":"PUT","url":"Coverage/3a978f06-f92b-4f1a-a3c7-538923304952"}},{"fullUrl":"https://madie.cms.gov/Organization/123456","resource":{"resourceType":"Organization","id":"33ead57e-5e04-40e4-95ea-bc3cdbd58917","meta":{"profile":["http://hl7.org/fhir/us/qicore/StructureDefinition/qicore-organization"]},"identifier":[{"use":"temp","system":"urn:oid:2.16.840.1.113883.4.4","value":"21-3259825"}],"active":true,"type":[{"coding":[{"system":"http://terminology.hl7.org/CodeSystem/organization-type","code":"pay","display":"Payer"}]}],"name":"Blue Cross Blue Shield of Texas","telecom":[{"system":"phone","value":"(+1) 972-766-6900"}],"address":[{"use":"billing","type":"postal","line":["P.O. Box 660044"],"city":"Dallas","state":"TX","postalCode":"75266-0044","country":"USA"}]},"request":{"method":"PUT","url":"Organization/33ead57e-5e04-40e4-95ea-bc3cdbd58917"}},{"fullUrl":"https://madie.cms.gov/Practitioner/practitioner-123456","resource":{"resourceType":"Practitioner","id":"4f4b2047-1f06-4c8f-96bb-6e5dc1084c18","identifier":[{"system":"http://hl7.org/fhir/sid/us-npi","value":"123456"}],"name":[{"family":"Evil","prefix":["Dr"]}]},"request":{"method":"PUT","url":"Practitioner/4f4b2047-1f06-4c8f-96bb-6e5dc1084c18"}},{"fullUrl":"https://madie.cms.gov/MeasureReport/f428c8e0-e822-4d4d-b008-e4a340c9c86e","resource":{"resourceType":"MeasureReport","id":"f428c8e0-e822-4d4d-b008-e4a340c9c86e","meta":{"profile":["http://hl7.org/fhir/us/cqfmeasures/StructureDefinition/test-case-cqfm"]},"contained":[{"resourceType":"Parameters","id":"9ee92ce9-b4a9-40ae-b277-7e42fdfd68d6-parameters","parameter":[{"name":"subject","valueString":"912e076d-3b5d-46cc-b2cb-c78172b295a3"}]}],"extension":[{"url":"http://hl7.org/fhir/us/cqfmeasures/StructureDefinition/cqfm-inputParameters","valueReference":{"reference":"#9ee92ce9-b4a9-40ae-b277-7e42fdfd68d6-parameters"}},{"url":"http://hl7.org/fhir/us/cqfmeasures/StructureDefinition/cqfm-testCaseDescription","valueMarkdown":"Passes IP,  intentional fail of the Den d/t EGA 36 weeks\n"}],"modifierExtension":[{"url":"http://hl7.org/fhir/us/cqfmeasures/StructureDefinition/cqfm-isTestCase","valueBoolean":true}],"status":"complete","type":"individual","measure":"https://madie.cms.gov/Measure/CesareanBirthFHIR","period":{"start":"2025-01-01","end":"2025-12-31"},"group":[{"population":[{"code":{"coding":[{"system":"http://terminology.hl7.org/CodeSystem/measure-population","code":"initial-population","display":"Initial Population"}]},"count":1},{"code":{"coding":[{"system":"http://terminology.hl7.org/CodeSystem/measure-population","code":"denominator","display":"Denominator"}]},"count":0},{"code":{"coding":[{"system":"http://terminology.hl7.org/CodeSystem/measure-population","code":"denominator-exclusion","display":"Denominator Exclusion"}]},"count":0},{"code":{"coding":[{"system":"http://terminology.hl7.org/CodeSystem/measure-population","code":"numerator","display":"Numerator"}]},"count":0}]}]},"request":{"method":"PUT","url":"MeasureReport/f428c8e0-e822-4d4d-b008-e4a340c9c86e"}}]}