{"resourceType":"Bundle","id":"tests-5bbc4c9f-8624-412e-bc07-74898e5f41ec-bundle","type":"transaction","entry":[{"fullUrl":"https://madie.cms.gov/Patient/5bbc4c9f-8624-412e-bc07-74898e5f41ec","resource":{"resourceType":"Patient","id":"5bbc4c9f-8624-412e-bc07-74898e5f41ec","meta":{"profile":["http://hl7.org/fhir/us/qicore/StructureDefinition/qicore-patient"]},"text":{"status":"generated","div":"<div xmlns=\"http://www.w3.org/1999/xhtml\"><div class=\"hapiHeaderText\">AssessPreTerm0RelDate42wksB4DelivDate <b>DENPASS </b></div><table class=\"hapiPropertyTable\"><tbody><tr><td>Identifier</td><td>ae2c858214ff9b1ffdc193923955b0f25c757408279ae2f0e7ea89ca980dbad8</td></tr><tr><td>Date of birth</td><td><span>14 February 1985</span></td></tr></tbody></table></div>"},"extension":[{"url":"http://hl7.org/fhir/us/core/StructureDefinition/us-core-race","extension":[{"url":"ombCategory","valueCoding":{"system":"urn:oid:2.16.840.1.113883.6.238","code":"1002-5","display":"American Indian or Alaska Native","userSelected":true}},{"url":"text","valueString":"American Indian or Alaska Native"}]},{"url":"http://hl7.org/fhir/us/core/StructureDefinition/us-core-ethnicity","extension":[{"url":"ombCategory","valueCoding":{"system":"urn:oid:2.16.840.1.113883.6.238","code":"2135-2","display":"Hispanic or Latino","userSelected":true}},{"url":"text","valueString":"Hispanic or Latino"}]}],"identifier":[{"type":{"coding":[{"system":"http://terminology.hl7.org/CodeSystem/v2-0203","code":"MR"}]},"system":"https://bonnie-fhir.healthit.gov/","value":"63487c2f0968f8012254018f"}],"active":true,"name":[{"use":"usual","family":"DENPass","given":["AssessPreTerm0RelPerStartTime42wksB4DelivDateTime"]}],"gender":"female","birthDate":"1997-02-14"},"request":{"method":"PUT","url":"Patient/5bbc4c9f-8624-412e-bc07-74898e5f41ec"}},{"fullUrl":"https://madie.cms.gov/Observation/5d014eb2b84846087238068e","resource":{"resourceType":"Observation","id":"0a338cd4-63f9-4e35-aff4-dcf529f64df2","meta":{"profile":["http://hl7.org/fhir/us/qicore/StructureDefinition/qicore-observation"]},"status":"final","category":[{"coding":[{"system":"http://terminology.hl7.org/CodeSystem/observation-category","code":"exam","display":"exam","userSelected":true}]}],"code":{"coding":[{"system":"http://loinc.org","code":"11637-6"}]},"subject":{"reference":"Patient/5bbc4c9f-8624-412e-bc07-74898e5f41ec"},"effectivePeriod":{"start":"2024-08-19T20:00:00.000+00:00","end":"2024-08-19T20:00:00.000+00:00"},"valueInteger":0},"request":{"method":"PUT","url":"Observation/0a338cd4-63f9-4e35-aff4-dcf529f64df2"}},{"fullUrl":"https://madie.cms.gov/Observation/5d014eb2b848460872380690","resource":{"resourceType":"Observation","id":"001ac541-7a40-4c81-85cc-2b06a5cb10ca","meta":{"profile":["http://hl7.org/fhir/us/qicore/StructureDefinition/qicore-observation"]},"status":"final","category":[{"coding":[{"system":"http://terminology.hl7.org/CodeSystem/observation-category","code":"exam","display":"exam","userSelected":true}]}],"code":{"coding":[{"system":"http://loinc.org","code":"11639-2"}]},"subject":{"reference":"Patient/5bbc4c9f-8624-412e-bc07-74898e5f41ec"},"effectiveDateTime":"2024-09-19T09:00:00.000+00:00","valueInteger":0},"request":{"method":"PUT","url":"Observation/001ac541-7a40-4c81-85cc-2b06a5cb10ca"}},{"fullUrl":"https://madie.cms.gov/Observation/5d014eb2b848460872380692","resource":{"resourceType":"Observation","id":"2f34449e-1639-4d73-a464-14523c96117c","meta":{"profile":["http://hl7.org/fhir/us/qicore/StructureDefinition/qicore-observation"]},"status":"final","category":[{"coding":[{"system":"http://terminology.hl7.org/CodeSystem/observation-category","code":"exam","display":"exam","userSelected":true}]}],"code":{"coding":[{"system":"http://loinc.org","code":"11884-4"}]},"subject":{"reference":"Patient/5bbc4c9f-8624-412e-bc07-74898e5f41ec"},"effectiveDateTime":"2025-06-08T20:00:00.000+00:00","valueQuantity":{"value":37.0,"system":"http://unitsofmeasure.org","code":"weeks"}},"request":{"method":"PUT","url":"Observation/2f34449e-1639-4d73-a464-14523c96117c"}},{"fullUrl":"https://madie.cms.gov/Observation/5e68edb759d82f0000c96480","resource":{"resourceType":"Observation","id":"77f1e808-ec3e-498f-80f0-0c92b66f237d","meta":{"profile":["http://hl7.org/fhir/us/qicore/StructureDefinition/qicore-observation"]},"status":"final","category":[{"coding":[{"system":"http://terminology.hl7.org/CodeSystem/observation-category","code":"exam","display":"exam","userSelected":true}]}],"code":{"coding":[{"system":"http://loinc.org","code":"93857-1"}]},"subject":{"reference":"Patient/5bbc4c9f-8624-412e-bc07-74898e5f41ec"},"effectiveDateTime":"2025-06-08T20:00:00.000+00:00","valueDateTime":"2025-06-08T20:00:00+00:00"},"request":{"method":"PUT","url":"Observation/77f1e808-ec3e-498f-80f0-0c92b66f237d"}},{"fullUrl":"https://madie.cms.gov/Encounter/5d014eb2b84846087238068c","resource":{"resourceType":"Encounter","id":"289a7d8a-99ac-4bd8-bf29-b3f3179ade34","meta":{"profile":["http://hl7.org/fhir/us/qicore/StructureDefinition/qicore-encounter"]},"status":"finished","class":{"system":"http://terminology.hl7.org/CodeSystem/v3-ActCode","code":"IMP","display":"inpatient encounter"},"type":[{"coding":[{"system":"http://snomed.info/sct","code":"8715000"}]}],"subject":{"reference":"Patient/5bbc4c9f-8624-412e-bc07-74898e5f41ec"},"period":{"start":"2025-06-08T08:00:00.000Z","end":"2025-06-10T08:15:00.000Z"},"length":{"value":2.0,"unit":"days"},"diagnosis":[{"condition":{"reference":"Condition/delivery-of-singleton-f83c"},"use":{"coding":[{"system":"http://snomed.info/sct","code":"169826009","display":"Delivery of Singleton"}]}},{"condition":{"reference":"Condition/delivery-of-singleton-947a"}}]},"request":{"method":"PUT","url":"Encounter/289a7d8a-99ac-4bd8-bf29-b3f3179ade34"}},{"fullUrl":"https://madie.cms.gov/Procedure/5d014eb2b84846087238068d","resource":{"resourceType":"Procedure","id":"c9446813-aece-4950-a351-30a892e8aa38","meta":{"profile":["http://hl7.org/fhir/us/qicore/StructureDefinition/qicore-procedure"]},"extension":[{"url":"http://hl7.org/fhir/us/qicore/StructureDefinition/qicore-recorded","valueDateTime":"2013-04-05T09:35:00-04:00"}],"status":"completed","code":{"coding":[{"system":"http://www.cms.gov/Medicare/Coding/ICD10","code":"10D00Z0"},{"system":"http://snomed.info/sct","code":"4504004"},{"system":"http://www.icd10data.com/icd10pcs","code":"10D00Z1","userSelected":true}]},"subject":{"reference":"Patient/5bbc4c9f-8624-412e-bc07-74898e5f41ec"},"performedPeriod":{"start":"2025-06-08T20:00:00.000Z","end":"2025-06-08T20:15:00.000Z"}},"request":{"method":"PUT","url":"Procedure/c9446813-aece-4950-a351-30a892e8aa38"}},{"fullUrl":"https://madie.cms.gov/Condition/delivery-of-singleton-947a","resource":{"resourceType":"Condition","id":"9e982f12-2df0-4aa7-926a-b150bde92297","meta":{"profile":["http://hl7.org/fhir/us/qicore/StructureDefinition/qicore-condition"]},"category":[{"coding":[{"system":"http://terminology.hl7.org/CodeSystem/condition-category","code":"encounter-diagnosis","display":"Encounter Diagnosis"}]}],"code":{"coding":[{"system":"http://snomed.info/sct","version":"2022-09","code":"169826009","display":"Single live birth (finding)","userSelected":true}]},"subject":{"reference":"Patient/5bbc4c9f-8624-412e-bc07-74898e5f41ec"},"recordedDate":"2025-10-20T08:00:00.000+00:00"},"request":{"method":"PUT","url":"Condition/9e982f12-2df0-4aa7-926a-b150bde92297"}},{"fullUrl":"https://madie.cms.gov/Coverage/1","resource":{"resourceType":"Coverage","id":"9762155c-a24c-4de8-91e9-8249f5da98c9","meta":{"profile":["http://hl7.org/fhir/us/qicore/StructureDefinition/qicore-coverage"]},"status":"active","beneficiary":{"reference":"Patient/5bbc4c9f-8624-412e-bc07-74898e5f41ec"},"payor":[{"reference":"Organization/ec8cac12-7dd8-4c6e-8c44-d6c645085c80"}]},"request":{"method":"PUT","url":"Coverage/9762155c-a24c-4de8-91e9-8249f5da98c9"}},{"fullUrl":"https://madie.cms.gov/Organization/123456","resource":{"resourceType":"Organization","id":"ec8cac12-7dd8-4c6e-8c44-d6c645085c80","meta":{"profile":["http://hl7.org/fhir/us/qicore/StructureDefinition/qicore-organization"]},"identifier":[{"use":"temp","system":"urn:oid:2.16.840.1.113883.4.4","value":"21-3259825"}],"active":true,"type":[{"coding":[{"system":"http://terminology.hl7.org/CodeSystem/organization-type","code":"pay","display":"Payer"}]}],"name":"Blue Cross Blue Shield of Texas","telecom":[{"system":"phone","value":"(+1) 972-766-6900"}],"address":[{"use":"billing","type":"postal","line":["P.O. Box 660044"],"city":"Dallas","state":"TX","postalCode":"75266-0044","country":"USA"}]},"request":{"method":"PUT","url":"Organization/ec8cac12-7dd8-4c6e-8c44-d6c645085c80"}},{"fullUrl":"https://madie.cms.gov/Practitioner/practitioner-123456","resource":{"resourceType":"Practitioner","id":"2a9423eb-dad1-404d-b347-1d6c97c23e9c","identifier":[{"system":"http://hl7.org/fhir/sid/us-npi","value":"123456"}],"name":[{"family":"Evil","prefix":["Dr"]}]},"request":{"method":"PUT","url":"Practitioner/2a9423eb-dad1-404d-b347-1d6c97c23e9c"}},{"fullUrl":"https://madie.cms.gov/MeasureReport/49bfa0e5-a0db-44c6-988e-03be37eadcd6","resource":{"resourceType":"MeasureReport","id":"49bfa0e5-a0db-44c6-988e-03be37eadcd6","meta":{"profile":["http://hl7.org/fhir/us/cqfmeasures/StructureDefinition/test-case-cqfm"]},"contained":[{"resourceType":"Parameters","id":"d3614f28-8912-43cc-8aff-402c12ca572c-parameters","parameter":[{"name":"subject","valueString":"5bbc4c9f-8624-412e-bc07-74898e5f41ec"}]}],"extension":[{"url":"http://hl7.org/fhir/us/cqfmeasures/StructureDefinition/cqfm-inputParameters","valueReference":{"reference":"#d3614f28-8912-43cc-8aff-402c12ca572c-parameters"}},{"url":"http://hl7.org/fhir/us/cqfmeasures/StructureDefinition/cqfm-testCaseDescription","valueMarkdown":"Testing relevant period start time for Assess PreTerm\n"}],"modifierExtension":[{"url":"http://hl7.org/fhir/us/cqfmeasures/StructureDefinition/cqfm-isTestCase","valueBoolean":true}],"status":"complete","type":"individual","measure":"https://madie.cms.gov/Measure/CesareanBirthFHIR","period":{"start":"2025-01-01","end":"2025-12-31"},"group":[{"population":[{"code":{"coding":[{"system":"http://terminology.hl7.org/CodeSystem/measure-population","code":"initial-population","display":"Initial Population"}]},"count":1},{"code":{"coding":[{"system":"http://terminology.hl7.org/CodeSystem/measure-population","code":"denominator","display":"Denominator"}]},"count":1},{"code":{"coding":[{"system":"http://terminology.hl7.org/CodeSystem/measure-population","code":"denominator-exclusion","display":"Denominator Exclusion"}]},"count":0},{"code":{"coding":[{"system":"http://terminology.hl7.org/CodeSystem/measure-population","code":"numerator","display":"Numerator"}]},"count":1}]}]},"request":{"method":"PUT","url":"MeasureReport/49bfa0e5-a0db-44c6-988e-03be37eadcd6"}}]}