{"resourceType":"Bundle","id":"tests-ef3e4256-a321-4ce0-812b-ec7e7158085a-bundle","type":"transaction","entry":[{"fullUrl":"https://madie.cms.gov/Patient/ef3e4256-a321-4ce0-812b-ec7e7158085a","resource":{"resourceType":"Patient","id":"ef3e4256-a321-4ce0-812b-ec7e7158085a","meta":{"profile":["http://hl7.org/fhir/us/qicore/StructureDefinition/qicore-patient"]},"text":{"status":"generated","div":"<div xmlns=\"http://www.w3.org/1999/xhtml\"><div class=\"hapiHeaderText\">EGAGT37weeks <b>DENPASS </b></div><table class=\"hapiPropertyTable\"><tbody><tr><td>Identifier</td><td>3d63596528a6709b3c477184d2beceba721ef15e438ac396acce60f49e6f846c</td></tr><tr><td>Date of birth</td><td><span>14 February 1985</span></td></tr></tbody></table></div>"},"extension":[{"url":"http://hl7.org/fhir/us/core/StructureDefinition/us-core-race","extension":[{"url":"ombCategory","valueCoding":{"system":"urn:oid:2.16.840.1.113883.6.238","code":"1002-5","display":"American Indian or Alaska Native","userSelected":true}},{"url":"text","valueString":"American Indian or Alaska Native"}]},{"url":"http://hl7.org/fhir/us/core/StructureDefinition/us-core-ethnicity","extension":[{"url":"ombCategory","valueCoding":{"system":"urn:oid:2.16.840.1.113883.6.238","code":"2135-2","display":"Hispanic or Latino","userSelected":true}},{"url":"text","valueString":"Hispanic or Latino"}]}],"identifier":[{"type":{"coding":[{"system":"http://terminology.hl7.org/CodeSystem/v2-0203","code":"MR"}]},"system":"https://bonnie-fhir.healthit.gov/","value":"63487c2e0968f8012254016f"}],"active":true,"name":[{"use":"usual","family":"DENPass","given":["EGAGT37weeks "]}],"gender":"female","birthDate":"1997-02-14"},"request":{"method":"PUT","url":"Patient/ef3e4256-a321-4ce0-812b-ec7e7158085a"}},{"fullUrl":"https://madie.cms.gov/Observation/5d014eb2b848460872380595","resource":{"resourceType":"Observation","id":"7d056b69-1b58-46c3-bac4-4d7c5363ae0a","meta":{"profile":["http://hl7.org/fhir/us/qicore/StructureDefinition/qicore-observation"]},"status":"final","category":[{"coding":[{"system":"http://terminology.hl7.org/CodeSystem/observation-category","code":"exam","display":"exam","userSelected":true}]}],"code":{"coding":[{"system":"http://loinc.org","code":"11996-6"}]},"subject":{"reference":"Patient/ef3e4256-a321-4ce0-812b-ec7e7158085a"},"effectiveDateTime":"2025-06-08T08:00:00.000+00:00","valueInteger":1},"request":{"method":"PUT","url":"Observation/7d056b69-1b58-46c3-bac4-4d7c5363ae0a"}},{"fullUrl":"https://madie.cms.gov/Observation/5d014eb2b848460872380597","resource":{"resourceType":"Observation","id":"849e710c-9189-4fa3-a5c4-c875b6ce1752","meta":{"profile":["http://hl7.org/fhir/us/qicore/StructureDefinition/qicore-observation"]},"status":"final","category":[{"coding":[{"system":"http://terminology.hl7.org/CodeSystem/observation-category","code":"exam","display":"exam","userSelected":true}]}],"code":{"coding":[{"system":"http://loinc.org","code":"11884-4"}]},"subject":{"reference":"Patient/ef3e4256-a321-4ce0-812b-ec7e7158085a"},"effectiveDateTime":"2025-06-08T09:15:00.000+00:00","valueQuantity":{"value":38.0,"system":"http://unitsofmeasure.org","code":"weeks"}},"request":{"method":"PUT","url":"Observation/849e710c-9189-4fa3-a5c4-c875b6ce1752"}},{"fullUrl":"https://madie.cms.gov/Observation/5e6938d87ffec7000031eaa0","resource":{"resourceType":"Observation","id":"d13e117d-74a7-483e-a872-2a80b909d906","meta":{"profile":["http://hl7.org/fhir/us/qicore/StructureDefinition/qicore-observation"]},"status":"final","category":[{"coding":[{"system":"http://terminology.hl7.org/CodeSystem/observation-category","code":"exam","display":"exam","userSelected":true}]}],"code":{"coding":[{"system":"http://loinc.org","code":"93857-1"}]},"subject":{"reference":"Patient/ef3e4256-a321-4ce0-812b-ec7e7158085a"},"effectiveDateTime":"2025-06-08T09:15:00.000+00:00","valueDateTime":"2025-06-08T09:15:00+00:00"},"request":{"method":"PUT","url":"Observation/d13e117d-74a7-483e-a872-2a80b909d906"}},{"fullUrl":"https://madie.cms.gov/Encounter/5d014eb2b848460872380593","resource":{"resourceType":"Encounter","id":"bb49c64b-a794-4ce7-aac6-808029f5d2de","meta":{"profile":["http://hl7.org/fhir/us/qicore/StructureDefinition/qicore-encounter"]},"status":"finished","class":{"system":"http://terminology.hl7.org/CodeSystem/v3-ActCode","code":"IMP","display":"inpatient encounter"},"type":[{"coding":[{"system":"http://snomed.info/sct","code":"183452005"}]}],"subject":{"reference":"Patient/ef3e4256-a321-4ce0-812b-ec7e7158085a"},"period":{"start":"2025-06-08T08:00:00.000Z","end":"2025-06-10T08:15:00.000Z"},"length":{"value":2.0,"unit":"days"},"diagnosis":[{"condition":{"reference":"Condition/delivery-of-singleton-f83c"},"use":{"coding":[{"system":"http://snomed.info/sct","code":"169826009","display":"Delivery of Singleton"}]}},{"condition":{"reference":"Condition/abnormal-presentation-9a7c"},"use":{"coding":[{"system":"http://snomed.info/sct","code":"18559007","display":"Frank breech presentation (finding)"}]}},{"condition":{"reference":"Condition/delivery-of-singleton-7771"}},{"condition":{"reference":"Condition/abnormal-presentation-9a7c"}}]},"request":{"method":"PUT","url":"Encounter/bb49c64b-a794-4ce7-aac6-808029f5d2de"}},{"fullUrl":"https://madie.cms.gov/Coverage/5f5f9e491c76ba674bb032ec","resource":{"resourceType":"Coverage","id":"bbf9c186-1b40-48b1-bbcb-c29019dd3f43","status":"active","beneficiary":{"reference":"Patient/ef3e4256-a321-4ce0-812b-ec7e7158085a"},"period":{"start":"1985-02-14T08:00:00.000Z"},"payor":[{"reference":"Organization/a6c3e6fa-301e-4714-9d04-3dde9a7e7c49"}]},"request":{"method":"PUT","url":"Coverage/bbf9c186-1b40-48b1-bbcb-c29019dd3f43"}},{"fullUrl":"https://madie.cms.gov/Procedure/5d014eb2b848460872380594","resource":{"resourceType":"Procedure","id":"0da1cbc5-5d76-42b9-b0f2-0e53f76773f2","meta":{"profile":["http://hl7.org/fhir/us/qicore/StructureDefinition/qicore-procedure"]},"extension":[{"url":"http://hl7.org/fhir/us/qicore/StructureDefinition/qicore-recorded","valueDateTime":"2013-04-05T09:35:00-04:00"}],"status":"completed","code":{"coding":[{"system":"http://www.cms.gov/Medicare/Coding/ICD10","code":"10D00Z0"},{"system":"http://www.icd10data.com/icd10pcs","code":"10D07Z3","userSelected":true}]},"subject":{"reference":"Patient/ef3e4256-a321-4ce0-812b-ec7e7158085a"},"performedPeriod":{"start":"2025-06-08T08:00:00.000Z","end":"2025-06-08T09:15:00.000Z"}},"request":{"method":"PUT","url":"Procedure/0da1cbc5-5d76-42b9-b0f2-0e53f76773f2"}},{"fullUrl":"https://madie.cms.gov/Condition/delivery-of-singleton-7771","resource":{"resourceType":"Condition","id":"bd1034d5-be47-4c4d-a814-97de4e25b423","meta":{"profile":["http://hl7.org/fhir/us/qicore/StructureDefinition/qicore-condition"]},"category":[{"coding":[{"system":"http://terminology.hl7.org/CodeSystem/condition-category","code":"encounter-diagnosis","display":"Encounter Diagnosis"}]}],"code":{"coding":[{"system":"http://snomed.info/sct","version":"2022-09","code":"169826009","display":"Single live birth (finding)","userSelected":true}]},"subject":{"reference":"Patient/ef3e4256-a321-4ce0-812b-ec7e7158085a"},"recordedDate":"2025-10-20T08:00:00.000+00:00"},"request":{"method":"PUT","url":"Condition/bd1034d5-be47-4c4d-a814-97de4e25b423"}},{"fullUrl":"https://madie.cms.gov/Condition/abnormal-presentation-9a7c","resource":{"resourceType":"Condition","id":"4a08d943-0482-46bb-b7e0-597f28e0e5df","meta":{"profile":["http://hl7.org/fhir/us/qicore/StructureDefinition/qicore-condition"]},"category":[{"coding":[{"system":"http://terminology.hl7.org/CodeSystem/condition-category","code":"encounter-diagnosis","display":"Encounter Diagnosis"}]}],"code":{"coding":[{"system":"http://snomed.info/sct","version":"2022-09","code":"18559007","display":"Frank breech presentation (finding)","userSelected":true}]},"subject":{"reference":"Patient/ef3e4256-a321-4ce0-812b-ec7e7158085a"},"recordedDate":"2025-10-21T08:00:00.000+00:00"},"request":{"method":"PUT","url":"Condition/4a08d943-0482-46bb-b7e0-597f28e0e5df"}},{"fullUrl":"https://madie.cms.gov/Organization/123456","resource":{"resourceType":"Organization","id":"a6c3e6fa-301e-4714-9d04-3dde9a7e7c49","meta":{"profile":["http://hl7.org/fhir/us/qicore/StructureDefinition/qicore-organization"]},"identifier":[{"use":"temp","system":"urn:oid:2.16.840.1.113883.4.4","value":"21-3259825"}],"active":true,"type":[{"coding":[{"system":"http://terminology.hl7.org/CodeSystem/organization-type","code":"pay","display":"Payer"}]}],"name":"Blue Cross Blue Shield of Texas","telecom":[{"system":"phone","value":"(+1) 972-766-6900"}],"address":[{"use":"billing","type":"postal","line":["P.O. Box 660044"],"city":"Dallas","state":"TX","postalCode":"75266-0044","country":"USA"}]},"request":{"method":"PUT","url":"Organization/a6c3e6fa-301e-4714-9d04-3dde9a7e7c49"}},{"fullUrl":"https://madie.cms.gov/Practitioner/practitioner-123456","resource":{"resourceType":"Practitioner","id":"a05c281c-9f2c-43b0-be46-8a5985e7d3f6","identifier":[{"system":"http://hl7.org/fhir/sid/us-npi","value":"123456"}],"name":[{"family":"Evil","prefix":["Dr"]}]},"request":{"method":"PUT","url":"Practitioner/a05c281c-9f2c-43b0-be46-8a5985e7d3f6"}},{"fullUrl":"https://madie.cms.gov/MeasureReport/e9fafa20-d9b6-4539-a3ae-a1789f0131d4","resource":{"resourceType":"MeasureReport","id":"e9fafa20-d9b6-4539-a3ae-a1789f0131d4","meta":{"profile":["http://hl7.org/fhir/us/cqfmeasures/StructureDefinition/test-case-cqfm"]},"contained":[{"resourceType":"Parameters","id":"28cd4dd8-adcf-47e4-b0c1-dd74c431b475-parameters","parameter":[{"name":"subject","valueString":"ef3e4256-a321-4ce0-812b-ec7e7158085a"}]}],"extension":[{"url":"http://hl7.org/fhir/us/cqfmeasures/StructureDefinition/cqfm-inputParameters","valueReference":{"reference":"#28cd4dd8-adcf-47e4-b0c1-dd74c431b475-parameters"}},{"url":"http://hl7.org/fhir/us/cqfmeasures/StructureDefinition/cqfm-testCaseDescription","valueMarkdown":"Passes: IP, Pt is 27 years of age,  encounter dx of delivery of singleton, gravida1, EGA38 weeks\n"}],"modifierExtension":[{"url":"http://hl7.org/fhir/us/cqfmeasures/StructureDefinition/cqfm-isTestCase","valueBoolean":true}],"status":"complete","type":"individual","measure":"https://madie.cms.gov/Measure/CesareanBirthFHIR","period":{"start":"2025-01-01","end":"2025-12-31"},"group":[{"population":[{"code":{"coding":[{"system":"http://terminology.hl7.org/CodeSystem/measure-population","code":"initial-population","display":"Initial Population"}]},"count":1},{"code":{"coding":[{"system":"http://terminology.hl7.org/CodeSystem/measure-population","code":"denominator","display":"Denominator"}]},"count":1},{"code":{"coding":[{"system":"http://terminology.hl7.org/CodeSystem/measure-population","code":"denominator-exclusion","display":"Denominator Exclusion"}]},"count":1},{"code":{"coding":[{"system":"http://terminology.hl7.org/CodeSystem/measure-population","code":"numerator","display":"Numerator"}]},"count":0}]}]},"request":{"method":"PUT","url":"MeasureReport/e9fafa20-d9b6-4539-a3ae-a1789f0131d4"}}]}