{"resourceType":"Bundle","id":"tests-9cc71655-c4cd-47cf-ad10-de338da53885-bundle","type":"transaction","entry":[{"fullUrl":"https://madie.cms.gov/Patient/9cc71655-c4cd-47cf-ad10-de338da53885","resource":{"resourceType":"Patient","id":"9cc71655-c4cd-47cf-ad10-de338da53885","meta":{"profile":["http://hl7.org/fhir/us/qicore/StructureDefinition/qicore-patient"]},"text":{"status":"generated","div":"<div xmlns=\"http://www.w3.org/1999/xhtml\"><div class=\"hapiHeaderText\">AssessTerm0PreTerm0NoGravNoPar <b>DENPASS </b></div><table class=\"hapiPropertyTable\"><tbody><tr><td>Identifier</td><td>64127fc9d7fd126eace3c4b20a012fe3796c9abd90c573be4c372bf5eb0ed0f9</td></tr><tr><td>Date of birth</td><td><span>14 February 1985</span></td></tr></tbody></table></div>"},"extension":[{"url":"http://hl7.org/fhir/us/core/StructureDefinition/us-core-race","extension":[{"url":"ombCategory","valueCoding":{"system":"urn:oid:2.16.840.1.113883.6.238","code":"1002-5","display":"American Indian or Alaska Native","userSelected":true}},{"url":"text","valueString":"American Indian or Alaska Native"}]},{"url":"http://hl7.org/fhir/us/core/StructureDefinition/us-core-ethnicity","extension":[{"url":"ombCategory","valueCoding":{"system":"urn:oid:2.16.840.1.113883.6.238","code":"2135-2","display":"Hispanic or Latino","userSelected":true}},{"url":"text","valueString":"Hispanic or Latino"}]}],"identifier":[{"type":{"coding":[{"system":"http://terminology.hl7.org/CodeSystem/v2-0203","code":"MR"}]},"system":"https://bonnie-fhir.healthit.gov/","value":"63487c2d0968f80122540165"}],"active":true,"name":[{"use":"usual","family":"DENPass","given":["AssessTerm0PreTerm0NoGravNoPar"]}],"gender":"female","birthDate":"1997-02-14"},"request":{"method":"PUT","url":"Patient/9cc71655-c4cd-47cf-ad10-de338da53885"}},{"fullUrl":"https://madie.cms.gov/Observation/5d014eb1b848460872380558","resource":{"resourceType":"Observation","id":"a355bca6-5023-4058-9a6f-c443a48be6e7","meta":{"profile":["http://hl7.org/fhir/us/qicore/StructureDefinition/qicore-observation"]},"status":"final","category":[{"coding":[{"system":"http://terminology.hl7.org/CodeSystem/observation-category","code":"exam","display":"exam","userSelected":true}]}],"code":{"coding":[{"system":"http://loinc.org","code":"11639-2"}]},"subject":{"reference":"Patient/9cc71655-c4cd-47cf-ad10-de338da53885"},"effectiveDateTime":"2025-06-08T09:00:00.000+00:00","valueInteger":0},"request":{"method":"PUT","url":"Observation/a355bca6-5023-4058-9a6f-c443a48be6e7"}},{"fullUrl":"https://madie.cms.gov/Observation/5d014eb1b84846087238055a","resource":{"resourceType":"Observation","id":"600469f1-6adc-4f01-97e7-354549c2e25e","meta":{"profile":["http://hl7.org/fhir/us/qicore/StructureDefinition/qicore-observation"]},"status":"final","category":[{"coding":[{"system":"http://terminology.hl7.org/CodeSystem/observation-category","code":"exam","display":"exam","userSelected":true}]}],"code":{"coding":[{"system":"http://loinc.org","code":"11637-6"}]},"subject":{"reference":"Patient/9cc71655-c4cd-47cf-ad10-de338da53885"},"effectiveDateTime":"2025-06-08T09:15:00.000+00:00","valueInteger":0},"request":{"method":"PUT","url":"Observation/600469f1-6adc-4f01-97e7-354549c2e25e"}},{"fullUrl":"https://madie.cms.gov/Observation/5d014eb1b84846087238055c","resource":{"resourceType":"Observation","id":"6ff99450-6e82-41fe-8f06-e5c6f59f47d3","meta":{"profile":["http://hl7.org/fhir/us/qicore/StructureDefinition/qicore-observation"]},"status":"final","category":[{"coding":[{"system":"http://terminology.hl7.org/CodeSystem/observation-category","code":"exam","display":"exam","userSelected":true}]}],"code":{"coding":[{"system":"http://loinc.org","code":"11884-4"}]},"subject":{"reference":"Patient/9cc71655-c4cd-47cf-ad10-de338da53885"},"effectiveDateTime":"2025-06-08T21:15:00.000+00:00","valueQuantity":{"value":37.0,"system":"http://unitsofmeasure.org","code":"weeks"}},"request":{"method":"PUT","url":"Observation/6ff99450-6e82-41fe-8f06-e5c6f59f47d3"}},{"fullUrl":"https://madie.cms.gov/Observation/5e69336f7ffec7000031e54d","resource":{"resourceType":"Observation","id":"d2afbe7b-1a8d-4fa3-b244-23e1fb6d05d8","meta":{"profile":["http://hl7.org/fhir/us/qicore/StructureDefinition/qicore-observation"]},"status":"final","category":[{"coding":[{"system":"http://terminology.hl7.org/CodeSystem/observation-category","code":"exam","display":"exam","userSelected":true}]}],"code":{"coding":[{"system":"http://loinc.org","code":"93857-1"}]},"subject":{"reference":"Patient/9cc71655-c4cd-47cf-ad10-de338da53885"},"effectiveDateTime":"2025-06-08T21:15:00.000+00:00","valueDateTime":"2025-06-08T21:15:00+00:00"},"request":{"method":"PUT","url":"Observation/d2afbe7b-1a8d-4fa3-b244-23e1fb6d05d8"}},{"fullUrl":"https://madie.cms.gov/Encounter/5d014eb1b848460872380556","resource":{"resourceType":"Encounter","id":"19c59727-b6c2-4514-8dfb-545090e57721","meta":{"profile":["http://hl7.org/fhir/us/qicore/StructureDefinition/qicore-encounter"]},"status":"finished","class":{"system":"http://terminology.hl7.org/CodeSystem/v3-ActCode","code":"IMP","display":"inpatient encounter"},"type":[{"coding":[{"system":"http://snomed.info/sct","code":"8715000"}]}],"subject":{"reference":"Patient/9cc71655-c4cd-47cf-ad10-de338da53885"},"period":{"start":"2025-06-08T08:00:00.000Z","end":"2025-06-10T08:15:00.000Z"},"length":{"value":2.0,"unit":"days"},"diagnosis":[{"condition":{"reference":"Condition/delivery-of-singleton-f83c"},"use":{"coding":[{"system":"http://snomed.info/sct","code":"169826009","display":"Delivery of Singleton"}]}},{"condition":{"reference":"Condition/delivery-of-singleton-947f"}}]},"request":{"method":"PUT","url":"Encounter/19c59727-b6c2-4514-8dfb-545090e57721"}},{"fullUrl":"https://madie.cms.gov/Procedure/5e6933dc7ffec7000031e5c8","resource":{"resourceType":"Procedure","id":"4e4695b6-1f40-44be-a6bd-c5b6ba255084","meta":{"profile":["http://hl7.org/fhir/us/qicore/StructureDefinition/qicore-procedure"]},"extension":[{"url":"http://hl7.org/fhir/us/qicore/StructureDefinition/qicore-recorded","valueDateTime":"2013-04-05T09:35:00-04:00"}],"status":"completed","code":{"coding":[{"system":"http://www.cms.gov/Medicare/Coding/ICD10","code":"10D00Z0"},{"system":"http://www.icd10data.com/icd10pcs","code":"10D00Z2","userSelected":true}]},"subject":{"reference":"Patient/9cc71655-c4cd-47cf-ad10-de338da53885"},"performedPeriod":{"start":"2025-06-08T20:00:00.000Z","end":"2025-06-08T21:15:00.000Z"}},"request":{"method":"PUT","url":"Procedure/4e4695b6-1f40-44be-a6bd-c5b6ba255084"}},{"fullUrl":"https://madie.cms.gov/Condition/delivery-of-singleton-947f","resource":{"resourceType":"Condition","id":"530fde39-41a2-4a50-a368-70eb61bedaba","meta":{"profile":["http://hl7.org/fhir/us/qicore/StructureDefinition/qicore-condition"]},"category":[{"coding":[{"system":"http://terminology.hl7.org/CodeSystem/condition-category","code":"encounter-diagnosis","display":"Encounter Diagnosis"}]}],"code":{"coding":[{"system":"http://snomed.info/sct","version":"2022-09","code":"169826009","display":"Single live birth (finding)","userSelected":true}]},"subject":{"reference":"Patient/9cc71655-c4cd-47cf-ad10-de338da53885"},"recordedDate":"2025-10-20T08:00:00.000+00:00"},"request":{"method":"PUT","url":"Condition/530fde39-41a2-4a50-a368-70eb61bedaba"}},{"fullUrl":"https://madie.cms.gov/Coverage/1","resource":{"resourceType":"Coverage","id":"9b0b84be-6240-4935-9007-a0aac08b6aee","meta":{"profile":["http://hl7.org/fhir/us/qicore/StructureDefinition/qicore-coverage"]},"status":"active","beneficiary":{"reference":"Patient/9cc71655-c4cd-47cf-ad10-de338da53885"},"payor":[{"reference":"Organization/a6c3e6fa-301e-4714-9d04-3dde9a7e7c49"}]},"request":{"method":"PUT","url":"Coverage/9b0b84be-6240-4935-9007-a0aac08b6aee"}},{"fullUrl":"https://madie.cms.gov/Organization/123456","resource":{"resourceType":"Organization","id":"a6c3e6fa-301e-4714-9d04-3dde9a7e7c49","meta":{"profile":["http://hl7.org/fhir/us/qicore/StructureDefinition/qicore-organization"]},"identifier":[{"use":"temp","system":"urn:oid:2.16.840.1.113883.4.4","value":"21-3259825"}],"active":true,"type":[{"coding":[{"system":"http://terminology.hl7.org/CodeSystem/organization-type","code":"pay","display":"Payer"}]}],"name":"Blue Cross Blue Shield of Texas","telecom":[{"system":"phone","value":"(+1) 972-766-6900"}],"address":[{"use":"billing","type":"postal","line":["P.O. Box 660044"],"city":"Dallas","state":"TX","postalCode":"75266-0044","country":"USA"}]},"request":{"method":"PUT","url":"Organization/a6c3e6fa-301e-4714-9d04-3dde9a7e7c49"}},{"fullUrl":"https://madie.cms.gov/Practitioner/practitioner-123456","resource":{"resourceType":"Practitioner","id":"74ac89ed-68fb-4516-a154-3674800a177c","identifier":[{"system":"http://hl7.org/fhir/sid/us-npi","value":"123456"}],"name":[{"family":"Evil","prefix":["Dr"]}]},"request":{"method":"PUT","url":"Practitioner/74ac89ed-68fb-4516-a154-3674800a177c"}},{"fullUrl":"https://madie.cms.gov/MeasureReport/07c5c5b9-535e-4f0e-969f-2df33fb20a90","resource":{"resourceType":"MeasureReport","id":"07c5c5b9-535e-4f0e-969f-2df33fb20a90","meta":{"profile":["http://hl7.org/fhir/us/cqfmeasures/StructureDefinition/test-case-cqfm"]},"contained":[{"resourceType":"Parameters","id":"843d6f8c-9a33-4eab-b628-c15b0a9c71de-parameters","parameter":[{"name":"subject","valueString":"9cc71655-c4cd-47cf-ad10-de338da53885"}]}],"extension":[{"url":"http://hl7.org/fhir/us/cqfmeasures/StructureDefinition/cqfm-inputParameters","valueReference":{"reference":"#843d6f8c-9a33-4eab-b628-c15b0a9c71de-parameters"}},{"url":"http://hl7.org/fhir/us/cqfmeasures/StructureDefinition/cqfm-testCaseDescription","valueMarkdown":"Pass - IP, DEN, NUM. preterm 0 and term 0 but no Gravida and no Parity, c-section, singleton delivery\n"}],"modifierExtension":[{"url":"http://hl7.org/fhir/us/cqfmeasures/StructureDefinition/cqfm-isTestCase","valueBoolean":true}],"status":"complete","type":"individual","measure":"https://madie.cms.gov/Measure/CesareanBirthFHIR","period":{"start":"2025-01-01","end":"2025-12-31"},"group":[{"population":[{"code":{"coding":[{"system":"http://terminology.hl7.org/CodeSystem/measure-population","code":"initial-population","display":"Initial Population"}]},"count":1},{"code":{"coding":[{"system":"http://terminology.hl7.org/CodeSystem/measure-population","code":"denominator","display":"Denominator"}]},"count":1},{"code":{"coding":[{"system":"http://terminology.hl7.org/CodeSystem/measure-population","code":"denominator-exclusion","display":"Denominator Exclusion"}]},"count":0},{"code":{"coding":[{"system":"http://terminology.hl7.org/CodeSystem/measure-population","code":"numerator","display":"Numerator"}]},"count":1}]}]},"request":{"method":"PUT","url":"MeasureReport/07c5c5b9-535e-4f0e-969f-2df33fb20a90"}}]}