{"resourceType":"Bundle","id":"tests-c2f10a34-81ed-4bf0-93ac-fed868ada54b-bundle","type":"transaction","entry":[{"fullUrl":"https://madie.cms.gov/Patient/c2f10a34-81ed-4bf0-93ac-fed868ada54b","resource":{"resourceType":"Patient","id":"c2f10a34-81ed-4bf0-93ac-fed868ada54b","meta":{"profile":["http://hl7.org/fhir/us/qicore/StructureDefinition/qicore-patient"]},"text":{"status":"generated","div":"<div xmlns=\"http://www.w3.org/1999/xhtml\"><div class=\"hapiHeaderText\">DelivEncDxNotSing <b>DENFAIL </b></div><table class=\"hapiPropertyTable\"><tbody><tr><td>Identifier</td><td>1ab9ef48e0c90ff3dc9111dd796761e98e296a234123a2d0da91bfa01b2d25ee</td></tr><tr><td>Date of birth</td><td><span>14 February 1985</span></td></tr></tbody></table></div>"},"extension":[{"url":"http://hl7.org/fhir/us/core/StructureDefinition/us-core-race","extension":[{"url":"ombCategory","valueCoding":{"system":"urn:oid:2.16.840.1.113883.6.238","code":"1002-5","display":"American Indian or Alaska Native","userSelected":true}},{"url":"text","valueString":"American Indian or Alaska Native"}]},{"url":"http://hl7.org/fhir/us/core/StructureDefinition/us-core-ethnicity","extension":[{"url":"ombCategory","valueCoding":{"system":"urn:oid:2.16.840.1.113883.6.238","code":"2135-2","display":"Hispanic or Latino","userSelected":true}},{"url":"text","valueString":"Hispanic or Latino"}]}],"identifier":[{"type":{"coding":[{"system":"http://terminology.hl7.org/CodeSystem/v2-0203","code":"MR"}]},"system":"https://bonnie-fhir.healthit.gov/","value":"63487c2f0968f80122540196"}],"active":true,"name":[{"use":"usual","family":"DENFail","given":["DelivEncDxNotSing"]}],"gender":"female","birthDate":"1997-02-14"},"request":{"method":"PUT","url":"Patient/c2f10a34-81ed-4bf0-93ac-fed868ada54b"}},{"fullUrl":"https://madie.cms.gov/Observation/5d014eb3b8484608723806d9","resource":{"resourceType":"Observation","id":"b4f2b3a7-4aa9-4bef-ae1f-ea7047db5019","meta":{"profile":["http://hl7.org/fhir/us/qicore/StructureDefinition/qicore-observation"]},"status":"final","category":[{"coding":[{"system":"http://terminology.hl7.org/CodeSystem/observation-category","code":"exam","display":"exam","userSelected":true}]}],"code":{"coding":[{"system":"http://loinc.org","code":"11996-6"}]},"subject":{"reference":"Patient/c2f10a34-81ed-4bf0-93ac-fed868ada54b"},"effectiveDateTime":"2025-02-09T08:00:00.000+00:00","valueInteger":1},"request":{"method":"PUT","url":"Observation/b4f2b3a7-4aa9-4bef-ae1f-ea7047db5019"}},{"fullUrl":"https://madie.cms.gov/Observation/5d014eb3b8484608723806dc","resource":{"resourceType":"Observation","id":"8b023080-39c4-4470-8b1c-347c3b01e847","meta":{"profile":["http://hl7.org/fhir/us/qicore/StructureDefinition/qicore-observation"]},"status":"final","category":[{"coding":[{"system":"http://terminology.hl7.org/CodeSystem/observation-category","code":"exam","display":"exam","userSelected":true}]}],"code":{"coding":[{"system":"http://loinc.org","code":"11884-4"}]},"subject":{"reference":"Patient/c2f10a34-81ed-4bf0-93ac-fed868ada54b"},"effectiveDateTime":"2025-11-28T21:15:00.000+00:00","valueQuantity":{"value":40.0,"system":"http://unitsofmeasure.org","code":"weeks"}},"request":{"method":"PUT","url":"Observation/8b023080-39c4-4470-8b1c-347c3b01e847"}},{"fullUrl":"https://madie.cms.gov/Observation/5e6974ea7ffec70000323354","resource":{"resourceType":"Observation","id":"9a30bfb1-0d15-4dd2-ab59-c3ac66cf2267","meta":{"profile":["http://hl7.org/fhir/us/qicore/StructureDefinition/qicore-observation"]},"status":"final","category":[{"coding":[{"system":"http://terminology.hl7.org/CodeSystem/observation-category","code":"exam","display":"exam","userSelected":true}]}],"code":{"coding":[{"system":"http://loinc.org","code":"93857-1"}]},"subject":{"reference":"Patient/c2f10a34-81ed-4bf0-93ac-fed868ada54b"},"effectiveDateTime":"2025-11-28T21:15:00.000+00:00","valueDateTime":"2025-11-28T21:15:00+00:00"},"request":{"method":"PUT","url":"Observation/9a30bfb1-0d15-4dd2-ab59-c3ac66cf2267"}},{"fullUrl":"https://madie.cms.gov/Encounter/5d014eb3b8484608723806d7","resource":{"resourceType":"Encounter","id":"2843179b-8a8a-4607-80ed-dd04aeadf469","meta":{"profile":["http://hl7.org/fhir/us/qicore/StructureDefinition/qicore-encounter"]},"status":"finished","class":{"system":"http://terminology.hl7.org/CodeSystem/v3-ActCode","code":"IMP","display":"inpatient encounter"},"type":[{"coding":[{"system":"http://snomed.info/sct","code":"8715000"}]}],"subject":{"reference":"Patient/c2f10a34-81ed-4bf0-93ac-fed868ada54b"},"period":{"start":"2025-11-28T08:00:00.000Z","end":"2025-11-30T08:15:00.000Z"},"length":{"value":2.0,"unit":"days"},"diagnosis":[{"condition":{"reference":"Condition/Cornual Ectopic Pregnancy"},"use":{"coding":[{"system":"http://snomed.info/sct","code":"87605005","display":"Cornual Ectopic Pregnancy"}]}}]},"request":{"method":"PUT","url":"Encounter/2843179b-8a8a-4607-80ed-dd04aeadf469"}},{"fullUrl":"https://madie.cms.gov/Procedure/5d014eb3b8484608723806d8","resource":{"resourceType":"Procedure","id":"e5575599-140d-4610-a12b-cb0b6d82afa0","meta":{"profile":["http://hl7.org/fhir/us/qicore/StructureDefinition/qicore-procedure"]},"extension":[{"url":"http://hl7.org/fhir/us/qicore/StructureDefinition/qicore-recorded","valueDateTime":"2013-04-05T09:35:00-04:00"}],"status":"completed","code":{"coding":[{"system":"http://www.cms.gov/Medicare/Coding/ICD10","code":"10D00Z0"},{"system":"http://www.icd10data.com/icd10pcs","code":"10D00Z0","userSelected":true}]},"subject":{"reference":"Patient/c2f10a34-81ed-4bf0-93ac-fed868ada54b"},"performedPeriod":{"start":"2025-11-28T20:00:00.000Z","end":"2025-11-28T20:15:00.000Z"}},"request":{"method":"PUT","url":"Procedure/e5575599-140d-4610-a12b-cb0b6d82afa0"}},{"fullUrl":"https://madie.cms.gov/Coverage/1","resource":{"resourceType":"Coverage","id":"d265c87f-5958-4765-a7ca-0abfd8dd259b","meta":{"profile":["http://hl7.org/fhir/us/qicore/StructureDefinition/qicore-coverage"]},"status":"active","beneficiary":{"reference":"Patient/c2f10a34-81ed-4bf0-93ac-fed868ada54b"},"payor":[{"reference":"Organization/5224cb12-ed64-4d6d-ab28-40a64f0800f1"}]},"request":{"method":"PUT","url":"Coverage/d265c87f-5958-4765-a7ca-0abfd8dd259b"}},{"fullUrl":"https://madie.cms.gov/Organization/123456","resource":{"resourceType":"Organization","id":"5224cb12-ed64-4d6d-ab28-40a64f0800f1","meta":{"profile":["http://hl7.org/fhir/us/qicore/StructureDefinition/qicore-organization"]},"identifier":[{"use":"temp","system":"urn:oid:2.16.840.1.113883.4.4","value":"21-3259825"}],"active":true,"type":[{"coding":[{"system":"http://terminology.hl7.org/CodeSystem/organization-type","code":"pay","display":"Payer"}]}],"name":"Blue Cross Blue Shield of Texas","telecom":[{"system":"phone","value":"(+1) 972-766-6900"}],"address":[{"use":"billing","type":"postal","line":["P.O. Box 660044"],"city":"Dallas","state":"TX","postalCode":"75266-0044","country":"USA"}]},"request":{"method":"PUT","url":"Organization/5224cb12-ed64-4d6d-ab28-40a64f0800f1"}},{"fullUrl":"https://madie.cms.gov/Practitioner/practitioner-123456","resource":{"resourceType":"Practitioner","id":"0b44ed44-f51c-4958-8877-41f83cf22574","identifier":[{"system":"http://hl7.org/fhir/sid/us-npi","value":"123456"}],"name":[{"family":"Evil","prefix":["Dr"]}]},"request":{"method":"PUT","url":"Practitioner/0b44ed44-f51c-4958-8877-41f83cf22574"}},{"fullUrl":"https://madie.cms.gov/MeasureReport/90f10704-4992-4c08-a9d2-029428d0bdb3","resource":{"resourceType":"MeasureReport","id":"90f10704-4992-4c08-a9d2-029428d0bdb3","meta":{"profile":["http://hl7.org/fhir/us/cqfmeasures/StructureDefinition/test-case-cqfm"]},"contained":[{"resourceType":"Parameters","id":"2c133adc-86a5-4bd2-ad36-53fedf23bd7e-parameters","parameter":[{"name":"subject","valueString":"c2f10a34-81ed-4bf0-93ac-fed868ada54b"}]}],"extension":[{"url":"http://hl7.org/fhir/us/cqfmeasures/StructureDefinition/cqfm-inputParameters","valueReference":{"reference":"#2c133adc-86a5-4bd2-ad36-53fedf23bd7e-parameters"}},{"url":"http://hl7.org/fhir/us/cqfmeasures/StructureDefinition/cqfm-testCaseDescription","valueMarkdown":"Passes IP,; Gravida 1(auth 42 weeks)  and EGA 40 weeks; Not Singleton\n"}],"modifierExtension":[{"url":"http://hl7.org/fhir/us/cqfmeasures/StructureDefinition/cqfm-isTestCase","valueBoolean":true}],"status":"complete","type":"individual","measure":"https://madie.cms.gov/Measure/CesareanBirthFHIR","period":{"start":"2025-01-01","end":"2025-12-31"},"group":[{"population":[{"code":{"coding":[{"system":"http://terminology.hl7.org/CodeSystem/measure-population","code":"initial-population","display":"Initial Population"}]},"count":1},{"code":{"coding":[{"system":"http://terminology.hl7.org/CodeSystem/measure-population","code":"denominator","display":"Denominator"}]},"count":0},{"code":{"coding":[{"system":"http://terminology.hl7.org/CodeSystem/measure-population","code":"denominator-exclusion","display":"Denominator Exclusion"}]},"count":0},{"code":{"coding":[{"system":"http://terminology.hl7.org/CodeSystem/measure-population","code":"numerator","display":"Numerator"}]},"count":0}]}]},"request":{"method":"PUT","url":"MeasureReport/90f10704-4992-4c08-a9d2-029428d0bdb3"}}]}