{"resourceType":"Bundle","id":"tests-301cbb39-bf89-40f4-9539-4e1b9eb5e5be-bundle","type":"transaction","entry":[{"fullUrl":"https://madie.cms.gov/Patient/301cbb39-bf89-40f4-9539-4e1b9eb5e5be","resource":{"resourceType":"Patient","id":"301cbb39-bf89-40f4-9539-4e1b9eb5e5be","meta":{"profile":["http://hl7.org/fhir/us/qicore/StructureDefinition/qicore-patient"]},"text":{"status":"generated","div":"<div xmlns=\"http://www.w3.org/1999/xhtml\"><div class=\"hapiHeaderText\">AssessTimeOfDelivRelvDateTimeB4DelivEnc <b>DENFAIL </b></div><table class=\"hapiPropertyTable\"><tbody><tr><td>Identifier</td><td>47c319cd31456047c4f1e1acf1a65c9a687762be9778e0d4061ef15c003314c8</td></tr><tr><td>Date of birth</td><td><span>14 February 1985</span></td></tr></tbody></table></div>"},"extension":[{"url":"http://hl7.org/fhir/us/core/StructureDefinition/us-core-race","extension":[{"url":"ombCategory","valueCoding":{"system":"urn:oid:2.16.840.1.113883.6.238","code":"1002-5","display":"American Indian or Alaska Native","userSelected":true}},{"url":"text","valueString":"American Indian or Alaska Native"}]},{"url":"http://hl7.org/fhir/us/core/StructureDefinition/us-core-ethnicity","extension":[{"url":"ombCategory","valueCoding":{"system":"urn:oid:2.16.840.1.113883.6.238","code":"2135-2","display":"Hispanic or Latino","userSelected":true}},{"url":"text","valueString":"Hispanic or Latino"}]}],"identifier":[{"type":{"coding":[{"system":"http://terminology.hl7.org/CodeSystem/v2-0203","code":"MR"}]},"system":"https://bonnie-fhir.healthit.gov/","value":"63487c2e0968f80122540170"}],"active":true,"name":[{"use":"usual","family":"DENFail","given":["AssessTimeOfDelivRelvDateTimeB4DelivEnc  "]}],"gender":"female","birthDate":"1997-02-14"},"request":{"method":"PUT","url":"Patient/301cbb39-bf89-40f4-9539-4e1b9eb5e5be"}},{"fullUrl":"https://madie.cms.gov/Observation/5d014eb1b848460872380482","resource":{"resourceType":"Observation","id":"38ccca18-3bec-4907-af2e-87c163194371","meta":{"profile":["http://hl7.org/fhir/us/qicore/StructureDefinition/qicore-observation"]},"status":"final","category":[{"coding":[{"system":"http://terminology.hl7.org/CodeSystem/observation-category","code":"exam","display":"exam","userSelected":true}]}],"code":{"coding":[{"system":"http://loinc.org","code":"11996-6"}]},"subject":{"reference":"Patient/301cbb39-bf89-40f4-9539-4e1b9eb5e5be"},"effectiveDateTime":"2025-06-08T08:00:00.000+00:00","valueInteger":1},"request":{"method":"PUT","url":"Observation/38ccca18-3bec-4907-af2e-87c163194371"}},{"fullUrl":"https://madie.cms.gov/Observation/5d014eb1b848460872380484","resource":{"resourceType":"Observation","id":"d0e8f39c-34d5-4ee4-85a4-a4db47a383c2","meta":{"profile":["http://hl7.org/fhir/us/qicore/StructureDefinition/qicore-observation"]},"status":"final","category":[{"coding":[{"system":"http://terminology.hl7.org/CodeSystem/observation-category","code":"exam","display":"exam","userSelected":true}]}],"code":{"coding":[{"system":"http://loinc.org","code":"11884-4"}]},"subject":{"reference":"Patient/301cbb39-bf89-40f4-9539-4e1b9eb5e5be"},"effectiveDateTime":"2025-06-08T09:15:00.000+00:00","valueQuantity":{"value":38.0,"system":"http://unitsofmeasure.org","code":"weeks"}},"request":{"method":"PUT","url":"Observation/d0e8f39c-34d5-4ee4-85a4-a4db47a383c2"}},{"fullUrl":"https://madie.cms.gov/Observation/5e69742d7ffec700003231ea","resource":{"resourceType":"Observation","id":"e30e2b81-2d7e-4dba-9cda-dfb49960b789","meta":{"profile":["http://hl7.org/fhir/us/qicore/StructureDefinition/qicore-observation"]},"status":"final","category":[{"coding":[{"system":"http://terminology.hl7.org/CodeSystem/observation-category","code":"exam","display":"exam","userSelected":true}]}],"code":{"coding":[{"system":"http://loinc.org","code":"93857-1"}]},"subject":{"reference":"Patient/301cbb39-bf89-40f4-9539-4e1b9eb5e5be"},"effectiveDateTime":"2025-06-05T09:15:00.000+00:00","valueDateTime":"2025-06-05T09:15:00+00:00"},"request":{"method":"PUT","url":"Observation/e30e2b81-2d7e-4dba-9cda-dfb49960b789"}},{"fullUrl":"https://madie.cms.gov/Encounter/5d014eb1b84846087238047f","resource":{"resourceType":"Encounter","id":"f3e08c74-33ea-4e45-9788-3be01a81efac","meta":{"profile":["http://hl7.org/fhir/us/qicore/StructureDefinition/qicore-encounter"]},"status":"finished","class":{"system":"http://terminology.hl7.org/CodeSystem/v3-ActCode","code":"IMP","display":"inpatient encounter"},"type":[{"coding":[{"system":"http://snomed.info/sct","code":"183452005"}]}],"subject":{"reference":"Patient/301cbb39-bf89-40f4-9539-4e1b9eb5e5be"},"period":{"start":"2025-06-08T08:00:00.000Z","end":"2025-06-10T08:15:00.000Z"},"length":{"value":2.0,"unit":"days"},"diagnosis":[{"condition":{"reference":"Condition/delivery-of-singleton-f83c"},"use":{"coding":[{"system":"http://snomed.info/sct","code":"169826009","display":"Delivery of Singleton"}]}},{"condition":{"reference":"Condition/delivery-of-singleton-4b22"}}]},"request":{"method":"PUT","url":"Encounter/f3e08c74-33ea-4e45-9788-3be01a81efac"}},{"fullUrl":"https://madie.cms.gov/Procedure/5d014eb1b848460872380480","resource":{"resourceType":"Procedure","id":"dcd8eb2e-4f86-4426-b0c9-b60d1ff634f9","meta":{"profile":["http://hl7.org/fhir/us/qicore/StructureDefinition/qicore-procedure"]},"extension":[{"url":"http://hl7.org/fhir/us/qicore/StructureDefinition/qicore-recorded","valueDateTime":"2013-04-05T09:35:00-04:00"}],"status":"completed","code":{"coding":[{"system":"http://www.cms.gov/Medicare/Coding/ICD10","code":"10D00Z0"},{"system":"http://www.icd10data.com/icd10pcs","code":"10D00Z0","userSelected":true}]},"subject":{"reference":"Patient/301cbb39-bf89-40f4-9539-4e1b9eb5e5be"},"performedPeriod":{"start":"2025-06-08T08:00:00.000Z","end":"2025-06-08T09:15:00.000Z"}},"request":{"method":"PUT","url":"Procedure/dcd8eb2e-4f86-4426-b0c9-b60d1ff634f9"}},{"fullUrl":"https://madie.cms.gov/Condition/delivery-of-singleton-4b22","resource":{"resourceType":"Condition","id":"dbf74540-8cb5-4f9d-90f3-a5cc01fa7c5c","meta":{"profile":["http://hl7.org/fhir/us/qicore/StructureDefinition/qicore-condition"]},"category":[{"coding":[{"system":"http://terminology.hl7.org/CodeSystem/condition-category","code":"encounter-diagnosis","display":"Encounter Diagnosis"}]}],"code":{"coding":[{"system":"http://snomed.info/sct","version":"2022-09","code":"169826009","display":"Single live birth (finding)","userSelected":true}]},"subject":{"reference":"Patient/301cbb39-bf89-40f4-9539-4e1b9eb5e5be"},"recordedDate":"2025-10-21T08:00:00.000+00:00"},"request":{"method":"PUT","url":"Condition/dbf74540-8cb5-4f9d-90f3-a5cc01fa7c5c"}},{"fullUrl":"https://madie.cms.gov/Coverage/1","resource":{"resourceType":"Coverage","id":"dedcb04b-bcac-4ed5-a8ed-da8add19f0e6","meta":{"profile":["http://hl7.org/fhir/us/qicore/StructureDefinition/qicore-coverage"]},"status":"active","beneficiary":{"reference":"Patient/301cbb39-bf89-40f4-9539-4e1b9eb5e5be"},"payor":[{"reference":"Organization/a6c3e6fa-301e-4714-9d04-3dde9a7e7c49"}]},"request":{"method":"PUT","url":"Coverage/dedcb04b-bcac-4ed5-a8ed-da8add19f0e6"}},{"fullUrl":"https://madie.cms.gov/Organization/123456","resource":{"resourceType":"Organization","id":"a6c3e6fa-301e-4714-9d04-3dde9a7e7c49","meta":{"profile":["http://hl7.org/fhir/us/qicore/StructureDefinition/qicore-organization"]},"identifier":[{"use":"temp","system":"urn:oid:2.16.840.1.113883.4.4","value":"21-3259825"}],"active":true,"type":[{"coding":[{"system":"http://terminology.hl7.org/CodeSystem/organization-type","code":"pay","display":"Payer"}]}],"name":"Blue Cross Blue Shield of Texas","telecom":[{"system":"phone","value":"(+1) 972-766-6900"}],"address":[{"use":"billing","type":"postal","line":["P.O. Box 660044"],"city":"Dallas","state":"TX","postalCode":"75266-0044","country":"USA"}]},"request":{"method":"PUT","url":"Organization/a6c3e6fa-301e-4714-9d04-3dde9a7e7c49"}},{"fullUrl":"https://madie.cms.gov/Practitioner/practitioner-123456","resource":{"resourceType":"Practitioner","id":"2b496183-c0f7-4446-b630-30f74c1c6ce0","identifier":[{"system":"http://hl7.org/fhir/sid/us-npi","value":"123456"}],"name":[{"family":"Evil","prefix":["Dr"]}]},"request":{"method":"PUT","url":"Practitioner/2b496183-c0f7-4446-b630-30f74c1c6ce0"}},{"fullUrl":"https://madie.cms.gov/MeasureReport/b143ba17-7373-4f2c-a0e9-69cd52b630b1","resource":{"resourceType":"MeasureReport","id":"b143ba17-7373-4f2c-a0e9-69cd52b630b1","meta":{"profile":["http://hl7.org/fhir/us/cqfmeasures/StructureDefinition/test-case-cqfm"]},"contained":[{"resourceType":"Parameters","id":"3e36e64d-0563-4b6a-bed8-2e44fd62c157-parameters","parameter":[{"name":"subject","valueString":"301cbb39-bf89-40f4-9539-4e1b9eb5e5be"}]}],"extension":[{"url":"http://hl7.org/fhir/us/cqfmeasures/StructureDefinition/cqfm-inputParameters","valueReference":{"reference":"#3e36e64d-0563-4b6a-bed8-2e44fd62c157-parameters"}},{"url":"http://hl7.org/fhir/us/cqfmeasures/StructureDefinition/cqfm-testCaseDescription","valueMarkdown":"Passes: IP, Pt is 27 years of age,  encounter dx of delivery of singleton, gravida, EGA @ 38 weeks, AssessTimeOfDeliv relevantDate B4 DelivEnc.  Tests \"TimeOfDelivery.relevantDatetime during DeliveryEncounters.relevantPeriod\".\n"}],"modifierExtension":[{"url":"http://hl7.org/fhir/us/cqfmeasures/StructureDefinition/cqfm-isTestCase","valueBoolean":true}],"status":"complete","type":"individual","measure":"https://madie.cms.gov/Measure/CesareanBirthFHIR","period":{"start":"2025-01-01","end":"2025-12-31"},"group":[{"population":[{"code":{"coding":[{"system":"http://terminology.hl7.org/CodeSystem/measure-population","code":"initial-population","display":"Initial Population"}]},"count":1},{"code":{"coding":[{"system":"http://terminology.hl7.org/CodeSystem/measure-population","code":"denominator","display":"Denominator"}]},"count":0},{"code":{"coding":[{"system":"http://terminology.hl7.org/CodeSystem/measure-population","code":"denominator-exclusion","display":"Denominator Exclusion"}]},"count":0},{"code":{"coding":[{"system":"http://terminology.hl7.org/CodeSystem/measure-population","code":"numerator","display":"Numerator"}]},"count":0}]}]},"request":{"method":"PUT","url":"MeasureReport/b143ba17-7373-4f2c-a0e9-69cd52b630b1"}}]}