{
  "resourceType": "Bundle",
  "id": "NUMERPass-Enc1ExclEnc2NumerFallDoc",
  "type": "transaction",
  "entry": [ {
    "fullUrl": "https://madie.cms.gov/Encounter/43b61beb-ca84-412d-bc68-d37741c4271d",
    "resource": {
      "resourceType": "Encounter",
      "id": "43b61beb-ca84-412d-bc68-d37741c4271d",
      "meta": {
        "profile": [ "http://hl7.org/fhir/us/qicore/StructureDefinition/qicore-encounter" ]
      },
      "status": "finished",
      "class": {
        "system": "http://terminology.hl7.org/CodeSystem/v3-ActCode",
        "code": "IMP",
        "display": "inpatient encounter"
      },
      "type": [ {
        "coding": [ {
          "system": "http://snomed.info/sct",
          "code": "183452005"
        } ]
      } ],
      "subject": {
        "reference": "Patient/0dfafc1a-cf94-4ca1-becf-c1b843896810"
      },
      "period": {
        "start": "2026-12-08T08:00:00+00:00",
        "end": "2026-12-15T08:15:00+00:00"
      },
      "diagnosis": [ {
        "extension": [ {
          "url": "http://hl7.org/fhir/us/qicore/StructureDefinition/qicore-encounter-diagnosisPresentOnAdmission",
          "valueCodeableConcept": {
            "coding": [ {
              "system": "https://www.cms.gov/Medicare/Medicare-Fee-for-Service-Payment/HospitalAcqCond/Coding",
              "code": "N"
            } ]
          }
        } ],
        "condition": {
          "reference": "Condition/1e28e1a0-bd71-48fc-922c-881d14d6052e"
        }
      } ]
    },
    "request": {
      "method": "PUT",
      "url": "Encounter/43b61beb-ca84-412d-bc68-d37741c4271d"
    }
  }, {
    "fullUrl": "https://madie.cms.gov/Encounter/49a80480-6381-4817-905b-cdda4c2cd05a",
    "resource": {
      "resourceType": "Encounter",
      "id": "49a80480-6381-4817-905b-cdda4c2cd05a",
      "meta": {
        "profile": [ "http://hl7.org/fhir/us/qicore/StructureDefinition/qicore-encounter" ]
      },
      "status": "finished",
      "class": {
        "system": "http://terminology.hl7.org/CodeSystem/v3-ActCode",
        "code": "IMP",
        "display": "inpatient encounter"
      },
      "type": [ {
        "coding": [ {
          "system": "http://snomed.info/sct",
          "code": "183452005"
        } ]
      } ],
      "subject": {
        "reference": "Patient/0dfafc1a-cf94-4ca1-becf-c1b843896810"
      },
      "period": {
        "start": "2026-11-09T11:00:00+00:00",
        "end": "2026-11-12T08:15:00+00:00"
      },
      "diagnosis": [ {
        "extension": [ {
          "url": "http://hl7.org/fhir/us/qicore/StructureDefinition/qicore-encounter-diagnosisPresentOnAdmission",
          "valueCodeableConcept": {
            "coding": [ {
              "system": "https://www.cms.gov/Medicare/Medicare-Fee-for-Service-Payment/HospitalAcqCond/Coding",
              "code": "W"
            } ]
          }
        } ],
        "condition": {
          "reference": "Condition/e88bb4ad-415b-40d2-81ef-755d02616496"
        }
      } ]
    },
    "request": {
      "method": "PUT",
      "url": "Encounter/49a80480-6381-4817-905b-cdda4c2cd05a"
    }
  }, {
    "fullUrl": "https://madie.cms.gov/Encounter/a0824fb8-eb3c-4eff-9d68-846417f3c35d",
    "resource": {
      "resourceType": "Encounter",
      "id": "a0824fb8-eb3c-4eff-9d68-846417f3c35d",
      "meta": {
        "profile": [ "http://hl7.org/fhir/us/qicore/StructureDefinition/qicore-encounter" ]
      },
      "status": "finished",
      "class": {
        "system": "http://terminology.hl7.org/CodeSystem/v3-ActCode",
        "code": "IMP",
        "display": "inpatient encounter"
      },
      "type": [ {
        "coding": [ {
          "system": "http://snomed.info/sct",
          "code": "4525004"
        } ]
      } ],
      "subject": {
        "reference": "Patient/0dfafc1a-cf94-4ca1-becf-c1b843896810"
      },
      "period": {
        "start": "2026-11-09T08:00:00+00:00",
        "end": "2026-11-09T10:15:00+00:00"
      }
    },
    "request": {
      "method": "PUT",
      "url": "Encounter/a0824fb8-eb3c-4eff-9d68-846417f3c35d"
    }
  }, {
    "fullUrl": "https://madie.cms.gov/Condition/1e28e1a0-bd71-48fc-922c-881d14d6052e",
    "resource": {
      "resourceType": "Condition",
      "id": "1e28e1a0-bd71-48fc-922c-881d14d6052e",
      "meta": {
        "profile": [ "http://hl7.org/fhir/us/qicore/StructureDefinition/qicore-condition" ]
      },
      "clinicalStatus": {
        "coding": [ {
          "system": "http://terminology.hl7.org/CodeSystem/condition-clinical",
          "code": "active"
        } ]
      },
      "verificationStatus": {
        "coding": [ {
          "system": "http://terminology.hl7.org/CodeSystem/condition-ver-status",
          "code": "confirmed"
        } ]
      },
      "category": [ {
        "coding": [ {
          "system": "http://terminology.hl7.org/CodeSystem/condition-category",
          "code": "encounter-diagnosis",
          "display": "Encounter Diagnosis"
        } ]
      } ],
      "code": {
        "coding": [ {
          "system": "http://hl7.org/fhir/sid/icd-10-cm",
          "code": "S01.00XA"
        } ]
      },
      "subject": {
        "reference": "Patient/0dfafc1a-cf94-4ca1-becf-c1b843896810"
      },
      "encounter": {
        "reference": "Encounter/49a80480-6381-4817-905b-cdda4c2cd05a"
      }
    },
    "request": {
      "method": "PUT",
      "url": "Condition/1e28e1a0-bd71-48fc-922c-881d14d6052e"
    }
  }, {
    "fullUrl": "https://madie.cms.gov/Condition/e88bb4ad-415b-40d2-81ef-755d02616496",
    "resource": {
      "resourceType": "Condition",
      "id": "e88bb4ad-415b-40d2-81ef-755d02616496",
      "meta": {
        "profile": [ "http://hl7.org/fhir/us/qicore/StructureDefinition/qicore-condition" ]
      },
      "clinicalStatus": {
        "coding": [ {
          "system": "http://terminology.hl7.org/CodeSystem/condition-clinical",
          "code": "active"
        } ]
      },
      "verificationStatus": {
        "coding": [ {
          "system": "http://terminology.hl7.org/CodeSystem/condition-ver-status",
          "code": "confirmed"
        } ]
      },
      "category": [ {
        "coding": [ {
          "system": "http://terminology.hl7.org/CodeSystem/condition-category",
          "code": "encounter-diagnosis",
          "display": "Encounter Diagnosis"
        } ]
      } ],
      "code": {
        "coding": [ {
          "system": "http://hl7.org/fhir/sid/icd-10-cm",
          "code": "W01.0XXA"
        } ]
      },
      "subject": {
        "reference": "Patient/0dfafc1a-cf94-4ca1-becf-c1b843896810"
      },
      "encounter": {
        "reference": "Encounter/49a80480-6381-4817-905b-cdda4c2cd05a"
      }
    },
    "request": {
      "method": "PUT",
      "url": "Condition/e88bb4ad-415b-40d2-81ef-755d02616496"
    }
  }, {
    "fullUrl": "https://madie.cms.gov/Patient/0dfafc1a-cf94-4ca1-becf-c1b843896810",
    "resource": {
      "resourceType": "Patient",
      "id": "0dfafc1a-cf94-4ca1-becf-c1b843896810",
      "meta": {
        "profile": [ "http://hl7.org/fhir/us/qicore/StructureDefinition/qicore-patient" ]
      },
      "extension": [ {
        "url": "http://hl7.org/fhir/us/core/StructureDefinition/us-core-race",
        "extension": [ {
          "url": "ombCategory",
          "valueCoding": {
            "system": "urn:oid:2.16.840.1.113883.6.238",
            "code": "2054-5",
            "display": "Black or African American",
            "userSelected": true
          }
        }, {
          "url": "text",
          "valueString": "Black or African American"
        } ]
      }, {
        "url": "http://hl7.org/fhir/us/core/StructureDefinition/us-core-ethnicity",
        "extension": [ {
          "url": "ombCategory",
          "valueCoding": {
            "system": "urn:oid:2.16.840.1.113883.6.238",
            "code": "2186-5",
            "display": "Not Hispanic or Latino",
            "userSelected": true
          }
        }, {
          "url": "text",
          "valueString": "Not Hispanic or Latino"
        } ]
      } ],
      "identifier": [ {
        "type": {
          "coding": [ {
            "system": "http://terminology.hl7.org/CodeSystem/v2-0203",
            "code": "MR"
          } ]
        },
        "system": "https://bonnie-fhir.healthit.gov/",
        "value": "61152a3b98086b7a79cbd7c1"
      } ],
      "active": true,
      "name": [ {
        "use": "usual",
        "family": "NUMERPass",
        "given": [ "Enc1ExclEnc2NumerFallDoc" ]
      } ],
      "gender": "male",
      "birthDate": "1964-12-11"
    },
    "request": {
      "method": "PUT",
      "url": "Patient/0dfafc1a-cf94-4ca1-becf-c1b843896810"
    }
  }, {
    "fullUrl": "https://madie.cms.gov/AdverseEvent/a5c1f739-c44e-45d9-ae4f-00adaa8546bd",
    "resource": {
      "resourceType": "AdverseEvent",
      "id": "a5c1f739-c44e-45d9-ae4f-00adaa8546bd",
      "meta": {
        "profile": [ "http://hl7.org/fhir/us/qicore/StructureDefinition/qicore-adverseevent" ]
      },
      "actuality": "actual",
      "event": {
        "coding": [ {
          "system": "http://snomed.info/sct",
          "code": "14047009"
        } ]
      },
      "subject": {
        "reference": "Patient/0dfafc1a-cf94-4ca1-becf-c1b843896810"
      },
      "date": "2026-12-10T08:00:00+00:00"
    },
    "request": {
      "method": "PUT",
      "url": "AdverseEvent/a5c1f739-c44e-45d9-ae4f-00adaa8546bd"
    }
  }, {
    "fullUrl": "https://madie.cms.gov/MeasureReport/7397ed4e-6ab4-457b-b074-eed39b95b190",
    "resource": {
      "resourceType": "MeasureReport",
      "id": "7397ed4e-6ab4-457b-b074-eed39b95b190",
      "meta": {
        "profile": [ "http://hl7.org/fhir/us/cqfmeasures/StructureDefinition/test-case-cqfm" ]
      },
      "contained": [ {
        "resourceType": "Parameters",
        "id": "25308d48-2ac3-4d9c-9302-78f38f0f6dcf-parameters",
        "parameter": [ {
          "name": "subject",
          "valueString": "0dfafc1a-cf94-4ca1-becf-c1b843896810"
        } ]
      } ],
      "extension": [ {
        "url": "http://hl7.org/fhir/us/cqfmeasures/StructureDefinition/cqfm-inputParameters",
        "valueReference": {
          "reference": "#25308d48-2ac3-4d9c-9302-78f38f0f6dcf-parameters"
        }
      }, {
        "url": "http://hl7.org/fhir/us/cqfmeasures/StructureDefinition/cqfm-testCaseDescription",
        "valueMarkdown": "Enc 1: fall POA. Meets exclusion. \nEnc 2: fall documented during enc as adverse event, and mod injury NPOA. Meets Numerator.   \nDENEX = 1, NUMER = 1. "
      } ],
      "modifierExtension": [ {
        "url": "http://hl7.org/fhir/us/cqfmeasures/StructureDefinition/cqfm-isTestCase",
        "valueBoolean": true
      } ],
      "status": "complete",
      "type": "individual",
      "measure": "https://madie.cms.gov/Measure/FallsWithInjuryFHIR",
      "period": {
        "start": "2026-01-01",
        "end": "2026-12-31"
      },
      "group": [ {
        "population": [ {
          "code": {
            "coding": [ {
              "system": "http://terminology.hl7.org/CodeSystem/measure-population",
              "code": "initial-population",
              "display": "Initial Population"
            } ]
          },
          "count": 2
        }, {
          "code": {
            "coding": [ {
              "system": "http://terminology.hl7.org/CodeSystem/measure-population",
              "code": "denominator",
              "display": "Denominator"
            } ]
          },
          "count": 2
        }, {
          "code": {
            "coding": [ {
              "system": "http://terminology.hl7.org/CodeSystem/measure-population",
              "code": "denominator-exclusion",
              "display": "Denominator Exclusion"
            } ]
          },
          "count": 1
        }, {
          "code": {
            "coding": [ {
              "system": "http://terminology.hl7.org/CodeSystem/measure-population",
              "code": "numerator",
              "display": "Numerator"
            } ]
          },
          "count": 1
        }, {
          "code": {
            "coding": [ {
              "system": "http://terminology.hl7.org/CodeSystem/measure-population",
              "code": "numerator-exclusion",
              "display": "Numerator Exclusion"
            } ]
          },
          "count": 1
        }, {
          "code": {
            "coding": [ {
              "system": "http://terminology.hl7.org/CodeSystem/measure-population",
              "code": "denominator-observation",
              "display": "DenominatorObservation"
            } ]
          },
          "count": 7
        } ]
      } ],
      "evaluatedResource": [ {
        "reference": "Encounter/43b61beb-ca84-412d-bc68-d37741c4271d"
      }, {
        "reference": "Encounter/49a80480-6381-4817-905b-cdda4c2cd05a"
      }, {
        "reference": "Encounter/a0824fb8-eb3c-4eff-9d68-846417f3c35d"
      }, {
        "reference": "Condition/1e28e1a0-bd71-48fc-922c-881d14d6052e"
      }, {
        "reference": "Condition/e88bb4ad-415b-40d2-81ef-755d02616496"
      }, {
        "reference": "Patient/0dfafc1a-cf94-4ca1-becf-c1b843896810"
      }, {
        "reference": "AdverseEvent/a5c1f739-c44e-45d9-ae4f-00adaa8546bd"
      } ]
    },
    "request": {
      "method": "PUT",
      "url": "MeasureReport/7397ed4e-6ab4-457b-b074-eed39b95b190"
    }
  } ]
}