{
  "resourceType": "Bundle",
  "id": "612e6b9302c62a011f2ee63c",
  "type": "transaction",
  "entry": [ {
    "fullUrl": "https://madie.cms.gov/Patient/3dcb32cf-6ad1-4a44-89da-1125e19b5c8c",
    "resource": {
      "resourceType": "Patient",
      "id": "3dcb32cf-6ad1-4a44-89da-1125e19b5c8c",
      "meta": {
        "profile": [ "http://hl7.org/fhir/us/qicore/StructureDefinition/qicore-patient" ]
      },
      "text": {
        "status": "generated",
        "div": "<div xmlns=\"http://www.w3.org/1999/xhtml\"><div class=\"hapiHeaderText\">PtRef_DO_GCS=1DayAFAnes <b>NUMERPASS </b></div><table class=\"hapiPropertyTable\"><tbody><tr><td>Identifier</td><td>24fc1ce85ce14557dd4d9eba17df9f17</td></tr><tr><td>Date of birth</td><td><span>02 January 1974</span></td></tr></tbody></table></div>"
      },
      "extension": [ {
        "url": "http://hl7.org/fhir/us/core/StructureDefinition/us-core-race",
        "extension": [ {
          "url": "ombCategory",
          "valueCoding": {
            "system": "urn:oid:2.16.840.1.113883.6.238",
            "code": "1002-5",
            "display": "American Indian or Alaska Native",
            "userSelected": true
          }
        }, {
          "url": "text",
          "valueString": "American Indian or Alaska Native"
        } ]
      }, {
        "url": "http://hl7.org/fhir/us/core/StructureDefinition/us-core-ethnicity",
        "extension": [ {
          "url": "ombCategory",
          "valueCoding": {
            "system": "urn:oid:2.16.840.1.113883.6.238",
            "code": "2135-2",
            "display": "Hispanic or Latino",
            "userSelected": true
          }
        }, {
          "url": "text",
          "valueString": "Hispanic or Latino"
        } ]
      } ],
      "identifier": [ {
        "type": {
          "coding": [ {
            "system": "http://terminology.hl7.org/CodeSystem/v2-0203",
            "code": "MR"
          } ]
        },
        "system": "https://bonnie-fhir.healthit.gov/",
        "value": "612e6b9302c62a011f2ee63c"
      } ],
      "active": true,
      "name": [ {
        "use": "usual",
        "family": "NUMERPass",
        "given": [ "PtRef_DO_IPC=1DayAFAnes" ]
      } ],
      "gender": "male",
      "birthDate": "1975-01-02"
    },
    "request": {
      "method": "PUT",
      "url": "Patient/3dcb32cf-6ad1-4a44-89da-1125e19b5c8c"
    }
  }, {
    "fullUrl": "https://madie.cms.gov/Encounter/679605ab-9966-4c71-bd06-7234e4fac812",
    "resource": {
      "resourceType": "Encounter",
      "id": "679605ab-9966-4c71-bd06-7234e4fac812",
      "meta": {
        "profile": [ "http://hl7.org/fhir/us/qicore/StructureDefinition/qicore-encounter" ]
      },
      "status": "finished",
      "class": {
        "system": "http://terminology.hl7.org/CodeSystem/v3-ActCode",
        "code": "IMP",
        "display": "inpatient encounter"
      },
      "type": [ {
        "coding": [ {
          "system": "http://snomed.info/sct",
          "code": "8715000"
        } ]
      } ],
      "subject": {
        "reference": "Patient/3dcb32cf-6ad1-4a44-89da-1125e19b5c8c"
      },
      "period": {
        "start": "2026-11-01T08:00:00+00:00",
        "end": "2026-11-26T08:15:00+00:00"
      },
      "length": {
        "value": 25,
        "unit": "days"
      }
    },
    "request": {
      "method": "PUT",
      "url": "Encounter/679605ab-9966-4c71-bd06-7234e4fac812"
    }
  }, {
    "fullUrl": "https://madie.cms.gov/Coverage/05056fbc-70ab-435f-bd29-9f4bf1c460cd",
    "resource": {
      "resourceType": "Coverage",
      "id": "05056fbc-70ab-435f-bd29-9f4bf1c460cd",
      "status": "active",
      "beneficiary": {
        "reference": "Patient/3dcb32cf-6ad1-4a44-89da-1125e19b5c8c"
      },
      "period": {
        "start": "1975-01-02T08:00:00+00:00"
      },
      "payor": [ {
        "reference": "Organization/8be3c93d-ab72-4b08-b91d-97789ede9bc8"
      } ]
    },
    "request": {
      "method": "PUT",
      "url": "Coverage/05056fbc-70ab-435f-bd29-9f4bf1c460cd"
    }
  }, {
    "fullUrl": "https://madie.cms.gov/Procedure/bfbf59d2-44e1-487a-ba00-925b7d5692aa",
    "resource": {
      "resourceType": "Procedure",
      "id": "bfbf59d2-44e1-487a-ba00-925b7d5692aa",
      "meta": {
        "profile": [ "http://hl7.org/fhir/us/qicore/StructureDefinition/qicore-procedure" ]
      },
      "extension": [ {
        "url": "http://hl7.org/fhir/us/qicore/StructureDefinition/qicore-recorded",
        "valueDateTime": "2013-11-03T09:35:00-04:00"
      } ],
      "status": "completed",
      "code": {
        "coding": [ {
          "system": "http://www.icd10data.com/icd10pcs",
          "code": "3E030FZ"
        }, {
          "system": "http://snomed.info/sct",
          "code": "18946005"
        } ]
      },
      "subject": {
        "reference": "Patient/3dcb32cf-6ad1-4a44-89da-1125e19b5c8c"
      },
      "performedPeriod": {
        "start": "2026-11-02T09:00:00+00:00",
        "end": "2026-11-02T09:15:00+00:00"
      }
    },
    "request": {
      "method": "PUT",
      "url": "Procedure/bfbf59d2-44e1-487a-ba00-925b7d5692aa"
    }
  }, {
    "fullUrl": "https://madie.cms.gov/ServiceRequest/cad9a7f2-4234-4f62-945b-2f65f5ff6f90",
    "resource": {
      "resourceType": "ServiceRequest",
      "id": "cad9a7f2-4234-4f62-945b-2f65f5ff6f90",
      "meta": {
        "profile": [ "http://hl7.org/fhir/us/qicore/StructureDefinition/qicore-servicenotrequested" ]
      },
      "extension": [ {
        "url": "http://hl7.org/fhir/us/qicore/StructureDefinition/qicore-doNotPerformReason",
        "valueCodeableConcept": {
          "coding": [ {
            "system": "http://snomed.info/sct",
            "code": "443390004",
            "display": "Refusal of treatment by patient (situation)"
          } ]
        }
      } ],
      "status": "completed",
      "intent": "order",
      "doNotPerform": true,
      "code": {
        "coding": [ {
          "system": "http://snomed.info/sct",
          "version": "2025-03",
          "code": "428411000124104",
          "display": "Intermittent pneumatic compression boot (physical object)",
          "userSelected": true
        } ]
      },
      "subject": {
        "reference": "Patient/3dcb32cf-6ad1-4a44-89da-1125e19b5c8c"
      },
      "authoredOn": "2026-11-02T11:00:00.000+00:00"
    },
    "request": {
      "method": "PUT",
      "url": "ServiceRequest/cad9a7f2-4234-4f62-945b-2f65f5ff6f90"
    }
  }, {
    "fullUrl": "https://madie.cms.gov/Organization/8be3c93d-ab72-4b08-b91d-97789ede9bc8",
    "resource": {
      "resourceType": "Organization",
      "id": "8be3c93d-ab72-4b08-b91d-97789ede9bc8",
      "meta": {
        "profile": [ "http://hl7.org/fhir/us/qicore/StructureDefinition/qicore-organization" ]
      },
      "identifier": [ {
        "use": "temp",
        "system": "urn:oid:2.16.840.1.113883.4.4",
        "value": "21-3259825"
      } ],
      "active": true,
      "type": [ {
        "coding": [ {
          "system": "http://terminology.hl7.org/CodeSystem/organization-type",
          "code": "pay",
          "display": "Payer"
        } ]
      } ],
      "name": "Blue Cross Blue Shield of Texas",
      "telecom": [ {
        "system": "phone",
        "value": "(+1) 972-766-6900"
      } ],
      "address": [ {
        "use": "billing",
        "type": "postal",
        "line": [ "P.O. Box 660044" ],
        "city": "Dallas",
        "state": "TX",
        "postalCode": "75266-0044",
        "country": "USA"
      } ]
    },
    "request": {
      "method": "PUT",
      "url": "Organization/8be3c93d-ab72-4b08-b91d-97789ede9bc8"
    }
  }, {
    "fullUrl": "https://madie.cms.gov/Practitioner/627e83b6-f48f-43f8-9e7a-cb22f39a1d51",
    "resource": {
      "resourceType": "Practitioner",
      "id": "627e83b6-f48f-43f8-9e7a-cb22f39a1d51",
      "identifier": [ {
        "system": "http://hl7.org/fhir/sid/us-npi",
        "value": "123456"
      } ],
      "name": [ {
        "family": "Evil",
        "prefix": [ "Dr" ]
      } ]
    },
    "request": {
      "method": "PUT",
      "url": "Practitioner/627e83b6-f48f-43f8-9e7a-cb22f39a1d51"
    }
  }, {
    "fullUrl": "https://madie.cms.gov/MeasureReport/855b164c-4b21-4cba-980a-45cef5166db3",
    "resource": {
      "resourceType": "MeasureReport",
      "id": "855b164c-4b21-4cba-980a-45cef5166db3",
      "meta": {
        "profile": [ "http://hl7.org/fhir/us/cqfmeasures/StructureDefinition/test-case-cqfm" ]
      },
      "contained": [ {
        "resourceType": "Parameters",
        "id": "f115b115-472a-4ac4-a692-3451dcdc11f5-parameters",
        "parameter": [ {
          "name": "subject",
          "valueString": "3dcb32cf-6ad1-4a44-89da-1125e19b5c8c"
        } ]
      } ],
      "extension": [ {
        "url": "http://hl7.org/fhir/us/cqfmeasures/StructureDefinition/cqfm-inputParameters",
        "valueReference": {
          "reference": "#f115b115-472a-4ac4-a692-3451dcdc11f5-parameters"
        }
      }, {
        "url": "http://hl7.org/fhir/us/cqfmeasures/StructureDefinition/cqfm-testCaseDescription",
        "valueMarkdown": "patient refused IPC order on 1 day after start of IP encounter and same day with Aneth\n"
      } ],
      "modifierExtension": [ {
        "url": "http://hl7.org/fhir/us/cqfmeasures/StructureDefinition/cqfm-isTestCase",
        "valueBoolean": true
      } ],
      "status": "complete",
      "type": "individual",
      "measure": "https://madie.cms.gov/Measure/CMS108VTEProphylaxisFHIR",
      "period": {
        "start": "2026-01-01",
        "end": "2026-12-31"
      },
      "group": [ {
        "population": [ {
          "code": {
            "coding": [ {
              "system": "http://terminology.hl7.org/CodeSystem/measure-population",
              "code": "initial-population",
              "display": "Initial Population"
            } ]
          },
          "count": 1
        }, {
          "code": {
            "coding": [ {
              "system": "http://terminology.hl7.org/CodeSystem/measure-population",
              "code": "denominator",
              "display": "Denominator"
            } ]
          },
          "count": 1
        }, {
          "code": {
            "coding": [ {
              "system": "http://terminology.hl7.org/CodeSystem/measure-population",
              "code": "denominator-exclusion",
              "display": "Denominator Exclusion"
            } ]
          },
          "count": 0
        }, {
          "code": {
            "coding": [ {
              "system": "http://terminology.hl7.org/CodeSystem/measure-population",
              "code": "numerator",
              "display": "Numerator"
            } ]
          },
          "count": 1
        } ]
      } ],
      "evaluatedResource": [ {
        "reference": "Patient/3dcb32cf-6ad1-4a44-89da-1125e19b5c8c"
      }, {
        "reference": "Encounter/679605ab-9966-4c71-bd06-7234e4fac812"
      }, {
        "reference": "Coverage/05056fbc-70ab-435f-bd29-9f4bf1c460cd"
      }, {
        "reference": "Procedure/bfbf59d2-44e1-487a-ba00-925b7d5692aa"
      }, {
        "reference": "ServiceRequest/cad9a7f2-4234-4f62-945b-2f65f5ff6f90"
      }, {
        "reference": "Organization/8be3c93d-ab72-4b08-b91d-97789ede9bc8"
      }, {
        "reference": "Practitioner/627e83b6-f48f-43f8-9e7a-cb22f39a1d51"
      } ]
    },
    "request": {
      "method": "PUT",
      "url": "MeasureReport/855b164c-4b21-4cba-980a-45cef5166db3"
    }
  } ]
}