{
  "resourceType": "Bundle",
  "id": "617827e84bf8e25b8f204e17",
  "type": "transaction",
  "entry": [ {
    "fullUrl": "https://madie.cms.gov/Patient/1581d864-2ee8-4789-ab20-743547353803",
    "resource": {
      "resourceType": "Patient",
      "id": "1581d864-2ee8-4789-ab20-743547353803",
      "meta": {
        "profile": [ "http://hl7.org/fhir/us/qicore/StructureDefinition/qicore-patient" ]
      },
      "extension": [ {
        "url": "http://hl7.org/fhir/us/core/StructureDefinition/us-core-race",
        "extension": [ {
          "url": "ombCategory",
          "valueCoding": {
            "system": "urn:oid:2.16.840.1.113883.6.238",
            "code": "2054-5",
            "display": "Black or African American",
            "userSelected": true
          }
        }, {
          "url": "text",
          "valueString": "Black or African American"
        } ]
      }, {
        "url": "http://hl7.org/fhir/us/core/StructureDefinition/us-core-ethnicity",
        "extension": [ {
          "url": "ombCategory",
          "valueCoding": {
            "system": "urn:oid:2.16.840.1.113883.6.238",
            "code": "2186-5",
            "display": "Not Hispanic or Latino",
            "userSelected": true
          }
        }, {
          "url": "text",
          "valueString": "Not Hispanic or Latino"
        } ]
      } ],
      "identifier": [ {
        "type": {
          "coding": [ {
            "system": "http://terminology.hl7.org/CodeSystem/v2-0203",
            "code": "MR"
          } ]
        },
        "system": "https://bonnie-fhir.healthit.gov/",
        "value": "617827e84bf8e25b8f204e17"
      } ],
      "name": [ {
        "family": "NumPass",
        "given": [ "PCI89minstartusingrelevantdateTime" ]
      } ],
      "gender": "female",
      "birthDate": "1985-12-02"
    },
    "request": {
      "method": "PUT",
      "url": "Patient/1581d864-2ee8-4789-ab20-743547353803"
    }
  }, {
    "fullUrl": "https://madie.cms.gov/Encounter/337a9855-874a-430c-89ae-07f8493a0bcb",
    "resource": {
      "resourceType": "Encounter",
      "id": "337a9855-874a-430c-89ae-07f8493a0bcb",
      "meta": {
        "profile": [ "http://hl7.org/fhir/us/qicore/StructureDefinition/qicore-encounter" ]
      },
      "status": "finished",
      "class": {
        "system": "http://terminology.hl7.org/CodeSystem/v3-ActCode",
        "code": "EMER",
        "display": "emergency",
        "userSelected": true
      },
      "type": [ {
        "coding": [ {
          "system": "http://snomed.info/sct",
          "version": "2020-09",
          "code": "4525004",
          "display": "Emergency department patient visit (procedure)",
          "userSelected": true
        } ]
      } ],
      "subject": {
        "reference": "Patient/1581d864-2ee8-4789-ab20-743547353803"
      },
      "period": {
        "start": "2026-10-09T08:05:00.000+00:00",
        "end": "2026-10-10T07:15:00.000+00:00"
      },
      "reasonReference": [ {
        "reference": "Procedure/6e6d2d4a-b96d-460c-9ac3-85c87277785b"
      } ],
      "diagnosis": [ {
        "condition": {
          "reference": "Condition/c2903127-4770-4aa3-9d32-41722657fb04"
        }
      } ],
      "location": [ {
        "location": {
          "reference": "Location/5945453d-7fe9-48f5-a09f-30bea9e4dfa0"
        },
        "period": {
          "start": "2026-10-09T08:07:00.000+00:00",
          "end": "2026-10-10T07:13:00.000+00:00"
        }
      } ]
    },
    "request": {
      "method": "PUT",
      "url": "Encounter/337a9855-874a-430c-89ae-07f8493a0bcb"
    }
  }, {
    "fullUrl": "https://madie.cms.gov/Location/5945453d-7fe9-48f5-a09f-30bea9e4dfa0",
    "resource": {
      "resourceType": "Location",
      "id": "5945453d-7fe9-48f5-a09f-30bea9e4dfa0",
      "meta": {
        "profile": [ "http://hl7.org/fhir/us/qicore/StructureDefinition/qicore-location" ]
      },
      "identifier": [ {
        "use": "usual",
        "system": "http://exampleoflocation.com",
        "value": "ED-1.R3"
      } ],
      "name": "Emergency Department, first floor",
      "type": [ {
        "coding": [ {
          "system": "http://snomed.info/sct",
          "version": "20210611",
          "code": "4525004",
          "display": "Emergency department patient visit (procedure)",
          "userSelected": true
        } ]
      }, {
        "coding": [ {
          "system": "http://terminology.hl7.org/CodeSystem/v3-RoleCode",
          "version": "2019",
          "code": "ER",
          "display": "Emergency room",
          "userSelected": true
        } ]
      }, {
        "coding": [ {
          "system": "http://cts.nlm.nih.gov/fhir/CodeSystem/hsloc",
          "version": "2022",
          "code": "1108-0",
          "display": "Emergency Department",
          "userSelected": true
        } ]
      } ]
    },
    "request": {
      "method": "PUT",
      "url": "Location/5945453d-7fe9-48f5-a09f-30bea9e4dfa0"
    }
  }, {
    "fullUrl": "https://madie.cms.gov/Condition/c2903127-4770-4aa3-9d32-41722657fb04",
    "resource": {
      "resourceType": "Condition",
      "id": "c2903127-4770-4aa3-9d32-41722657fb04",
      "meta": {
        "profile": [ "http://hl7.org/fhir/us/qicore/StructureDefinition/qicore-condition" ]
      },
      "clinicalStatus": {
        "coding": [ {
          "system": "http://terminology.hl7.org/CodeSystem/condition-clinical",
          "code": "active",
          "display": "active",
          "userSelected": true
        } ]
      },
      "category": [ {
        "coding": [ {
          "system": "http://terminology.hl7.org/CodeSystem/condition-category",
          "code": "encounter-diagnosis",
          "display": "Encounter Diagnosis",
          "userSelected": true
        } ]
      } ],
      "code": {
        "coding": [ {
          "system": "http://snomed.info/sct",
          "version": "2020-09",
          "code": "401303003",
          "display": "Acute ST segment elevation myocardial infarction (disorder)",
          "userSelected": true
        } ]
      },
      "subject": {
        "reference": "Patient/1581d864-2ee8-4789-ab20-743547353803"
      },
      "recordedDate": "2026-10-26T08:00:00.000+00:00"
    },
    "request": {
      "method": "PUT",
      "url": "Condition/c2903127-4770-4aa3-9d32-41722657fb04"
    }
  }, {
    "fullUrl": "https://madie.cms.gov/Procedure/6e6d2d4a-b96d-460c-9ac3-85c87277785b",
    "resource": {
      "resourceType": "Procedure",
      "id": "6e6d2d4a-b96d-460c-9ac3-85c87277785b",
      "meta": {
        "profile": [ "http://hl7.org/fhir/us/qicore/StructureDefinition/qicore-procedure" ]
      },
      "extension": [ {
        "url": "http://hl7.org/fhir/us/qicore/StructureDefinition/qicore-recorded",
        "valueDateTime": "2026-10-09T09:34:00.000+00:00"
      } ],
      "status": "completed",
      "code": {
        "coding": [ {
          "system": "http://www.cms.gov/Medicare/Coding/ICD10",
          "version": "2021",
          "code": "0270346",
          "display": "Dilation of Coronary Artery, One Artery, Bifurcation, with Drug-eluting Intraluminal Device, Percutaneous Approach",
          "userSelected": true
        } ]
      },
      "subject": {
        "reference": "Patient/1581d864-2ee8-4789-ab20-743547353803"
      },
      "performedDateTime": "2026-10-09T09:34:00.000+00:00"
    },
    "request": {
      "method": "PUT",
      "url": "Procedure/6e6d2d4a-b96d-460c-9ac3-85c87277785b"
    }
  }, {
    "fullUrl": "https://madie.cms.gov/MeasureReport/0c9cd63e-c25b-4efb-917e-87dac0cb0717",
    "resource": {
      "resourceType": "MeasureReport",
      "id": "0c9cd63e-c25b-4efb-917e-87dac0cb0717",
      "meta": {
        "profile": [ "http://hl7.org/fhir/us/cqfmeasures/StructureDefinition/test-case-cqfm" ]
      },
      "contained": [ {
        "resourceType": "Parameters",
        "id": "adcce163-0e7f-496d-8963-694eaa0c0ebd-parameters",
        "parameter": [ {
          "name": "subject",
          "valueString": "1581d864-2ee8-4789-ab20-743547353803"
        } ]
      } ],
      "extension": [ {
        "url": "http://hl7.org/fhir/us/cqfmeasures/StructureDefinition/cqfm-inputParameters",
        "valueReference": {
          "reference": "#adcce163-0e7f-496d-8963-694eaa0c0ebd-parameters"
        }
      }, {
        "url": "http://hl7.org/fhir/us/cqfmeasures/StructureDefinition/cqfm-testCaseDescription",
        "valueMarkdown": "PCI 89 minutes of start using relevantdateTime"
      } ],
      "modifierExtension": [ {
        "url": "http://hl7.org/fhir/us/cqfmeasures/StructureDefinition/cqfm-isTestCase",
        "valueBoolean": true
      } ],
      "status": "complete",
      "type": "individual",
      "measure": "https://madie.cms.gov/Measure/CMS996FHIRAptTxforSTEMI",
      "period": {
        "start": "2026-01-01",
        "end": "2026-12-31"
      },
      "group": [ {
        "population": [ {
          "code": {
            "coding": [ {
              "system": "http://terminology.hl7.org/CodeSystem/measure-population",
              "code": "initial-population",
              "display": "Initial Population"
            } ]
          },
          "count": 1
        }, {
          "code": {
            "coding": [ {
              "system": "http://terminology.hl7.org/CodeSystem/measure-population",
              "code": "denominator",
              "display": "Denominator"
            } ]
          },
          "count": 1
        }, {
          "code": {
            "coding": [ {
              "system": "http://terminology.hl7.org/CodeSystem/measure-population",
              "code": "denominator-exclusion",
              "display": "Denominator Exclusion"
            } ]
          },
          "count": 0
        }, {
          "code": {
            "coding": [ {
              "system": "http://terminology.hl7.org/CodeSystem/measure-population",
              "code": "numerator",
              "display": "Numerator"
            } ]
          },
          "count": 1
        }, {
          "code": {
            "coding": [ {
              "system": "http://terminology.hl7.org/CodeSystem/measure-population",
              "code": "denominator-exception",
              "display": "Denominator Exception"
            } ]
          },
          "count": 0
        } ]
      } ],
      "evaluatedResource": [ {
        "reference": "Patient/1581d864-2ee8-4789-ab20-743547353803"
      }, {
        "reference": "Encounter/337a9855-874a-430c-89ae-07f8493a0bcb"
      }, {
        "reference": "Location/5945453d-7fe9-48f5-a09f-30bea9e4dfa0"
      }, {
        "reference": "Condition/c2903127-4770-4aa3-9d32-41722657fb04"
      }, {
        "reference": "Procedure/6e6d2d4a-b96d-460c-9ac3-85c87277785b"
      } ]
    },
    "request": {
      "method": "PUT",
      "url": "MeasureReport/0c9cd63e-c25b-4efb-917e-87dac0cb0717"
    }
  } ]
}