{
  "resourceType": "Bundle",
  "id": "tests-NUMER1Pass-IntubAft2Proc-bundle",
  "type": "transaction",
  "entry": [ {
    "fullUrl": "https://madie.cms.gov/Encounter/43426950-c072-4a8c-a4de-3258dac44c54",
    "resource": {
      "resourceType": "Encounter",
      "id": "43426950-c072-4a8c-a4de-3258dac44c54",
      "meta": {
        "profile": [ "http://hl7.org/fhir/us/qicore/StructureDefinition/qicore-encounter" ]
      },
      "status": "finished",
      "class": {
        "system": "http://terminology.hl7.org/CodeSystem/v3-ActCode",
        "code": "IMP",
        "display": "inpatient encounter"
      },
      "type": [ {
        "coding": [ {
          "system": "http://snomed.info/sct",
          "code": "112689000",
          "display": "Hospital admission, elective, with complete pre-admission work-up"
        } ],
        "text": "Hospital admission, elective, with complete pre-admission work-up"
      } ],
      "priority": {
        "coding": [ {
          "system": "http://snomed.info/sct",
          "code": "103390000"
        } ]
      },
      "subject": {
        "reference": "Patient/0b924188-db4b-45ff-a79d-761f6fd85c89"
      },
      "period": {
        "start": "2026-04-10T08:00:00+00:00",
        "end": "2026-04-14T08:15:00+00:00"
      }
    },
    "request": {
      "method": "PUT",
      "url": "Encounter/43426950-c072-4a8c-a4de-3258dac44c54"
    }
  }, {
    "fullUrl": "https://madie.cms.gov/Patient/0b924188-db4b-45ff-a79d-761f6fd85c89",
    "resource": {
      "resourceType": "Patient",
      "id": "0b924188-db4b-45ff-a79d-761f6fd85c89",
      "meta": {
        "profile": [ "http://hl7.org/fhir/us/qicore/StructureDefinition/qicore-patient" ]
      },
      "extension": [ {
        "url": "http://hl7.org/fhir/us/core/StructureDefinition/us-core-race",
        "extension": [ {
          "url": "ombCategory",
          "valueCoding": {
            "system": "urn:oid:2.16.840.1.113883.6.238",
            "code": "2054-5",
            "display": "Black or African American",
            "userSelected": true
          }
        }, {
          "url": "text",
          "valueString": "Black or African American"
        } ]
      }, {
        "url": "http://hl7.org/fhir/us/core/StructureDefinition/us-core-ethnicity",
        "extension": [ {
          "url": "ombCategory",
          "valueCoding": {
            "system": "urn:oid:2.16.840.1.113883.6.238",
            "code": "2186-5",
            "display": "Not Hispanic or Latino",
            "userSelected": true
          }
        }, {
          "url": "text",
          "valueString": "Not Hispanic or Latino"
        } ]
      } ],
      "identifier": [ {
        "type": {
          "coding": [ {
            "system": "http://terminology.hl7.org/CodeSystem/v2-0203",
            "code": "MR"
          } ]
        },
        "system": "https://bonnie-fhir.healthit.gov/",
        "value": "61152a3b98086b7a79cbd7c1"
      } ],
      "active": true,
      "name": [ {
        "use": "usual",
        "family": "NUMER1Pass",
        "given": [ "IntubAft2Proc" ]
      } ],
      "gender": "female",
      "birthDate": "1966-07-12"
    },
    "request": {
      "method": "PUT",
      "url": "Patient/0b924188-db4b-45ff-a79d-761f6fd85c89"
    }
  }, {
    "fullUrl": "https://madie.cms.gov/Procedure/8e9b81ec-5dab-44eb-95eb-d37a411df6e3",
    "resource": {
      "resourceType": "Procedure",
      "id": "8e9b81ec-5dab-44eb-95eb-d37a411df6e3",
      "meta": {
        "profile": [ "http://hl7.org/fhir/us/qicore/StructureDefinition/qicore-procedure" ]
      },
      "extension": [ {
        "url": "http://hl7.org/fhir/us/qicore/StructureDefinition/qicore-recorded",
        "valueDateTime": "2026-04-11T10:20:00+00:00"
      } ],
      "status": "completed",
      "category": {
        "coding": [ {
          "system": "http://snomed.info/sct",
          "code": "18286008",
          "display": "General or neuraxial anesthesia"
        } ]
      },
      "code": {
        "coding": [ {
          "system": "http://snomed.info/sct",
          "code": "112943005",
          "display": "Epidural injection of anesthetic substance, diagnostic, caudal, continuous"
        } ]
      },
      "subject": {
        "reference": "Patient/0b924188-db4b-45ff-a79d-761f6fd85c89"
      },
      "performedPeriod": {
        "start": "2026-04-11T08:00:00+00:00",
        "end": "2026-04-11T10:15:00+00:00"
      }
    },
    "request": {
      "method": "PUT",
      "url": "Procedure/8e9b81ec-5dab-44eb-95eb-d37a411df6e3"
    }
  }, {
    "fullUrl": "https://madie.cms.gov/Procedure/9eb9ea36-8e23-401c-a7be-47e21b338707",
    "resource": {
      "resourceType": "Procedure",
      "id": "9eb9ea36-8e23-401c-a7be-47e21b338707",
      "meta": {
        "profile": [ "http://hl7.org/fhir/us/qicore/StructureDefinition/qicore-procedure" ]
      },
      "extension": [ {
        "url": "http://hl7.org/fhir/us/qicore/StructureDefinition/qicore-recorded",
        "valueDateTime": "2026-04-12T07:20:00+00:00"
      } ],
      "status": "completed",
      "category": {
        "coding": [ {
          "system": "http://snomed.info/sct",
          "code": "18286008",
          "display": "General or neuraxial anesthesia"
        } ]
      },
      "code": {
        "coding": [ {
          "system": "http://snomed.info/sct",
          "code": "112943005",
          "display": "Epidural injection of anesthetic substance, diagnostic, caudal, continuous"
        } ]
      },
      "subject": {
        "reference": "Patient/0b924188-db4b-45ff-a79d-761f6fd85c89"
      },
      "performedPeriod": {
        "start": "2026-04-12T07:00:00+00:00",
        "end": "2026-04-12T07:15:00+00:00"
      }
    },
    "request": {
      "method": "PUT",
      "url": "Procedure/9eb9ea36-8e23-401c-a7be-47e21b338707"
    }
  }, {
    "fullUrl": "https://madie.cms.gov/Procedure/93a8d8c6-8382-4fe4-8383-23e44b4111ca",
    "resource": {
      "resourceType": "Procedure",
      "id": "93a8d8c6-8382-4fe4-8383-23e44b4111ca",
      "meta": {
        "profile": [ "http://hl7.org/fhir/us/qicore/StructureDefinition/qicore-procedure" ]
      },
      "extension": [ {
        "url": "http://hl7.org/fhir/us/qicore/StructureDefinition/qicore-recorded",
        "valueDateTime": "2026-04-13T08:10:00+00:00"
      } ],
      "status": "completed",
      "code": {
        "coding": [ {
          "system": "http://www.cms.gov/Medicare/Coding/ICD10",
          "code": "0BH13EZ",
          "display": "Insertion of Endotracheal Airway into Trachea, Percutaneous Approach"
        } ],
        "text": "Insertion of Endotracheal Airway into Trachea, Percutaneous Approach"
      },
      "subject": {
        "reference": "Patient/0b924188-db4b-45ff-a79d-761f6fd85c89"
      },
      "performedPeriod": {
        "start": "2026-04-12T07:16:00+00:00",
        "end": "2026-04-13T07:15:00+00:00"
      }
    },
    "request": {
      "method": "PUT",
      "url": "Procedure/93a8d8c6-8382-4fe4-8383-23e44b4111ca"
    }
  }, {
    "fullUrl": "https://madie.cms.gov/MeasureReport/84c0c543-8bfb-4a6c-9ff1-b26b6e103b31",
    "resource": {
      "resourceType": "MeasureReport",
      "id": "84c0c543-8bfb-4a6c-9ff1-b26b6e103b31",
      "meta": {
        "profile": [ "http://hl7.org/fhir/us/cqfmeasures/StructureDefinition/test-case-cqfm" ]
      },
      "contained": [ {
        "resourceType": "Parameters",
        "id": "fc4e15e0-e026-43cf-a46f-75e859352e4b-parameters",
        "parameter": [ {
          "name": "subject",
          "valueString": "0b924188-db4b-45ff-a79d-761f6fd85c89"
        } ]
      } ],
      "extension": [ {
        "url": "http://hl7.org/fhir/us/cqfmeasures/StructureDefinition/cqfm-inputParameters",
        "valueReference": {
          "reference": "#fc4e15e0-e026-43cf-a46f-75e859352e4b-parameters"
        }
      }, {
        "url": "http://hl7.org/fhir/us/cqfmeasures/StructureDefinition/cqfm-testCaseDescription",
        "valueMarkdown": "Intubation after 2nd procedure"
      } ],
      "modifierExtension": [ {
        "url": "http://hl7.org/fhir/us/cqfmeasures/StructureDefinition/cqfm-isTestCase",
        "valueBoolean": true
      } ],
      "status": "complete",
      "type": "individual",
      "measure": "https://madie.cms.gov/Measure/CMS1218HHRFFHIR",
      "period": {
        "start": "2026-01-01",
        "end": "2026-12-31"
      },
      "group": [ {
        "population": [ {
          "code": {
            "coding": [ {
              "system": "http://terminology.hl7.org/CodeSystem/measure-population",
              "code": "initial-population",
              "display": "Initial Population"
            } ]
          },
          "count": 1
        }, {
          "code": {
            "coding": [ {
              "system": "http://terminology.hl7.org/CodeSystem/measure-population",
              "code": "denominator",
              "display": "Denominator"
            } ]
          },
          "count": 1
        }, {
          "code": {
            "coding": [ {
              "system": "http://terminology.hl7.org/CodeSystem/measure-population",
              "code": "denominator-exclusion",
              "display": "Denominator Exclusion"
            } ]
          },
          "count": 0
        }, {
          "code": {
            "coding": [ {
              "system": "http://terminology.hl7.org/CodeSystem/measure-population",
              "code": "numerator",
              "display": "Numerator"
            } ]
          },
          "count": 1
        } ]
      } ],
      "evaluatedResource": [ {
        "reference": "Encounter/43426950-c072-4a8c-a4de-3258dac44c54"
      }, {
        "reference": "Patient/0b924188-db4b-45ff-a79d-761f6fd85c89"
      }, {
        "reference": "Procedure/8e9b81ec-5dab-44eb-95eb-d37a411df6e3"
      }, {
        "reference": "Procedure/9eb9ea36-8e23-401c-a7be-47e21b338707"
      }, {
        "reference": "Procedure/93a8d8c6-8382-4fe4-8383-23e44b4111ca"
      } ]
    },
    "request": {
      "method": "PUT",
      "url": "MeasureReport/84c0c543-8bfb-4a6c-9ff1-b26b6e103b31"
    }
  } ]
}