{
  "resourceType": "Bundle",
  "id": "617be86a1619a529957d62b9",
  "type": "transaction",
  "entry": [ {
    "fullUrl": "https://madie.cms.gov/Patient/cffad22d-5ac8-40a2-a677-a746687b0744",
    "resource": {
      "resourceType": "Patient",
      "id": "cffad22d-5ac8-40a2-a677-a746687b0744",
      "meta": {
        "profile": [ "http://hl7.org/fhir/us/qicore/StructureDefinition/qicore-patient" ]
      },
      "extension": [ {
        "url": "http://hl7.org/fhir/us/core/StructureDefinition/us-core-race",
        "extension": [ {
          "url": "ombCategory",
          "valueCoding": {
            "system": "urn:oid:2.16.840.1.113883.6.238",
            "code": "2076-8",
            "display": "Native Hawaiian or Other Pacific Islander",
            "userSelected": true
          }
        }, {
          "url": "text",
          "valueString": "Native Hawaiian or Other Pacific Islander"
        } ]
      }, {
        "url": "http://hl7.org/fhir/us/core/StructureDefinition/us-core-ethnicity",
        "extension": [ {
          "url": "ombCategory",
          "valueCoding": {
            "system": "urn:oid:2.16.840.1.113883.6.238",
            "code": "2186-5",
            "display": "Not Hispanic or Latino",
            "userSelected": true
          }
        }, {
          "url": "text",
          "valueString": "Not Hispanic or Latino"
        } ]
      } ],
      "identifier": [ {
        "type": {
          "coding": [ {
            "system": "http://terminology.hl7.org/CodeSystem/v2-0203",
            "code": "MR"
          } ]
        },
        "system": "https://bonnie-fhir.healthit.gov/",
        "value": "617be86a1619a529957d62b9"
      } ],
      "name": [ {
        "family": "DenExcl7Fail",
        "given": [ "DxStartsBeforeEndsBefore90dayPeriod" ]
      } ],
      "gender": "female",
      "birthDate": "1985-12-02"
    },
    "request": {
      "method": "PUT",
      "url": "Patient/cffad22d-5ac8-40a2-a677-a746687b0744"
    }
  }, {
    "fullUrl": "https://madie.cms.gov/Encounter/215ea528-bcfe-45e6-b2e9-4c8809d54133",
    "resource": {
      "resourceType": "Encounter",
      "id": "215ea528-bcfe-45e6-b2e9-4c8809d54133",
      "meta": {
        "profile": [ "http://hl7.org/fhir/us/qicore/StructureDefinition/qicore-encounter" ]
      },
      "status": "finished",
      "class": {
        "system": "http://terminology.hl7.org/CodeSystem/v3-ActCode",
        "code": "EMER",
        "display": "emergency",
        "userSelected": true
      },
      "type": [ {
        "coding": [ {
          "system": "http://snomed.info/sct",
          "version": "2020-09",
          "code": "4525004",
          "display": "Emergency department patient visit (procedure)",
          "userSelected": true
        } ]
      } ],
      "subject": {
        "reference": "Patient/cffad22d-5ac8-40a2-a677-a746687b0744"
      },
      "period": {
        "start": "2026-10-09T08:05:00.000+00:00",
        "end": "2026-10-10T07:15:00.000+00:00"
      }
    },
    "request": {
      "method": "PUT",
      "url": "Encounter/215ea528-bcfe-45e6-b2e9-4c8809d54133"
    }
  }, {
    "fullUrl": "https://madie.cms.gov/Condition/cf882f5f-b955-46fc-bc7e-18719459b6ff",
    "resource": {
      "resourceType": "Condition",
      "id": "cf882f5f-b955-46fc-bc7e-18719459b6ff",
      "meta": {
        "profile": [ "http://hl7.org/fhir/us/qicore/StructureDefinition/qicore-condition" ]
      },
      "clinicalStatus": {
        "coding": [ {
          "system": "http://terminology.hl7.org/CodeSystem/condition-clinical",
          "code": "active",
          "display": "active",
          "userSelected": true
        } ]
      },
      "category": [ {
        "coding": [ {
          "system": "http://terminology.hl7.org/CodeSystem/condition-category",
          "code": "encounter-diagnosis",
          "display": "Encounter Diagnosis",
          "userSelected": true
        } ]
      } ],
      "code": {
        "coding": [ {
          "system": "http://snomed.info/sct",
          "version": "2020-09",
          "code": "401303003",
          "display": "Acute ST segment elevation myocardial infarction (disorder)",
          "userSelected": true
        } ]
      },
      "subject": {
        "reference": "Patient/cffad22d-5ac8-40a2-a677-a746687b0744"
      },
      "onsetDateTime": "2026-10-09T08:30:00.000+00:00"
    },
    "request": {
      "method": "PUT",
      "url": "Condition/cf882f5f-b955-46fc-bc7e-18719459b6ff"
    }
  }, {
    "fullUrl": "https://madie.cms.gov/Condition/362301e2-8fcd-4986-ba2e-cefccf89f6b6",
    "resource": {
      "resourceType": "Condition",
      "id": "362301e2-8fcd-4986-ba2e-cefccf89f6b6",
      "meta": {
        "profile": [ "http://hl7.org/fhir/us/qicore/StructureDefinition/qicore-condition" ]
      },
      "clinicalStatus": {
        "coding": [ {
          "system": "http://terminology.hl7.org/CodeSystem/condition-clinical",
          "version": "4.0.1",
          "code": "inactive",
          "display": "Inactive",
          "userSelected": true
        } ]
      },
      "category": [ {
        "coding": [ {
          "system": "http://terminology.hl7.org/CodeSystem/condition-category",
          "code": "encounter-diagnosis",
          "display": "Encounter Diagnosis",
          "userSelected": true
        } ]
      } ],
      "code": {
        "coding": [ {
          "system": "http://snomed.info/sct",
          "version": "2020-03",
          "code": "10061007",
          "display": "Brain stem contusion without open intracranial wound AND with prolonged loss of consciousness (more than 24 hours) AND return to pre-existing conscious level (disorder)",
          "userSelected": true
        } ]
      },
      "subject": {
        "reference": "Patient/cffad22d-5ac8-40a2-a677-a746687b0744"
      },
      "onsetDateTime": "2026-01-01T08:00:00.000+00:00",
      "abatementDateTime": "2026-05-20T09:30:00.000+00:00"
    },
    "request": {
      "method": "PUT",
      "url": "Condition/362301e2-8fcd-4986-ba2e-cefccf89f6b6"
    }
  }, {
    "fullUrl": "https://madie.cms.gov/MeasureReport/a86a0922-852a-423e-8068-a406440c1a12",
    "resource": {
      "resourceType": "MeasureReport",
      "id": "a86a0922-852a-423e-8068-a406440c1a12",
      "meta": {
        "profile": [ "http://hl7.org/fhir/us/cqfmeasures/StructureDefinition/test-case-cqfm" ]
      },
      "contained": [ {
        "resourceType": "Parameters",
        "id": "e9793b02-5471-477b-98b0-0a72b1c1aaab-parameters",
        "parameter": [ {
          "name": "subject",
          "valueString": "cffad22d-5ac8-40a2-a677-a746687b0744"
        } ]
      } ],
      "extension": [ {
        "url": "http://hl7.org/fhir/us/cqfmeasures/StructureDefinition/cqfm-inputParameters",
        "valueReference": {
          "reference": "#e9793b02-5471-477b-98b0-0a72b1c1aaab-parameters"
        }
      }, {
        "url": "http://hl7.org/fhir/us/cqfmeasures/StructureDefinition/cqfm-testCaseDescription",
        "valueMarkdown": "Patient has closed head trauma (exclusion diagnosis) starts during 90 day period and ends during ED"
      } ],
      "modifierExtension": [ {
        "url": "http://hl7.org/fhir/us/cqfmeasures/StructureDefinition/cqfm-isTestCase",
        "valueBoolean": true
      } ],
      "status": "complete",
      "type": "individual",
      "measure": "https://madie.cms.gov/Measure/CMS996FHIRAptTxforSTEMI",
      "period": {
        "start": "2026-01-01",
        "end": "2026-12-31"
      },
      "group": [ {
        "population": [ {
          "code": {
            "coding": [ {
              "system": "http://terminology.hl7.org/CodeSystem/measure-population",
              "code": "initial-population",
              "display": "Initial Population"
            } ]
          },
          "count": 1
        }, {
          "code": {
            "coding": [ {
              "system": "http://terminology.hl7.org/CodeSystem/measure-population",
              "code": "denominator",
              "display": "Denominator"
            } ]
          },
          "count": 1
        }, {
          "code": {
            "coding": [ {
              "system": "http://terminology.hl7.org/CodeSystem/measure-population",
              "code": "denominator-exclusion",
              "display": "Denominator Exclusion"
            } ]
          },
          "count": 0
        }, {
          "code": {
            "coding": [ {
              "system": "http://terminology.hl7.org/CodeSystem/measure-population",
              "code": "numerator",
              "display": "Numerator"
            } ]
          },
          "count": 0
        }, {
          "code": {
            "coding": [ {
              "system": "http://terminology.hl7.org/CodeSystem/measure-population",
              "code": "denominator-exception",
              "display": "Denominator Exception"
            } ]
          },
          "count": 0
        } ]
      } ],
      "evaluatedResource": [ {
        "reference": "Patient/cffad22d-5ac8-40a2-a677-a746687b0744"
      }, {
        "reference": "Encounter/215ea528-bcfe-45e6-b2e9-4c8809d54133"
      }, {
        "reference": "Condition/cf882f5f-b955-46fc-bc7e-18719459b6ff"
      }, {
        "reference": "Condition/362301e2-8fcd-4986-ba2e-cefccf89f6b6"
      } ]
    },
    "request": {
      "method": "PUT",
      "url": "MeasureReport/a86a0922-852a-423e-8068-a406440c1a12"
    }
  } ]
}