{
  "resourceType": "Bundle",
  "id": "612e6b1702c62a011f2ec653",
  "type": "transaction",
  "entry": [ {
    "fullUrl": "https://madie.cms.gov/Patient/1d907390-04db-46f5-b429-955aa427e815",
    "resource": {
      "resourceType": "Patient",
      "id": "1d907390-04db-46f5-b429-955aa427e815",
      "meta": {
        "profile": [ "http://hl7.org/fhir/us/qicore/StructureDefinition/qicore-patient" ]
      },
      "text": {
        "status": "generated",
        "div": "<div xmlns=\"http://www.w3.org/1999/xhtml\"><div class=\"hapiHeaderText\">NOccur1FailIP1NumMAWarfSameDayBFAdmit <b>NUMERPASS </b></div><table class=\"hapiPropertyTable\"><tbody><tr><td>Identifier</td><td>f6b3ce4fb2b87a4aa5f00ca8118e0e9a</td></tr><tr><td>Date of birth</td><td><span>02 January 1974</span></td></tr></tbody></table></div>"
      },
      "extension": [ {
        "url": "http://hl7.org/fhir/us/core/StructureDefinition/us-core-race",
        "extension": [ {
          "url": "ombCategory",
          "valueCoding": {
            "system": "urn:oid:2.16.840.1.113883.6.238",
            "code": "1002-5",
            "display": "American Indian or Alaska Native",
            "userSelected": true
          }
        }, {
          "url": "text",
          "valueString": "American Indian or Alaska Native"
        } ]
      }, {
        "url": "http://hl7.org/fhir/us/core/StructureDefinition/us-core-ethnicity",
        "extension": [ {
          "url": "ombCategory",
          "valueCoding": {
            "system": "urn:oid:2.16.840.1.113883.6.238",
            "code": "2135-2",
            "display": "Hispanic or Latino",
            "userSelected": true
          }
        }, {
          "url": "text",
          "valueString": "Hispanic or Latino"
        } ]
      } ],
      "identifier": [ {
        "type": {
          "coding": [ {
            "system": "http://terminology.hl7.org/CodeSystem/v2-0203",
            "code": "MR"
          } ]
        },
        "system": "https://bonnie-fhir.healthit.gov/",
        "value": "612e6b1702c62a011f2ec653"
      } ],
      "active": true,
      "name": [ {
        "use": "usual",
        "family": "NUMERPass",
        "given": [ "NOccur1FailIP1NumMAWarfSameDayBFAdmit" ]
      } ],
      "gender": "male",
      "birthDate": "1975-01-02"
    },
    "request": {
      "method": "PUT",
      "url": "Patient/1d907390-04db-46f5-b429-955aa427e815"
    }
  }, {
    "fullUrl": "https://madie.cms.gov/Encounter/d015bbee-0234-461f-8799-710685163a5a",
    "resource": {
      "resourceType": "Encounter",
      "id": "d015bbee-0234-461f-8799-710685163a5a",
      "meta": {
        "profile": [ "http://hl7.org/fhir/us/qicore/StructureDefinition/qicore-encounter" ]
      },
      "status": "finished",
      "class": {
        "system": "http://terminology.hl7.org/CodeSystem/v3-ActCode",
        "code": "IMP",
        "display": "inpatient encounter"
      },
      "type": [ {
        "coding": [ {
          "system": "http://snomed.info/sct",
          "code": "8715000"
        } ]
      } ],
      "subject": {
        "reference": "Patient/1d907390-04db-46f5-b429-955aa427e815"
      },
      "period": {
        "start": "2026-10-03T08:00:00+00:00",
        "end": "2026-10-05T08:15:00+00:00"
      },
      "length": {
        "value": 2.0,
        "unit": "days"
      },
      "diagnosis": [ {
        "condition": {
          "reference": "Condition/5c83ac9a-cca8-43b5-819f-1974e15242b8"
        }
      } ]
    },
    "request": {
      "method": "PUT",
      "url": "Encounter/d015bbee-0234-461f-8799-710685163a5a"
    }
  }, {
    "fullUrl": "https://madie.cms.gov/Encounter/ace02b0f-9f06-4e96-8edb-9d15b1d899cb",
    "resource": {
      "resourceType": "Encounter",
      "id": "ace02b0f-9f06-4e96-8edb-9d15b1d899cb",
      "meta": {
        "profile": [ "http://hl7.org/fhir/us/qicore/StructureDefinition/qicore-encounter" ]
      },
      "status": "finished",
      "class": {
        "system": "http://terminology.hl7.org/CodeSystem/v3-ActCode",
        "code": "IMP",
        "display": "inpatient encounter"
      },
      "type": [ {
        "coding": [ {
          "system": "http://snomed.info/sct",
          "code": "8715000"
        } ]
      } ],
      "subject": {
        "reference": "Patient/1d907390-04db-46f5-b429-955aa427e815"
      },
      "period": {
        "start": "2026-11-01T08:00:00+00:00",
        "end": "2026-11-26T08:15:00+00:00"
      },
      "length": {
        "value": 25.0,
        "unit": "days"
      }
    },
    "request": {
      "method": "PUT",
      "url": "Encounter/ace02b0f-9f06-4e96-8edb-9d15b1d899cb"
    }
  }, {
    "fullUrl": "https://madie.cms.gov/Coverage/459c4539-0c50-4cb5-810e-ff3a0526ad03",
    "resource": {
      "resourceType": "Coverage",
      "id": "459c4539-0c50-4cb5-810e-ff3a0526ad03",
      "status": "active",
      "beneficiary": {
        "reference": "Patient/1d907390-04db-46f5-b429-955aa427e815"
      },
      "period": {
        "start": "1975-01-02T08:00:00+00:00"
      },
      "payor": [ {
        "reference": "Organization/87c1762e-0775-4c8b-b71d-78878ae77f6f"
      } ]
    },
    "request": {
      "method": "PUT",
      "url": "Coverage/459c4539-0c50-4cb5-810e-ff3a0526ad03"
    }
  }, {
    "fullUrl": "https://madie.cms.gov/MedicationAdministration/b028998f-a5db-4689-9eeb-dd1013993ab4",
    "resource": {
      "resourceType": "MedicationAdministration",
      "id": "b028998f-a5db-4689-9eeb-dd1013993ab4",
      "meta": {
        "profile": [ "http://hl7.org/fhir/us/qicore/StructureDefinition/qicore-medicationadministration" ]
      },
      "status": "completed",
      "medicationCodeableConcept": {
        "coding": [ {
          "system": "http://www.nlm.nih.gov/research/umls/rxnorm",
          "code": "855288"
        } ]
      },
      "subject": {
        "reference": "Patient/1d907390-04db-46f5-b429-955aa427e815"
      },
      "effectivePeriod": {
        "start": "2026-11-01T06:00:00+00:00",
        "end": "2026-11-01T06:15:00+00:00"
      }
    },
    "request": {
      "method": "PUT",
      "url": "MedicationAdministration/b028998f-a5db-4689-9eeb-dd1013993ab4"
    }
  }, {
    "fullUrl": "https://madie.cms.gov/Condition/5c83ac9a-cca8-43b5-819f-1974e15242b8",
    "resource": {
      "resourceType": "Condition",
      "id": "5c83ac9a-cca8-43b5-819f-1974e15242b8",
      "meta": {
        "profile": [ "http://hl7.org/fhir/us/qicore/StructureDefinition/qicore-condition" ]
      },
      "category": [ {
        "coding": [ {
          "system": "http://terminology.hl7.org/CodeSystem/condition-category",
          "code": "encounter-diagnosis",
          "display": "Encounter Diagnosis"
        } ]
      } ],
      "code": {
        "coding": [ {
          "system": "http://snomed.info/sct",
          "version": "2025-03",
          "code": "10217006",
          "display": "Third degree perineal laceration (disorder)",
          "userSelected": true
        } ]
      },
      "subject": {
        "reference": "Patient/1d907390-04db-46f5-b429-955aa427e815"
      },
      "recordedDate": "2026-07-20T08:00:00.000+00:00"
    },
    "request": {
      "method": "PUT",
      "url": "Condition/5c83ac9a-cca8-43b5-819f-1974e15242b8"
    }
  }, {
    "fullUrl": "https://madie.cms.gov/Organization/87c1762e-0775-4c8b-b71d-78878ae77f6f",
    "resource": {
      "resourceType": "Organization",
      "id": "87c1762e-0775-4c8b-b71d-78878ae77f6f",
      "meta": {
        "profile": [ "http://hl7.org/fhir/us/qicore/StructureDefinition/qicore-organization" ]
      },
      "identifier": [ {
        "use": "temp",
        "system": "urn:oid:2.16.840.1.113883.4.4",
        "value": "21-3259825"
      } ],
      "active": true,
      "type": [ {
        "coding": [ {
          "system": "http://terminology.hl7.org/CodeSystem/organization-type",
          "code": "pay",
          "display": "Payer"
        } ]
      } ],
      "name": "Blue Cross Blue Shield of Texas",
      "telecom": [ {
        "system": "phone",
        "value": "(+1) 972-766-6900"
      } ],
      "address": [ {
        "use": "billing",
        "type": "postal",
        "line": [ "P.O. Box 660044" ],
        "city": "Dallas",
        "state": "TX",
        "postalCode": "75266-0044",
        "country": "USA"
      } ]
    },
    "request": {
      "method": "PUT",
      "url": "Organization/87c1762e-0775-4c8b-b71d-78878ae77f6f"
    }
  }, {
    "fullUrl": "https://madie.cms.gov/Practitioner/e9d8318b-c42d-445d-b6ff-d978606ec116",
    "resource": {
      "resourceType": "Practitioner",
      "id": "e9d8318b-c42d-445d-b6ff-d978606ec116",
      "identifier": [ {
        "system": "http://hl7.org/fhir/sid/us-npi",
        "value": "123456"
      } ],
      "name": [ {
        "family": "Evil",
        "prefix": [ "Dr" ]
      } ]
    },
    "request": {
      "method": "PUT",
      "url": "Practitioner/e9d8318b-c42d-445d-b6ff-d978606ec116"
    }
  }, {
    "fullUrl": "https://madie.cms.gov/MeasureReport/9bb51641-78bb-48c2-b5cb-1d348bf69354",
    "resource": {
      "resourceType": "MeasureReport",
      "id": "9bb51641-78bb-48c2-b5cb-1d348bf69354",
      "meta": {
        "profile": [ "http://hl7.org/fhir/us/cqfmeasures/StructureDefinition/test-case-cqfm" ]
      },
      "contained": [ {
        "resourceType": "Parameters",
        "id": "f286f975-585c-429a-bf43-b207a27297ee-parameters",
        "parameter": [ {
          "name": "subject",
          "valueString": "1d907390-04db-46f5-b429-955aa427e815"
        } ]
      } ],
      "extension": [ {
        "url": "http://hl7.org/fhir/us/cqfmeasures/StructureDefinition/cqfm-inputParameters",
        "valueReference": {
          "reference": "#f286f975-585c-429a-bf43-b207a27297ee-parameters"
        }
      }, {
        "url": "http://hl7.org/fhir/us/cqfmeasures/StructureDefinition/cqfm-testCaseDescription",
        "valueMarkdown": "2 encounters. One is failed IPP and another encountewarfarin administered  on the same day as adm but it was before adm time\n"
      } ],
      "modifierExtension": [ {
        "url": "http://hl7.org/fhir/us/cqfmeasures/StructureDefinition/cqfm-isTestCase",
        "valueBoolean": true
      } ],
      "status": "complete",
      "type": "individual",
      "measure": "https://madie.cms.gov/Measure/CMS108VTEProphylaxisFHIR",
      "period": {
        "start": "2026-01-01",
        "end": "2026-12-31"
      },
      "group": [ {
        "population": [ {
          "code": {
            "coding": [ {
              "system": "http://terminology.hl7.org/CodeSystem/measure-population",
              "code": "initial-population",
              "display": "Initial Population"
            } ]
          },
          "count": 1
        }, {
          "code": {
            "coding": [ {
              "system": "http://terminology.hl7.org/CodeSystem/measure-population",
              "code": "denominator",
              "display": "Denominator"
            } ]
          },
          "count": 1
        }, {
          "code": {
            "coding": [ {
              "system": "http://terminology.hl7.org/CodeSystem/measure-population",
              "code": "denominator-exclusion",
              "display": "Denominator Exclusion"
            } ]
          },
          "count": 0
        }, {
          "code": {
            "coding": [ {
              "system": "http://terminology.hl7.org/CodeSystem/measure-population",
              "code": "numerator",
              "display": "Numerator"
            } ]
          },
          "count": 1
        } ]
      } ],
      "evaluatedResource": [ {
        "reference": "Patient/1d907390-04db-46f5-b429-955aa427e815"
      }, {
        "reference": "Encounter/d015bbee-0234-461f-8799-710685163a5a"
      }, {
        "reference": "Encounter/ace02b0f-9f06-4e96-8edb-9d15b1d899cb"
      }, {
        "reference": "Coverage/459c4539-0c50-4cb5-810e-ff3a0526ad03"
      }, {
        "reference": "MedicationAdministration/b028998f-a5db-4689-9eeb-dd1013993ab4"
      }, {
        "reference": "Condition/5c83ac9a-cca8-43b5-819f-1974e15242b8"
      }, {
        "reference": "Organization/87c1762e-0775-4c8b-b71d-78878ae77f6f"
      }, {
        "reference": "Practitioner/e9d8318b-c42d-445d-b6ff-d978606ec116"
      } ]
    },
    "request": {
      "method": "PUT",
      "url": "MeasureReport/9bb51641-78bb-48c2-b5cb-1d348bf69354"
    }
  } ]
}