{
  "resourceType": "Bundle",
  "id": "633b3f9e0968f80122503cc4",
  "type": "transaction",
  "entry": [ {
    "fullUrl": "https://madie.cms.gov/Patient/56e6a586-ce66-4e06-8796-29015f9aec33",
    "resource": {
      "resourceType": "Patient",
      "id": "56e6a586-ce66-4e06-8796-29015f9aec33",
      "meta": {
        "profile": [ "http://hl7.org/fhir/us/qicore/StructureDefinition/qicore-patient" ]
      },
      "text": {
        "status": "generated",
        "div": "<div xmlns=\"http://www.w3.org/1999/xhtml\"><div class=\"hapiHeaderText\">DelProcStart=EncStartPlus1Min <b>IPPASS </b></div><table class=\"hapiPropertyTable\"><tbody><tr><td>Date of birth</td><td><span>31 January 2004</span></td></tr></tbody></table></div>"
      },
      "extension": [ {
        "url": "http://hl7.org/fhir/us/core/StructureDefinition/us-core-race",
        "extension": [ {
          "url": "ombCategory",
          "valueCoding": {
            "system": "urn:oid:2.16.840.1.113883.6.238",
            "code": "1002-5",
            "display": "American Indian or Alaska Native",
            "userSelected": true
          }
        }, {
          "url": "text",
          "valueString": "American Indian or Alaska Native"
        } ]
      }, {
        "url": "http://hl7.org/fhir/us/core/StructureDefinition/us-core-ethnicity",
        "extension": [ {
          "url": "ombCategory",
          "valueCoding": {
            "system": "urn:oid:2.16.840.1.113883.6.238",
            "code": "2135-2",
            "display": "Hispanic or Latino",
            "userSelected": true
          }
        }, {
          "url": "text",
          "valueString": "Hispanic or Latino"
        } ]
      } ],
      "identifier": [ {
        "type": {
          "coding": [ {
            "system": "http://terminology.hl7.org/CodeSystem/v2-0203",
            "code": "MR"
          } ]
        },
        "system": "https://bonnie-fhir.healthit.gov/",
        "value": "633b3f9e0968f80122503cc4"
      } ],
      "active": true,
      "name": [ {
        "use": "usual",
        "family": "IPPass",
        "given": [ "DelProcStart_EncStartPlus1Min" ]
      } ],
      "gender": "female",
      "birthDate": "2004-01-31"
    },
    "request": {
      "method": "PUT",
      "url": "Patient/56e6a586-ce66-4e06-8796-29015f9aec33"
    }
  }, {
    "fullUrl": "https://madie.cms.gov/Encounter/294134b9-8a65-4533-a7cf-8c1e2cd77334",
    "resource": {
      "resourceType": "Encounter",
      "id": "294134b9-8a65-4533-a7cf-8c1e2cd77334",
      "meta": {
        "profile": [ "http://hl7.org/fhir/us/qicore/StructureDefinition/qicore-encounter" ]
      },
      "status": "finished",
      "class": {
        "system": "http://terminology.hl7.org/CodeSystem/v3-ActCode",
        "code": "IMP",
        "display": "inpatient encounter"
      },
      "type": [ {
        "coding": [ {
          "system": "http://snomed.info/sct",
          "code": "183452005"
        } ]
      } ],
      "subject": {
        "reference": "Patient/56e6a586-ce66-4e06-8796-29015f9aec33"
      },
      "period": {
        "start": "2025-02-01T08:00:00.000Z",
        "end": "2025-02-05T08:15:00.000Z"
      }
    },
    "request": {
      "method": "PUT",
      "url": "Encounter/294134b9-8a65-4533-a7cf-8c1e2cd77334"
    }
  }, {
    "fullUrl": "https://madie.cms.gov/Procedure/7616cc70-7480-4488-8931-a178a1542664",
    "resource": {
      "resourceType": "Procedure",
      "id": "7616cc70-7480-4488-8931-a178a1542664",
      "meta": {
        "profile": [ "http://hl7.org/fhir/us/qicore/StructureDefinition/qicore-procedure" ]
      },
      "extension": [ {
        "url": "http://hl7.org/fhir/us/qicore/StructureDefinition/qicore-recorded",
        "valueDateTime": "2013-04-05T09:35:00-04:00"
      } ],
      "status": "completed",
      "code": {
        "coding": [ {
          "system": "http://snomed.info/sct",
          "code": "10745001"
        } ]
      },
      "subject": {
        "reference": "Patient/56e6a586-ce66-4e06-8796-29015f9aec33"
      },
      "performedPeriod": {
        "start": "2025-02-01T08:01:00.000Z",
        "end": "2025-02-05T08:15:00.000Z"
      }
    },
    "request": {
      "method": "PUT",
      "url": "Procedure/7616cc70-7480-4488-8931-a178a1542664"
    }
  }, {
    "fullUrl": "https://madie.cms.gov/Coverage/ccfec4e7-1116-4ac9-b719-7bc46bf7bc36",
    "resource": {
      "resourceType": "Coverage",
      "id": "ccfec4e7-1116-4ac9-b719-7bc46bf7bc36",
      "meta": {
        "profile": [ "http://hl7.org/fhir/us/qicore/StructureDefinition/qicore-coverage" ]
      },
      "status": "active",
      "beneficiary": {
        "reference": "Patient/56e6a586-ce66-4e06-8796-29015f9aec33"
      },
      "payor": [ {
        "reference": "Organization/3952d86e-f081-4b2f-a55a-d8ef3fce5f5f"
      } ]
    },
    "request": {
      "method": "PUT",
      "url": "Coverage/ccfec4e7-1116-4ac9-b719-7bc46bf7bc36"
    }
  }, {
    "fullUrl": "https://madie.cms.gov/Organization/3952d86e-f081-4b2f-a55a-d8ef3fce5f5f",
    "resource": {
      "resourceType": "Organization",
      "id": "3952d86e-f081-4b2f-a55a-d8ef3fce5f5f",
      "meta": {
        "profile": [ "http://hl7.org/fhir/us/qicore/StructureDefinition/qicore-organization" ]
      },
      "identifier": [ {
        "use": "temp",
        "system": "urn:oid:2.16.840.1.113883.4.4",
        "value": "21-3259825"
      } ],
      "active": true,
      "type": [ {
        "coding": [ {
          "system": "http://terminology.hl7.org/CodeSystem/organization-type",
          "code": "pay",
          "display": "Payer"
        } ]
      } ],
      "name": "Blue Cross Blue Shield of Texas",
      "telecom": [ {
        "system": "phone",
        "value": "(+1) 972-766-6900"
      } ],
      "address": [ {
        "use": "billing",
        "type": "postal",
        "line": [ "P.O. Box 660044" ],
        "city": "Dallas",
        "state": "TX",
        "postalCode": "75266-0044",
        "country": "USA"
      } ]
    },
    "request": {
      "method": "PUT",
      "url": "Organization/3952d86e-f081-4b2f-a55a-d8ef3fce5f5f"
    }
  }, {
    "fullUrl": "https://madie.cms.gov/Practitioner/4d7be545-f9fd-4d6e-bebb-170602620bed",
    "resource": {
      "resourceType": "Practitioner",
      "id": "4d7be545-f9fd-4d6e-bebb-170602620bed",
      "identifier": [ {
        "system": "http://hl7.org/fhir/sid/us-npi",
        "value": "123456"
      } ],
      "name": [ {
        "family": "Evil",
        "prefix": [ "Dr" ]
      } ]
    },
    "request": {
      "method": "PUT",
      "url": "Practitioner/4d7be545-f9fd-4d6e-bebb-170602620bed"
    }
  }, {
    "fullUrl": "https://madie.cms.gov/MeasureReport/cdbbb659-2d61-483d-8c36-a9a3687c6f3a",
    "resource": {
      "resourceType": "MeasureReport",
      "id": "cdbbb659-2d61-483d-8c36-a9a3687c6f3a",
      "meta": {
        "profile": [ "http://hl7.org/fhir/us/cqfmeasures/StructureDefinition/test-case-cqfm" ]
      },
      "contained": [ {
        "resourceType": "Parameters",
        "id": "7067b418-df8a-41cb-bf0b-e9ff234faad9-parameters",
        "parameter": [ {
          "name": "subject",
          "valueString": "56e6a586-ce66-4e06-8796-29015f9aec33"
        } ]
      } ],
      "extension": [ {
        "url": "http://hl7.org/fhir/us/cqfmeasures/StructureDefinition/cqfm-inputParameters",
        "valueReference": {
          "reference": "#7067b418-df8a-41cb-bf0b-e9ff234faad9-parameters"
        }
      }, {
        "url": "http://hl7.org/fhir/us/cqfmeasures/StructureDefinition/cqfm-testCaseDescription",
        "valueMarkdown": "Delivery procedure start equals encounter start plus 1 minute.\n"
      } ],
      "modifierExtension": [ {
        "url": "http://hl7.org/fhir/us/cqfmeasures/StructureDefinition/cqfm-isTestCase",
        "valueBoolean": true
      } ],
      "status": "complete",
      "type": "individual",
      "measure": "https://madie.cms.gov/Measure/CMS1028FHIRPCSevereOBComps",
      "period": {
        "start": "2025-01-01",
        "end": "2025-12-31"
      },
      "group": [ {
        "population": [ {
          "code": {
            "coding": [ {
              "system": "http://terminology.hl7.org/CodeSystem/measure-population",
              "code": "initial-population",
              "display": "Initial Population"
            } ]
          },
          "count": 1
        }, {
          "code": {
            "coding": [ {
              "system": "http://terminology.hl7.org/CodeSystem/measure-population",
              "code": "denominator",
              "display": "Denominator"
            } ]
          },
          "count": 0
        }, {
          "code": {
            "coding": [ {
              "system": "http://terminology.hl7.org/CodeSystem/measure-population",
              "code": "numerator",
              "display": "Numerator"
            } ]
          },
          "count": 0
        }, {
          "code": {
            "coding": [ {
              "system": "http://terminology.hl7.org/CodeSystem/measure-population",
              "code": "numerator-exclusion",
              "display": "Numerator Exclusion"
            } ]
          },
          "count": 0
        } ]
      }, {
        "population": [ {
          "code": {
            "coding": [ {
              "system": "http://terminology.hl7.org/CodeSystem/measure-population",
              "code": "initial-population",
              "display": "Initial Population"
            } ]
          },
          "count": 1
        }, {
          "code": {
            "coding": [ {
              "system": "http://terminology.hl7.org/CodeSystem/measure-population",
              "code": "denominator",
              "display": "Denominator"
            } ]
          },
          "count": 0
        }, {
          "code": {
            "coding": [ {
              "system": "http://terminology.hl7.org/CodeSystem/measure-population",
              "code": "numerator",
              "display": "Numerator"
            } ]
          },
          "count": 0
        }, {
          "code": {
            "coding": [ {
              "system": "http://terminology.hl7.org/CodeSystem/measure-population",
              "code": "numerator-exclusion",
              "display": "Numerator Exclusion"
            } ]
          },
          "count": 0
        } ]
      } ],
      "evaluatedResource": [ {
        "reference": "Patient/56e6a586-ce66-4e06-8796-29015f9aec33"
      }, {
        "reference": "Encounter/294134b9-8a65-4533-a7cf-8c1e2cd77334"
      }, {
        "reference": "Procedure/7616cc70-7480-4488-8931-a178a1542664"
      }, {
        "reference": "Coverage/ccfec4e7-1116-4ac9-b719-7bc46bf7bc36"
      }, {
        "reference": "Organization/3952d86e-f081-4b2f-a55a-d8ef3fce5f5f"
      }, {
        "reference": "Practitioner/4d7be545-f9fd-4d6e-bebb-170602620bed"
      } ]
    },
    "request": {
      "method": "PUT",
      "url": "MeasureReport/cdbbb659-2d61-483d-8c36-a9a3687c6f3a"
    }
  } ]
}