{"resourceType":"Bundle","id":"tests-267848e8-9b42-4a94-931d-d2bc4a142c61-bundle","type":"transaction","entry":[{"resource":{"resourceType":"Bundle","id":"649445728572d953d016cf75","type":"transaction","entry":[{"fullUrl":"https://madie.cms.gov/Patient/267848e8-9b42-4a94-931d-d2bc4a142c61","resource":{"resourceType":"Patient","id":"267848e8-9b42-4a94-931d-d2bc4a142c61","meta":{"profile":["http://hl7.org/fhir/us/qicore/StructureDefinition/qicore-patient"]},"extension":[{"url":"http://hl7.org/fhir/us/core/StructureDefinition/us-core-race","extension":[{"url":"ombCategory","valueCoding":{"system":"urn:oid:2.16.840.1.113883.6.238","code":"2106-3","display":"White","userSelected":true}},{"url":"text","valueString":"White"}]},{"url":"http://hl7.org/fhir/us/core/StructureDefinition/us-core-ethnicity","extension":[{"url":"ombCategory","valueCoding":{"system":"urn:oid:2.16.840.1.113883.6.238","code":"2135-2","display":"Hispanic or Latino","userSelected":true}},{"url":"text","valueString":"Hispanic or Latino"}]}],"identifier":[{"type":{"coding":[{"system":"http://terminology.hl7.org/CodeSystem/v2-0203","code":"MR"}]},"system":"https://bonnie-fhir.healthit.gov/","value":"649445728572d953d016cf75"}],"name":[{"family":"IPFail","given":["HIVDxLocalCodeinFebofMP"]}],"gender":"female","birthDate":"1990-02-09"},"request":{"method":"POST","url":"Patient/267848e8-9b42-4a94-931d-d2bc4a142c61"}},{"fullUrl":"https://madie.cms.gov/Condition/hiv-cf76","resource":{"resourceType":"Condition","id":"hiv-cf76","meta":{"profile":["http://hl7.org/fhir/us/qicore/StructureDefinition/qicore-condition"]},"category":[{"coding":[{"system":"http://terminology.hl7.org/CodeSystem/condition-category","code":"problem-list-item","display":"Problem List Item"}]}],"code":{"coding":[{"system":"http://local","code":"XYZ5","userSelected":true}]},"subject":{"reference":"Patient/267848e8-9b42-4a94-931d-d2bc4a142c61"},"recordedDate":"2025-02-02T13:01:00.000+00:00"},"request":{"method":"POST","url":"Condition/hiv-cf76"}},{"fullUrl":"https://madie.cms.gov/Encounter/telephone-visits-cf77","resource":{"resourceType":"Encounter","id":"telephone-visits-cf77","meta":{"profile":["http://hl7.org/fhir/us/qicore/StructureDefinition/qicore-encounter"]},"status":"finished","class":{"system":"http://terminology.hl7.org/CodeSystem/v3-ActCode","code":"AMB","display":"ambulatory"},"type":[{"coding":[{"system":"http://snomed.info/sct","version":"2022-09","code":"185317003","display":"Telephone encounter (procedure)","userSelected":true}]}],"subject":{"reference":"Patient/267848e8-9b42-4a94-931d-d2bc4a142c61"},"period":{"start":"2025-03-07T07:30:00.000+00:00","end":"2025-03-07T08:15:00.000+00:00"}},"request":{"method":"POST","url":"Encounter/telephone-visits-cf77"}},{"fullUrl":"https://madie.cms.gov/Coverage/1","resource":{"resourceType":"Coverage","id":"1","meta":{"profile":["http://hl7.org/fhir/us/qicore/StructureDefinition/qicore-coverage"]},"status":"active","beneficiary":{"reference":"Patient/267848e8-9b42-4a94-931d-d2bc4a142c61"},"payor":[{"reference":"Organization/123456"}]},"request":{"method":"POST","url":"Coverage/1"}},{"fullUrl":"https://madie.cms.gov/Organization/123456","resource":{"resourceType":"Organization","id":"123456","meta":{"profile":["http://hl7.org/fhir/us/qicore/StructureDefinition/qicore-organization"]},"identifier":[{"use":"temp","system":"urn:oid:2.16.840.1.113883.4.4","value":"21-3259825"}],"active":true,"type":[{"coding":[{"system":"http://terminology.hl7.org/CodeSystem/organization-type","code":"pay","display":"Payer"}]}],"name":"Blue Cross Blue Shield of Texas","telecom":[{"system":"phone","value":"(+1) 972-766-6900"}],"address":[{"use":"billing","type":"postal","line":["P.O. Box 660044"],"city":"Dallas","state":"TX","postalCode":"75266-0044","country":"USA"}]},"request":{"method":"POST","url":"Organization/123456"}},{"fullUrl":"https://madie.cms.gov/Practitioner/practitioner-123456","resource":{"resourceType":"Practitioner","id":"practitioner-123456","meta":{"profile":["http://hl7.org/fhir/us/qicore/StructureDefinition/qicore-practitioner"]},"identifier":[{"system":"http://hl7.org/fhir/sid/us-npi","value":"123456"}],"name":[{"family":"Evil","prefix":["Dr"]}]},"request":{"method":"POST","url":"Practitioner/practitioner-123456"}},{"fullUrl":"https://madie.cms.gov/MeasureReport/5764b55c-d2a9-41e2-95a0-2374526f1a87","resource":{"resourceType":"MeasureReport","id":"5764b55c-d2a9-41e2-95a0-2374526f1a87","meta":{"profile":["http://hl7.org/fhir/us/cqfmeasures/StructureDefinition/test-case-cqfm"]},"contained":[{"resourceType":"Parameters","id":"d015db7e-c69c-4ae8-a4b8-a304d1ee5655-parameters","parameter":[{"name":"subject","valueString":"267848e8-9b42-4a94-931d-d2bc4a142c61"}]}],"extension":[{"url":"http://hl7.org/fhir/us/cqfmeasures/StructureDefinition/cqfm-inputParameters","valueReference":{"reference":"#d015db7e-c69c-4ae8-a4b8-a304d1ee5655-parameters"}},{"url":"http://hl7.org/fhir/us/cqfmeasures/StructureDefinition/cqfm-testCaseDescription","valueMarkdown":"HIV diagnosis made in February of MP with a local code with a qualifying encounter during MP"}],"modifierExtension":[{"url":"http://hl7.org/fhir/us/cqfmeasures/StructureDefinition/cqfm-isTestCase","valueBoolean":true}],"status":"complete","type":"individual","measure":"https://madie.cms.gov/Measure/HIVViralSuppressionFHIR","period":{"start":"2025-01-01","end":"2025-12-31"},"group":[{"population":[{"code":{"coding":[{"system":"http://terminology.hl7.org/CodeSystem/measure-population","code":"initial-population","display":"Initial Population"}]},"count":0},{"code":{"coding":[{"system":"http://terminology.hl7.org/CodeSystem/measure-population","code":"denominator","display":"Denominator"}]},"count":0},{"code":{"coding":[{"system":"http://terminology.hl7.org/CodeSystem/measure-population","code":"numerator","display":"Numerator"}]},"count":0}]}],"evaluatedResource":[{"reference":"https://madie.cms.gov/Patient/267848e8-9b42-4a94-931d-d2bc4a142c61"},{"reference":"https://madie.cms.gov/Condition/hiv-cf76"},{"reference":"https://madie.cms.gov/Encounter/telephone-visits-cf77"},{"reference":"https://madie.cms.gov/Coverage/1"},{"reference":"https://madie.cms.gov/Organization/123456"},{"reference":"https://madie.cms.gov/Practitioner/practitioner-123456"}]},"request":{"method":"POST","url":"MeasureReport/5764b55c-d2a9-41e2-95a0-2374526f1a87"}}]},"request":{"method":"PUT","url":"Bundle/649445728572d953d016cf75"}}]}