{
  "resourceType": "Bundle",
  "id": "64944c508572d953d016cf7b",
  "type": "transaction",
  "entry": [ {
    "fullUrl": "Patient/061ab97e-4e5d-4c1d-91dc-21e34b415b5b",
    "resource": {
      "resourceType": "Patient",
      "id": "061ab97e-4e5d-4c1d-91dc-21e34b415b5b",
      "meta": {
        "profile": [ "http://hl7.org/fhir/us/qicore/StructureDefinition/qicore-patient" ]
      },
      "extension": [ {
        "url": "http://hl7.org/fhir/us/core/StructureDefinition/us-core-race",
        "extension": [ {
          "url": "ombCategory",
          "valueCoding": {
            "system": "urn:oid:2.16.840.1.113883.6.238",
            "code": "2106-3",
            "display": "White",
            "userSelected": true
          }
        }, {
          "url": "text",
          "valueString": "White"
        } ]
      }, {
        "url": "http://hl7.org/fhir/us/core/StructureDefinition/us-core-ethnicity",
        "extension": [ {
          "url": "ombCategory",
          "valueCoding": {
            "system": "urn:oid:2.16.840.1.113883.6.238",
            "code": "2135-2",
            "display": "Hispanic or Latino",
            "userSelected": true
          }
        }, {
          "url": "text",
          "valueString": "Hispanic or Latino"
        } ]
      } ],
      "identifier": [ {
        "type": {
          "coding": [ {
            "system": "http://terminology.hl7.org/CodeSystem/v2-0203",
            "code": "MR"
          } ]
        },
        "system": "https://bonnie-fhir.healthit.gov/",
        "value": "64944c508572d953d016cf7b"
      } ],
      "name": [ {
        "family": "IPFail",
        "given": [ "HIVDxonApr1ofMP" ]
      } ],
      "gender": "female",
      "birthDate": "1990-02-09"
    },
    "request": {
      "method": "PUT",
      "url": "Patient/061ab97e-4e5d-4c1d-91dc-21e34b415b5b"
    }
  }, {
    "fullUrl": "Condition/hiv-cf7c",
    "resource": {
      "resourceType": "Condition",
      "id": "hiv-cf7c",
      "meta": {
        "profile": [ "http://hl7.org/fhir/us/qicore/StructureDefinition/qicore-condition" ]
      },
      "category": [ {
        "coding": [ {
          "system": "http://terminology.hl7.org/CodeSystem/condition-category",
          "code": "problem-list-item",
          "display": "Problem List Item"
        } ]
      } ],
      "code": {
        "coding": [ {
          "system": "http://hl7.org/fhir/sid/icd-10-cm",
          "code": "O98.73",
          "userSelected": true
        } ]
      },
      "subject": {
        "reference": "Patient/061ab97e-4e5d-4c1d-91dc-21e34b415b5b"
      },
      "recordedDate": "2025-04-01T00:45:00.000+00:00"
    },
    "request": {
      "method": "PUT",
      "url": "Condition/hiv-cf7c"
    }
  }, {
    "fullUrl": "Encounter/face-to-face-interaction-cf7d",
    "resource": {
      "resourceType": "Encounter",
      "id": "face-to-face-interaction-cf7d",
      "meta": {
        "profile": [ "http://hl7.org/fhir/us/qicore/StructureDefinition/qicore-encounter" ]
      },
      "status": "finished",
      "class": {
        "system": "http://terminology.hl7.org/CodeSystem/v3-ActCode",
        "code": "AMB",
        "display": "ambulatory"
      },
      "type": [ {
        "coding": [ {
          "system": "http://snomed.info/sct",
          "version": "2022-09",
          "code": "12843005",
          "display": "Subsequent hospital visit by physician (procedure)",
          "userSelected": true
        } ]
      } ],
      "subject": {
        "reference": "Patient/061ab97e-4e5d-4c1d-91dc-21e34b415b5b"
      },
      "period": {
        "start": "2025-03-07T15:00:00.000+00:00",
        "end": "2025-03-07T15:45:00.000+00:00"
      }
    },
    "request": {
      "method": "PUT",
      "url": "Encounter/face-to-face-interaction-cf7d"
    }
  }, {
    "fullUrl": "Coverage/Coverage-1",
    "resource": {
      "resourceType": "Coverage",
      "id": "Coverage-1",
      "meta": {
        "profile": [ "http://hl7.org/fhir/us/qicore/StructureDefinition/qicore-coverage" ]
      },
      "status": "active",
      "beneficiary": {
        "reference": "Patient/061ab97e-4e5d-4c1d-91dc-21e34b415b5b"
      },
      "payor": [ {
        "reference": "Organization/Org-123456"
      } ]
    },
    "request": {
      "method": "PUT",
      "url": "Coverage/Coverage-1"
    }
  }, {
    "fullUrl": "Organization/Org-123456",
    "resource": {
      "resourceType": "Organization",
      "id": "Org-123456",
      "meta": {
        "profile": [ "http://hl7.org/fhir/us/qicore/StructureDefinition/qicore-organization" ]
      },
      "identifier": [ {
        "use": "temp",
        "system": "urn:oid:2.16.840.1.113883.4.4",
        "value": "21-3259825"
      } ],
      "active": true,
      "type": [ {
        "coding": [ {
          "system": "http://terminology.hl7.org/CodeSystem/organization-type",
          "code": "pay",
          "display": "Payer"
        } ]
      } ],
      "name": "Blue Cross Blue Shield of Texas",
      "telecom": [ {
        "system": "phone",
        "value": "(+1) 972-766-6900"
      } ],
      "address": [ {
        "use": "billing",
        "type": "postal",
        "line": [ "P.O. Box 660044" ],
        "city": "Dallas",
        "state": "TX",
        "postalCode": "75266-0044",
        "country": "USA"
      } ]
    },
    "request": {
      "method": "PUT",
      "url": "Organization/Org-123456"
    }
  }, {
    "fullUrl": "Practitioner/practitioner-123456",
    "resource": {
      "resourceType": "Practitioner",
      "id": "practitioner-123456",
      "meta": {
        "profile": [ "http://hl7.org/fhir/us/qicore/StructureDefinition/qicore-practitioner" ]
      },
      "identifier": [ {
        "system": "http://hl7.org/fhir/sid/us-npi",
        "value": "123456"
      } ],
      "name": [ {
        "family": "Evil",
        "prefix": [ "Dr" ]
      } ]
    },
    "request": {
      "method": "PUT",
      "url": "Practitioner/practitioner-123456"
    }
  }, {
    "fullUrl": "MeasureReport/5d6accab-a6ad-4111-b2e1-26485895d459",
    "resource": {
      "resourceType": "MeasureReport",
      "id": "5d6accab-a6ad-4111-b2e1-26485895d459",
      "meta": {
        "profile": [ "http://hl7.org/fhir/us/cqfmeasures/StructureDefinition/test-case-cqfm" ]
      },
      "contained": [ {
        "resourceType": "Parameters",
        "id": "3016c963-d273-4182-94b9-f9751ed652c5-parameters",
        "parameter": [ {
          "name": "subject",
          "valueString": "061ab97e-4e5d-4c1d-91dc-21e34b415b5b"
        } ]
      } ],
      "extension": [ {
        "url": "http://hl7.org/fhir/us/cqfmeasures/StructureDefinition/cqfm-inputParameters",
        "valueReference": {
          "reference": "#3016c963-d273-4182-94b9-f9751ed652c5-parameters"
        }
      }, {
        "url": "http://hl7.org/fhir/us/cqfmeasures/StructureDefinition/cqfm-testCaseDescription",
        "valueMarkdown": "HIV diagnosis made on April 1 of MP (91 days) with a qualifying encounter during MP"
      } ],
      "modifierExtension": [ {
        "url": "http://hl7.org/fhir/us/cqfmeasures/StructureDefinition/cqfm-isTestCase",
        "valueBoolean": true
      } ],
      "status": "complete",
      "type": "individual",
      "measure": "Measure/HIVViralSuppressionFHIR",
      "period": {
        "start": "2025-01-01",
        "end": "2025-12-31"
      },
      "group": [ {
        "population": [ {
          "code": {
            "coding": [ {
              "system": "http://terminology.hl7.org/CodeSystem/measure-population",
              "code": "initial-population",
              "display": "Initial Population"
            } ]
          },
          "count": 0
        }, {
          "code": {
            "coding": [ {
              "system": "http://terminology.hl7.org/CodeSystem/measure-population",
              "code": "denominator",
              "display": "Denominator"
            } ]
          },
          "count": 0
        }, {
          "code": {
            "coding": [ {
              "system": "http://terminology.hl7.org/CodeSystem/measure-population",
              "code": "numerator",
              "display": "Numerator"
            } ]
          },
          "count": 0
        } ]
      } ],
      "evaluatedResource": [ {
        "reference": "Patient/061ab97e-4e5d-4c1d-91dc-21e34b415b5b"
      }, {
        "reference": "Condition/hiv-cf7c"
      }, {
        "reference": "Encounter/face-to-face-interaction-cf7d"
      }, {
        "reference": "Coverage/Coverage-1"
      }, {
        "reference": "Organization/Org-123456"
      }, {
        "reference": "Practitioner/practitioner-123456"
      } ]
    },
    "request": {
      "method": "PUT",
      "url": "MeasureReport/5d6accab-a6ad-4111-b2e1-26485895d459"
    }
  } ]
}
