{
  "resourceType": "Bundle",
  "id": "64999b5ecea95c34d9e5777c",
  "type": "transaction",
  "entry": [ {
    "fullUrl": "Patient/0dba5c80-03d8-40cd-ab24-786910e61265",
    "resource": {
      "resourceType": "Patient",
      "id": "0dba5c80-03d8-40cd-ab24-786910e61265",
      "meta": {
        "profile": [ "http://hl7.org/fhir/us/qicore/StructureDefinition/qicore-patient" ]
      },
      "extension": [ {
        "url": "http://hl7.org/fhir/us/core/StructureDefinition/us-core-race",
        "extension": [ {
          "url": "ombCategory",
          "valueCoding": {
            "system": "urn:oid:2.16.840.1.113883.6.238",
            "code": "2076-8",
            "display": "Native Hawaiian or Other Pacific Islander",
            "userSelected": true
          }
        }, {
          "url": "text",
          "valueString": "Native Hawaiian or Other Pacific Islander"
        } ]
      }, {
        "url": "http://hl7.org/fhir/us/core/StructureDefinition/us-core-ethnicity",
        "extension": [ {
          "url": "ombCategory",
          "valueCoding": {
            "system": "urn:oid:2.16.840.1.113883.6.238",
            "code": "2186-5",
            "display": "Not Hispanic or Latino",
            "userSelected": true
          }
        }, {
          "url": "text",
          "valueString": "Not Hispanic or Latino"
        } ]
      } ],
      "identifier": [ {
        "type": {
          "coding": [ {
            "system": "http://terminology.hl7.org/CodeSystem/v2-0203",
            "code": "MR"
          } ]
        },
        "system": "https://bonnie-fhir.healthit.gov/",
        "value": "64999b5ecea95c34d9e5777c"
      } ],
      "name": [ {
        "family": "NumPass",
        "given": [ "2TestsduringMPBothResultsUnder" ]
      } ],
      "gender": "female",
      "birthDate": "1986-05-25"
    },
    "request": {
      "method": "PUT",
      "url": "Patient/0dba5c80-03d8-40cd-ab24-786910e61265"
    }
  }, {
    "fullUrl": "Encounter/preventive-care-services-initial-office-visit-0-to-17-777d",
    "resource": {
      "resourceType": "Encounter",
      "id": "preventive-care-services-initial-office-visit-0-to-17-777d",
      "meta": {
        "profile": [ "http://hl7.org/fhir/us/qicore/StructureDefinition/qicore-encounter" ]
      },
      "status": "finished",
      "class": {
        "system": "http://terminology.hl7.org/CodeSystem/v3-ActCode",
        "code": "AMB",
        "display": "ambulatory"
      },
      "type": [ {
        "coding": [ {
          "system": "http://www.ama-assn.org/go/cpt",
          "version": "2023",
          "code": "99381",
          "display": "Initial comprehensive preventive medicine evaluation and management of an individual including an age and gender appropriate history, examination, counseling/anticipatory guidance/risk factor reduction interventions, and the ordering of laboratory/diagnostic procedures, new patient; infant (age younger than 1 year)",
          "userSelected": true
        } ]
      } ],
      "subject": {
        "reference": "Patient/0dba5c80-03d8-40cd-ab24-786910e61265"
      },
      "period": {
        "start": "2025-03-07T10:00:00.000+00:00",
        "end": "2025-03-07T10:30:00.000+00:00"
      }
    },
    "request": {
      "method": "PUT",
      "url": "Encounter/preventive-care-services-initial-office-visit-0-to-17-777d"
    }
  }, {
    "fullUrl": "Condition/hiv-777e",
    "resource": {
      "resourceType": "Condition",
      "id": "hiv-777e",
      "meta": {
        "profile": [ "http://hl7.org/fhir/us/qicore/StructureDefinition/qicore-condition" ]
      },
      "clinicalStatus": {
        "coding": [ {
          "system": "http://terminology.hl7.org/CodeSystem/condition-clinical",
          "code": "active",
          "display": "active",
          "userSelected": true
        } ]
      },
      "category": [ {
        "coding": [ {
          "system": "http://terminology.hl7.org/CodeSystem/condition-category",
          "code": "problem-list-item",
          "display": "Problem List Item"
        } ]
      } ],
      "code": {
        "coding": [ {
          "system": "http://hl7.org/fhir/sid/icd-9-cm",
          "version": "2013",
          "code": "042",
          "display": "Human immunodeficiency virus [HIV] disease",
          "userSelected": true
        }, {
          "system": "http://snomed.info/sct",
          "code": "165816005",
          "userSelected": true
        } ]
      },
      "subject": {
        "reference": "Patient/0dba5c80-03d8-40cd-ab24-786910e61265"
      },
      "onsetDateTime": "2019-12-02T12:00:00.000+00:00",
      "recordedDate": "2019-12-02T12:00:00.000+00:00"
    },
    "request": {
      "method": "PUT",
      "url": "Condition/hiv-777e"
    }
  }, {
    "fullUrl": "Observation/hiv-viral-load-777f",
    "resource": {
      "resourceType": "Observation",
      "id": "hiv-viral-load-777f",
      "meta": {
        "profile": [ "http://hl7.org/fhir/us/qicore/StructureDefinition/qicore-observation" ]
      },
      "status": "final",
      "category": [ {
        "coding": [ {
          "system": "http://terminology.hl7.org/CodeSystem/observation-category"
        } ]
      } ],
      "code": {
        "coding": [ {
          "system": "http://loinc.org",
          "version": "2.73",
          "code": "10351-5",
          "display": "HIV 1 RNA [Units/volume] (viral load) in Serum or Plasma by Probe with amplification",
          "userSelected": true
        } ]
      },
      "subject": {
        "reference": "Patient/0dba5c80-03d8-40cd-ab24-786910e61265"
      },
      "effectiveDateTime": "2025-03-07T08:00:00.000+00:00",
      "issued": "2025-03-07T08:00:00.000+00:00",
      "valueQuantity": {
        "value": 145.0,
        "unit": "{copies}/mL"
      }
    },
    "request": {
      "method": "PUT",
      "url": "Observation/hiv-viral-load-777f"
    }
  }, {
    "fullUrl": "Observation/hiv-viral-load-7780",
    "resource": {
      "resourceType": "Observation",
      "id": "hiv-viral-load-7780",
      "meta": {
        "profile": [ "http://hl7.org/fhir/us/qicore/StructureDefinition/qicore-observation" ]
      },
      "status": "final",
      "category": [ {
        "coding": [ {
          "system": "http://terminology.hl7.org/CodeSystem/observation-category"
        } ]
      } ],
      "code": {
        "coding": [ {
          "system": "http://loinc.org",
          "version": "2.73",
          "code": "10351-5",
          "display": "HIV 1 RNA [Units/volume] (viral load) in Serum or Plasma by Probe with amplification",
          "userSelected": true
        } ]
      },
      "subject": {
        "reference": "Patient/0dba5c80-03d8-40cd-ab24-786910e61265"
      },
      "effectiveDateTime": "2025-12-31T08:02:00.000+00:00",
      "issued": "2025-12-31T08:02:00.000+00:00",
      "valueQuantity": {
        "value": 160.0,
        "unit": "{copies}/mL"
      }
    },
    "request": {
      "method": "PUT",
      "url": "Observation/hiv-viral-load-7780"
    }
  }, {
    "fullUrl": "Coverage/Coverage-1",
    "resource": {
      "resourceType": "Coverage",
      "id": "Coverage-1",
      "meta": {
        "profile": [ "http://hl7.org/fhir/us/qicore/StructureDefinition/qicore-coverage" ]
      },
      "status": "active",
      "beneficiary": {
        "reference": "Patient/0dba5c80-03d8-40cd-ab24-786910e61265"
      },
      "payor": [ {
        "reference": "Organization/Org-123456"
      } ]
    },
    "request": {
      "method": "PUT",
      "url": "Coverage/Coverage-1"
    }
  }, {
    "fullUrl": "Organization/Org-123456",
    "resource": {
      "resourceType": "Organization",
      "id": "Org-123456",
      "meta": {
        "profile": [ "http://hl7.org/fhir/us/qicore/StructureDefinition/qicore-organization" ]
      },
      "identifier": [ {
        "use": "temp",
        "system": "urn:oid:2.16.840.1.113883.4.4",
        "value": "21-3259825"
      } ],
      "active": true,
      "type": [ {
        "coding": [ {
          "system": "http://terminology.hl7.org/CodeSystem/organization-type",
          "code": "pay",
          "display": "Payer"
        } ]
      } ],
      "name": "Blue Cross Blue Shield of Texas",
      "telecom": [ {
        "system": "phone",
        "value": "(+1) 972-766-6900"
      } ],
      "address": [ {
        "use": "billing",
        "type": "postal",
        "line": [ "P.O. Box 660044" ],
        "city": "Dallas",
        "state": "TX",
        "postalCode": "75266-0044",
        "country": "USA"
      } ]
    },
    "request": {
      "method": "PUT",
      "url": "Organization/Org-123456"
    }
  }, {
    "fullUrl": "Practitioner/practitioner-123456",
    "resource": {
      "resourceType": "Practitioner",
      "id": "practitioner-123456",
      "meta": {
        "profile": [ "http://hl7.org/fhir/us/qicore/StructureDefinition/qicore-practitioner" ]
      },
      "identifier": [ {
        "system": "http://hl7.org/fhir/sid/us-npi",
        "value": "123456"
      } ],
      "name": [ {
        "family": "Evil",
        "prefix": [ "Dr" ]
      } ]
    },
    "request": {
      "method": "PUT",
      "url": "Practitioner/practitioner-123456"
    }
  }, {
    "fullUrl": "MeasureReport/26f65f74-6134-45da-b9a5-bc0a2d908b11",
    "resource": {
      "resourceType": "MeasureReport",
      "id": "26f65f74-6134-45da-b9a5-bc0a2d908b11",
      "meta": {
        "profile": [ "http://hl7.org/fhir/us/cqfmeasures/StructureDefinition/test-case-cqfm" ]
      },
      "contained": [ {
        "resourceType": "Parameters",
        "id": "cd3a93d6-4963-4e20-a8bd-6e1849a37e0d-parameters",
        "parameter": [ {
          "name": "subject",
          "valueString": "0dba5c80-03d8-40cd-ab24-786910e61265"
        } ]
      } ],
      "extension": [ {
        "url": "http://hl7.org/fhir/us/cqfmeasures/StructureDefinition/cqfm-inputParameters",
        "valueReference": {
          "reference": "#cd3a93d6-4963-4e20-a8bd-6e1849a37e0d-parameters"
        }
      }, {
        "url": "http://hl7.org/fhir/us/cqfmeasures/StructureDefinition/cqfm-testCaseDescription",
        "valueMarkdown": "Patient with a diagnosis of HIV 5 years ago and a qualifying encounter during the measurement period  with 2 tests during the MP, both with results under"
      } ],
      "modifierExtension": [ {
        "url": "http://hl7.org/fhir/us/cqfmeasures/StructureDefinition/cqfm-isTestCase",
        "valueBoolean": true
      } ],
      "status": "complete",
      "type": "individual",
      "measure": "Measure/HIVViralSuppressionFHIR",
      "period": {
        "start": "2025-01-01",
        "end": "2025-12-31"
      },
      "group": [ {
        "population": [ {
          "code": {
            "coding": [ {
              "system": "http://terminology.hl7.org/CodeSystem/measure-population",
              "code": "initial-population",
              "display": "Initial Population"
            } ]
          },
          "count": 1
        }, {
          "code": {
            "coding": [ {
              "system": "http://terminology.hl7.org/CodeSystem/measure-population",
              "code": "denominator",
              "display": "Denominator"
            } ]
          },
          "count": 1
        }, {
          "code": {
            "coding": [ {
              "system": "http://terminology.hl7.org/CodeSystem/measure-population",
              "code": "numerator",
              "display": "Numerator"
            } ]
          },
          "count": 1
        } ]
      } ],
      "evaluatedResource": [ {
        "reference": "Patient/0dba5c80-03d8-40cd-ab24-786910e61265"
      }, {
        "reference": "Encounter/preventive-care-services-initial-office-visit-0-to-17-777d"
      }, {
        "reference": "Condition/hiv-777e"
      }, {
        "reference": "Observation/hiv-viral-load-777f"
      }, {
        "reference": "Observation/hiv-viral-load-7780"
      }, {
        "reference": "Coverage/Coverage-1"
      }, {
        "reference": "Organization/Org-123456"
      }, {
        "reference": "Practitioner/practitioner-123456"
      } ]
    },
    "request": {
      "method": "PUT",
      "url": "MeasureReport/26f65f74-6134-45da-b9a5-bc0a2d908b11"
    }
  } ]
}
