{"resourceType":"Bundle","id":"tests-67fe9319-a486-463e-9e0f-346b17628e3c-bundle","type":"transaction","entry":[{"fullUrl":"https://madie.cms.gov/Patient/67fe9319-a486-463e-9e0f-346b17628e3c","resource":{"resourceType":"Patient","id":"67fe9319-a486-463e-9e0f-346b17628e3c","meta":{"profile":["http://hl7.org/fhir/us/qicore/StructureDefinition/qicore-patient"]},"extension":[{"url":"http://hl7.org/fhir/us/core/StructureDefinition/us-core-race","extension":[{"url":"ombCategory","valueCoding":{"system":"urn:oid:2.16.840.1.113883.6.238","code":"2076-8","display":"Native Hawaiian or Other Pacific Islander","userSelected":true}},{"url":"text","valueString":"Native Hawaiian or Other Pacific Islander"}]},{"url":"http://hl7.org/fhir/us/core/StructureDefinition/us-core-ethnicity","extension":[{"url":"ombCategory","valueCoding":{"system":"urn:oid:2.16.840.1.113883.6.238","code":"2186-5","display":"Not Hispanic or Latino","userSelected":true}},{"url":"text","valueString":"Not Hispanic or Latino"}]}],"identifier":[{"type":{"coding":[{"system":"http://terminology.hl7.org/CodeSystem/v2-0203","code":"MR"}]},"system":"https://bonnie-fhir.healthit.gov/","value":"6495b0a7e06f07b7e1707809"}],"name":[{"family":"IPPass","given":["EncOn240DayEdgeofMP"]}],"gender":"male","birthDate":"1986-05-25"},"request":{"method":"PUT","url":"Patient/67fe9319-a486-463e-9e0f-346b17628e3c"}},{"fullUrl":"https://madie.cms.gov/Condition/hiv-780a","resource":{"resourceType":"Condition","id":"8499abf7-a96a-4b6a-89a7-9e29ded32b18","meta":{"profile":["http://hl7.org/fhir/us/qicore/StructureDefinition/qicore-condition"]},"clinicalStatus":{"coding":[{"system":"http://terminology.hl7.org/CodeSystem/condition-clinical","code":"active","display":"active","userSelected":true}]},"category":[{"coding":[{"system":"http://terminology.hl7.org/CodeSystem/condition-category","code":"problem-list-item","display":"Problem List Item"}]}],"code":{"coding":[{"system":"http://hl7.org/fhir/sid/icd-9-cm","version":"2013","code":"042","display":"Human immunodeficiency virus [HIV] disease","userSelected":true},{"system":"http://snomed.info/sct","code":"165816005","userSelected":true}]},"subject":{"reference":"Patient/67fe9319-a486-463e-9e0f-346b17628e3c"},"onsetDateTime":"2019-12-02T12:00:00.000+00:00","recordedDate":"2019-12-02T12:00:00.000+00:00"},"request":{"method":"PUT","url":"Condition/8499abf7-a96a-4b6a-89a7-9e29ded32b18"}},{"fullUrl":"https://madie.cms.gov/Encounter/preventive-care-services-initial-office-visit-18-and-up-780b","resource":{"resourceType":"Encounter","id":"5778891c-6d39-4f12-8d5d-42946541d180","meta":{"profile":["http://hl7.org/fhir/us/qicore/StructureDefinition/qicore-encounter"]},"status":"finished","class":{"system":"http://terminology.hl7.org/CodeSystem/v3-ActCode","code":"AMB","display":"ambulatory"},"type":[{"coding":[{"system":"http://www.ama-assn.org/go/cpt","code":"99386","userSelected":true}]}],"subject":{"reference":"Patient/67fe9319-a486-463e-9e0f-346b17628e3c"},"period":{"start":"2025-08-29T15:02:00.000+00:00","end":"2025-08-29T15:55:00.000+00:00"}},"request":{"method":"PUT","url":"Encounter/5778891c-6d39-4f12-8d5d-42946541d180"}},{"fullUrl":"https://madie.cms.gov/Coverage/1","resource":{"resourceType":"Coverage","id":"f370baf1-328c-414a-91b1-099c5f0e1a1a","meta":{"profile":["http://hl7.org/fhir/us/qicore/StructureDefinition/qicore-coverage"]},"status":"active","beneficiary":{"reference":"Patient/67fe9319-a486-463e-9e0f-346b17628e3c"},"payor":[{"reference":"Organization/3778262e-e084-4bb5-9a47-1a144735f786"}]},"request":{"method":"PUT","url":"Coverage/f370baf1-328c-414a-91b1-099c5f0e1a1a"}},{"fullUrl":"https://madie.cms.gov/Organization/123456","resource":{"resourceType":"Organization","id":"3778262e-e084-4bb5-9a47-1a144735f786","meta":{"profile":["http://hl7.org/fhir/us/qicore/StructureDefinition/qicore-organization"]},"identifier":[{"use":"temp","system":"urn:oid:2.16.840.1.113883.4.4","value":"21-3259825"}],"active":true,"type":[{"coding":[{"system":"http://terminology.hl7.org/CodeSystem/organization-type","code":"pay","display":"Payer"}]}],"name":"Blue Cross Blue Shield of Texas","telecom":[{"system":"phone","value":"(+1) 972-766-6900"}],"address":[{"use":"billing","type":"postal","line":["P.O. Box 660044"],"city":"Dallas","state":"TX","postalCode":"75266-0044","country":"USA"}]},"request":{"method":"PUT","url":"Organization/3778262e-e084-4bb5-9a47-1a144735f786"}},{"fullUrl":"https://madie.cms.gov/Practitioner/practitioner-123456","resource":{"resourceType":"Practitioner","id":"d44cb023-e2fd-43e4-9e0f-0aa8f1f45052","meta":{"profile":["http://hl7.org/fhir/us/qicore/StructureDefinition/qicore-practitioner"]},"identifier":[{"system":"http://hl7.org/fhir/sid/us-npi","value":"123456"}],"name":[{"family":"Evil","prefix":["Dr"]}]},"request":{"method":"PUT","url":"Practitioner/d44cb023-e2fd-43e4-9e0f-0aa8f1f45052"}},{"fullUrl":"https://madie.cms.gov/MeasureReport/b931960d-0cc9-412c-91be-de17efe34d6a","resource":{"resourceType":"MeasureReport","id":"b931960d-0cc9-412c-91be-de17efe34d6a","meta":{"profile":["http://hl7.org/fhir/us/cqfmeasures/StructureDefinition/test-case-cqfm"]},"contained":[{"resourceType":"Parameters","id":"db6eabf7-8797-451d-8d44-110b017f14c6-parameters","parameter":[{"name":"subject","valueString":"67fe9319-a486-463e-9e0f-346b17628e3c"}]}],"extension":[{"url":"http://hl7.org/fhir/us/cqfmeasures/StructureDefinition/cqfm-inputParameters","valueReference":{"reference":"#db6eabf7-8797-451d-8d44-110b017f14c6-parameters"}},{"url":"http://hl7.org/fhir/us/cqfmeasures/StructureDefinition/cqfm-testCaseDescription","valueMarkdown":"Patient with a diagnosis of HIV years before start of the MP and a qualifying encounter on inside 240 day edge of the MP "}],"modifierExtension":[{"url":"http://hl7.org/fhir/us/cqfmeasures/StructureDefinition/cqfm-isTestCase","valueBoolean":true}],"status":"complete","type":"individual","measure":"https://madie.cms.gov/Measure/HIVViralSuppressionFHIR","period":{"start":"2025-01-01","end":"2025-12-31"},"group":[{"population":[{"code":{"coding":[{"system":"http://terminology.hl7.org/CodeSystem/measure-population","code":"initial-population","display":"Initial Population"}]},"count":1},{"code":{"coding":[{"system":"http://terminology.hl7.org/CodeSystem/measure-population","code":"denominator","display":"Denominator"}]},"count":1},{"code":{"coding":[{"system":"http://terminology.hl7.org/CodeSystem/measure-population","code":"numerator","display":"Numerator"}]},"count":0}]}]},"request":{"method":"PUT","url":"MeasureReport/b931960d-0cc9-412c-91be-de17efe34d6a"}}]}