{"resourceType":"Bundle","id":"tests-0dba5c80-03d8-40cd-ab24-786910e61265-bundle","type":"transaction","entry":[{"fullUrl":"https://madie.cms.gov/Patient/0dba5c80-03d8-40cd-ab24-786910e61265","resource":{"resourceType":"Patient","id":"0dba5c80-03d8-40cd-ab24-786910e61265","meta":{"profile":["http://hl7.org/fhir/us/qicore/StructureDefinition/qicore-patient"]},"extension":[{"url":"http://hl7.org/fhir/us/core/StructureDefinition/us-core-race","extension":[{"url":"ombCategory","valueCoding":{"system":"urn:oid:2.16.840.1.113883.6.238","code":"2076-8","display":"Native Hawaiian or Other Pacific Islander","userSelected":true}},{"url":"text","valueString":"Native Hawaiian or Other Pacific Islander"}]},{"url":"http://hl7.org/fhir/us/core/StructureDefinition/us-core-ethnicity","extension":[{"url":"ombCategory","valueCoding":{"system":"urn:oid:2.16.840.1.113883.6.238","code":"2186-5","display":"Not Hispanic or Latino","userSelected":true}},{"url":"text","valueString":"Not Hispanic or Latino"}]}],"identifier":[{"type":{"coding":[{"system":"http://terminology.hl7.org/CodeSystem/v2-0203","code":"MR"}]},"system":"https://bonnie-fhir.healthit.gov/","value":"64999b5ecea95c34d9e5777c"}],"name":[{"family":"NumPass","given":["2TestsduringMPBothResultsUnder"]}],"gender":"female","birthDate":"1986-05-25"},"request":{"method":"PUT","url":"Patient/0dba5c80-03d8-40cd-ab24-786910e61265"}},{"fullUrl":"https://madie.cms.gov/Encounter/preventive-care-services-initial-office-visit-0-to-17-777d","resource":{"resourceType":"Encounter","id":"3dadcdb2-b32f-4b11-b7d8-c58e08ce814d","meta":{"profile":["http://hl7.org/fhir/us/qicore/StructureDefinition/qicore-encounter"]},"status":"finished","class":{"system":"http://terminology.hl7.org/CodeSystem/v3-ActCode","code":"AMB","display":"ambulatory"},"type":[{"coding":[{"system":"http://www.ama-assn.org/go/cpt","version":"2023","code":"99381","display":"Initial comprehensive preventive medicine evaluation and management of an individual including an age and gender appropriate history, examination, counseling/anticipatory guidance/risk factor reduction interventions, and the ordering of laboratory/diagnostic procedures, new patient; infant (age younger than 1 year)","userSelected":true}]}],"subject":{"reference":"Patient/0dba5c80-03d8-40cd-ab24-786910e61265"},"period":{"start":"2025-03-07T10:00:00.000+00:00","end":"2025-03-07T10:30:00.000+00:00"}},"request":{"method":"PUT","url":"Encounter/3dadcdb2-b32f-4b11-b7d8-c58e08ce814d"}},{"fullUrl":"https://madie.cms.gov/Condition/hiv-777e","resource":{"resourceType":"Condition","id":"344bb08a-57be-4aaa-bbe2-470503d35d89","meta":{"profile":["http://hl7.org/fhir/us/qicore/StructureDefinition/qicore-condition"]},"clinicalStatus":{"coding":[{"system":"http://terminology.hl7.org/CodeSystem/condition-clinical","code":"active","display":"active","userSelected":true}]},"category":[{"coding":[{"system":"http://terminology.hl7.org/CodeSystem/condition-category","code":"problem-list-item","display":"Problem List Item"}]}],"code":{"coding":[{"system":"http://hl7.org/fhir/sid/icd-9-cm","version":"2013","code":"042","display":"Human immunodeficiency virus [HIV] disease","userSelected":true},{"system":"http://snomed.info/sct","code":"165816005","userSelected":true}]},"subject":{"reference":"Patient/0dba5c80-03d8-40cd-ab24-786910e61265"},"onsetDateTime":"2019-12-02T12:00:00.000+00:00","recordedDate":"2019-12-02T12:00:00.000+00:00"},"request":{"method":"PUT","url":"Condition/344bb08a-57be-4aaa-bbe2-470503d35d89"}},{"fullUrl":"https://madie.cms.gov/Observation/hiv-viral-load-777f","resource":{"resourceType":"Observation","id":"d18267f6-9e76-4348-a191-b083fde14e15","meta":{"profile":["http://hl7.org/fhir/us/qicore/StructureDefinition/qicore-observation"]},"status":"final","category":[{"coding":[{"system":"http://terminology.hl7.org/CodeSystem/observation-category"}]}],"code":{"coding":[{"system":"http://loinc.org","version":"2.73","code":"10351-5","display":"HIV 1 RNA [Units/volume] (viral load) in Serum or Plasma by Probe with amplification","userSelected":true}]},"subject":{"reference":"Patient/0dba5c80-03d8-40cd-ab24-786910e61265"},"effectiveDateTime":"2025-03-07T08:00:00.000+00:00","issued":"2025-03-07T08:00:00.000+00:00","valueQuantity":{"value":145,"unit":"{copies}/mL"}},"request":{"method":"PUT","url":"Observation/d18267f6-9e76-4348-a191-b083fde14e15"}},{"fullUrl":"https://madie.cms.gov/Observation/hiv-viral-load-7780","resource":{"resourceType":"Observation","id":"171c6b85-4b5f-42b6-b776-85782b9b37ce","meta":{"profile":["http://hl7.org/fhir/us/qicore/StructureDefinition/qicore-observation"]},"status":"final","category":[{"coding":[{"system":"http://terminology.hl7.org/CodeSystem/observation-category"}]}],"code":{"coding":[{"system":"http://loinc.org","version":"2.73","code":"10351-5","display":"HIV 1 RNA [Units/volume] (viral load) in Serum or Plasma by Probe with amplification","userSelected":true}]},"subject":{"reference":"Patient/0dba5c80-03d8-40cd-ab24-786910e61265"},"effectiveDateTime":"2025-12-31T08:02:00.000+00:00","issued":"2025-12-31T08:02:00.000+00:00","valueQuantity":{"value":160,"unit":"{copies}/mL"}},"request":{"method":"PUT","url":"Observation/171c6b85-4b5f-42b6-b776-85782b9b37ce"}},{"fullUrl":"https://madie.cms.gov/Coverage/1","resource":{"resourceType":"Coverage","id":"aeed38a6-5e8b-4bb4-afbe-45a646e45b6e","meta":{"profile":["http://hl7.org/fhir/us/qicore/StructureDefinition/qicore-coverage"]},"status":"active","beneficiary":{"reference":"Patient/0dba5c80-03d8-40cd-ab24-786910e61265"},"payor":[{"reference":"Organization/5224cb12-ed64-4d6d-ab28-40a64f0800f1"}]},"request":{"method":"PUT","url":"Coverage/aeed38a6-5e8b-4bb4-afbe-45a646e45b6e"}},{"fullUrl":"https://madie.cms.gov/Organization/123456","resource":{"resourceType":"Organization","id":"5224cb12-ed64-4d6d-ab28-40a64f0800f1","meta":{"profile":["http://hl7.org/fhir/us/qicore/StructureDefinition/qicore-organization"]},"identifier":[{"use":"temp","system":"urn:oid:2.16.840.1.113883.4.4","value":"21-3259825"}],"active":true,"type":[{"coding":[{"system":"http://terminology.hl7.org/CodeSystem/organization-type","code":"pay","display":"Payer"}]}],"name":"Blue Cross Blue Shield of Texas","telecom":[{"system":"phone","value":"(+1) 972-766-6900"}],"address":[{"use":"billing","type":"postal","line":["P.O. Box 660044"],"city":"Dallas","state":"TX","postalCode":"75266-0044","country":"USA"}]},"request":{"method":"PUT","url":"Organization/5224cb12-ed64-4d6d-ab28-40a64f0800f1"}},{"fullUrl":"https://madie.cms.gov/Practitioner/practitioner-123456","resource":{"resourceType":"Practitioner","id":"d4f38fb6-1ef8-419c-9e1a-af843eefcb4f","meta":{"profile":["http://hl7.org/fhir/us/qicore/StructureDefinition/qicore-practitioner"]},"identifier":[{"system":"http://hl7.org/fhir/sid/us-npi","value":"123456"}],"name":[{"family":"Evil","prefix":["Dr"]}]},"request":{"method":"PUT","url":"Practitioner/d4f38fb6-1ef8-419c-9e1a-af843eefcb4f"}},{"fullUrl":"https://madie.cms.gov/MeasureReport/04976403-9b78-4c23-9e69-223bad0c2f79","resource":{"resourceType":"MeasureReport","id":"04976403-9b78-4c23-9e69-223bad0c2f79","meta":{"profile":["http://hl7.org/fhir/us/cqfmeasures/StructureDefinition/test-case-cqfm"]},"contained":[{"resourceType":"Parameters","id":"9a075fc0-a542-427e-9947-e73f08de15a4-parameters","parameter":[{"name":"subject","valueString":"0dba5c80-03d8-40cd-ab24-786910e61265"}]}],"extension":[{"url":"http://hl7.org/fhir/us/cqfmeasures/StructureDefinition/cqfm-inputParameters","valueReference":{"reference":"#9a075fc0-a542-427e-9947-e73f08de15a4-parameters"}},{"url":"http://hl7.org/fhir/us/cqfmeasures/StructureDefinition/cqfm-testCaseDescription","valueMarkdown":"Patient with a diagnosis of HIV years before start of the MP and a qualifying encounter during the MP with 2 tests during the MP, both with results under"}],"modifierExtension":[{"url":"http://hl7.org/fhir/us/cqfmeasures/StructureDefinition/cqfm-isTestCase","valueBoolean":true}],"status":"complete","type":"individual","measure":"https://madie.cms.gov/Measure/HIVViralSuppressionFHIR","period":{"start":"2025-01-01","end":"2025-12-31"},"group":[{"population":[{"code":{"coding":[{"system":"http://terminology.hl7.org/CodeSystem/measure-population","code":"initial-population","display":"Initial Population"}]},"count":1},{"code":{"coding":[{"system":"http://terminology.hl7.org/CodeSystem/measure-population","code":"denominator","display":"Denominator"}]},"count":1},{"code":{"coding":[{"system":"http://terminology.hl7.org/CodeSystem/measure-population","code":"numerator","display":"Numerator"}]},"count":1}]}]},"request":{"method":"PUT","url":"MeasureReport/04976403-9b78-4c23-9e69-223bad0c2f79"}}]}