{"resourceType":"Bundle","id":"tests-14605ae3-a67b-423b-942e-06a54531bc70-bundle","type":"transaction","entry":[{"fullUrl":"https://madie.cms.gov/Patient/14605ae3-a67b-423b-942e-06a54531bc70","resource":{"resourceType":"Patient","id":"14605ae3-a67b-423b-942e-06a54531bc70","meta":{"profile":["http://hl7.org/fhir/us/qicore/StructureDefinition/qicore-patient"]},"extension":[{"url":"http://hl7.org/fhir/us/core/StructureDefinition/us-core-race","extension":[{"url":"ombCategory","valueCoding":{"system":"urn:oid:2.16.840.1.113883.6.238","code":"2106-3","display":"White"}},{"url":"text","valueString":"White"}]},{"url":"http://hl7.org/fhir/us/core/StructureDefinition/us-core-ethnicity","extension":[{"url":"ombCategory","valueCoding":{"system":"urn:oid:2.16.840.1.113883.6.238","code":"2186-5","display":"Not Hispanic or Latino","userSelected":true}},{"url":"text","valueString":"Not Hispanic or Latino"}]}],"identifier":[{"type":{"coding":[{"system":"http://terminology.hl7.org/CodeSystem/v2-0203","code":"MR"}]},"system":"https://bonnie-fhir.healthit.gov/","value":"649333494d994e7239aa25e7"}],"name":[{"family":"IPFail","given":["DxwithNoEnc"]}],"gender":"female","birthDate":"1988-08-08"},"request":{"method":"PUT","url":"Patient/14605ae3-a67b-423b-942e-06a54531bc70"}},{"fullUrl":"https://madie.cms.gov/Condition/hiv-25e8","resource":{"resourceType":"Condition","id":"0d6a1e7a-2ee9-440a-a0d5-cbfe364b1cfe","meta":{"profile":["http://hl7.org/fhir/us/qicore/StructureDefinition/qicore-condition"]},"clinicalStatus":{"coding":[{"system":"http://terminology.hl7.org/CodeSystem/condition-clinical","code":"active","display":"active","userSelected":true}]},"category":[{"coding":[{"system":"http://terminology.hl7.org/CodeSystem/condition-category","code":"problem-list-item","display":"Problem List Item"}]}],"code":{"coding":[{"system":"http://snomed.info/sct","code":"111880001","userSelected":true}]},"subject":{"reference":"Patient/14605ae3-a67b-423b-942e-06a54531bc70"},"onsetDateTime":"2000-03-07T08:00:00.000+00:00","recordedDate":"2000-03-07T08:00:00.000+00:00"},"request":{"method":"PUT","url":"Condition/0d6a1e7a-2ee9-440a-a0d5-cbfe364b1cfe"}},{"fullUrl":"https://madie.cms.gov/Coverage/1","resource":{"resourceType":"Coverage","id":"a3e3a617-024b-4435-82cd-e8c3b4518718","meta":{"profile":["http://hl7.org/fhir/us/qicore/StructureDefinition/qicore-coverage"]},"status":"active","beneficiary":{"reference":"Patient/14605ae3-a67b-423b-942e-06a54531bc70"},"payor":[{"reference":"Organization/ec8cac12-7dd8-4c6e-8c44-d6c645085c80"}]},"request":{"method":"PUT","url":"Coverage/a3e3a617-024b-4435-82cd-e8c3b4518718"}},{"fullUrl":"https://madie.cms.gov/Organization/123456","resource":{"resourceType":"Organization","id":"ec8cac12-7dd8-4c6e-8c44-d6c645085c80","meta":{"profile":["http://hl7.org/fhir/us/qicore/StructureDefinition/qicore-organization"]},"identifier":[{"use":"temp","system":"urn:oid:2.16.840.1.113883.4.4","value":"21-3259825"}],"active":true,"type":[{"coding":[{"system":"http://terminology.hl7.org/CodeSystem/organization-type","code":"pay","display":"Payer"}]}],"name":"Blue Cross Blue Shield of Texas","telecom":[{"system":"phone","value":"(+1) 972-766-6900"}],"address":[{"use":"billing","type":"postal","line":["P.O. Box 660044"],"city":"Dallas","state":"TX","postalCode":"75266-0044","country":"USA"}]},"request":{"method":"PUT","url":"Organization/ec8cac12-7dd8-4c6e-8c44-d6c645085c80"}},{"fullUrl":"https://madie.cms.gov/Practitioner/practitioner-123456","resource":{"resourceType":"Practitioner","id":"f531f3a1-a31b-4e3b-932b-23d57e5e8672","meta":{"profile":["http://hl7.org/fhir/us/qicore/StructureDefinition/qicore-practitioner"]},"identifier":[{"system":"http://hl7.org/fhir/sid/us-npi","value":"123456"}],"name":[{"family":"Evil","prefix":["Dr"]}]},"request":{"method":"PUT","url":"Practitioner/f531f3a1-a31b-4e3b-932b-23d57e5e8672"}},{"fullUrl":"https://madie.cms.gov/MeasureReport/1efc10b0-7469-4f32-9812-aaa79904e81a","resource":{"resourceType":"MeasureReport","id":"1efc10b0-7469-4f32-9812-aaa79904e81a","meta":{"profile":["http://hl7.org/fhir/us/cqfmeasures/StructureDefinition/test-case-cqfm"]},"contained":[{"resourceType":"Parameters","id":"18faf530-f256-4d4b-b7ab-cdb2647a63ef-parameters","parameter":[{"name":"subject","valueString":"14605ae3-a67b-423b-942e-06a54531bc70"}]}],"extension":[{"url":"http://hl7.org/fhir/us/cqfmeasures/StructureDefinition/cqfm-inputParameters","valueReference":{"reference":"#18faf530-f256-4d4b-b7ab-cdb2647a63ef-parameters"}},{"url":"http://hl7.org/fhir/us/cqfmeasures/StructureDefinition/cqfm-testCaseDescription","valueMarkdown":"Patient with HIV diagnosis before MP with no encounter"}],"modifierExtension":[{"url":"http://hl7.org/fhir/us/cqfmeasures/StructureDefinition/cqfm-isTestCase","valueBoolean":true}],"status":"complete","type":"individual","measure":"https://madie.cms.gov/Measure/HIVViralSuppressionFHIR","period":{"start":"2025-01-01","end":"2025-12-31"},"group":[{"population":[{"code":{"coding":[{"system":"http://terminology.hl7.org/CodeSystem/measure-population","code":"initial-population","display":"Initial Population"}]},"count":0},{"code":{"coding":[{"system":"http://terminology.hl7.org/CodeSystem/measure-population","code":"denominator","display":"Denominator"}]},"count":0},{"code":{"coding":[{"system":"http://terminology.hl7.org/CodeSystem/measure-population","code":"numerator","display":"Numerator"}]},"count":0}]}]},"request":{"method":"PUT","url":"MeasureReport/1efc10b0-7469-4f32-9812-aaa79904e81a"}}]}