{"resourceType":"Bundle","id":"tests-763778d4-705a-4659-837a-914827625a39-bundle","type":"transaction","entry":[{"fullUrl":"https://madie.cms.gov/Patient/763778d4-705a-4659-837a-914827625a39","resource":{"resourceType":"Patient","id":"763778d4-705a-4659-837a-914827625a39","meta":{"profile":["http://hl7.org/fhir/us/qicore/StructureDefinition/qicore-patient"]},"extension":[{"url":"http://hl7.org/fhir/us/core/StructureDefinition/us-core-race","extension":[{"url":"ombCategory","valueCoding":{"system":"urn:oid:2.16.840.1.113883.6.238","code":"2076-8","display":"Native Hawaiian or Other Pacific Islander","userSelected":true}},{"url":"text","valueString":"Native Hawaiian or Other Pacific Islander"}]},{"url":"http://hl7.org/fhir/us/core/StructureDefinition/us-core-ethnicity","extension":[{"url":"ombCategory","valueCoding":{"system":"urn:oid:2.16.840.1.113883.6.238","code":"2186-5","display":"Not Hispanic or Latino","userSelected":true}},{"url":"text","valueString":"Not Hispanic or Latino"}]}],"identifier":[{"type":{"coding":[{"system":"http://terminology.hl7.org/CodeSystem/v2-0203","code":"MR"}]},"system":"https://bonnie-fhir.healthit.gov/","value":"649989bdcea95c34d9e57764"}],"name":[{"family":"NumFail","given":["TestOnJan1ofMPResult201"]}],"gender":"male","birthDate":"1986-05-25"},"request":{"method":"PUT","url":"Patient/763778d4-705a-4659-837a-914827625a39"}},{"fullUrl":"https://madie.cms.gov/Condition/hiv-7765","resource":{"resourceType":"Condition","id":"c3ca6363-8572-4cbf-aa20-b79575f887b8","meta":{"profile":["http://hl7.org/fhir/us/qicore/StructureDefinition/qicore-condition"]},"clinicalStatus":{"coding":[{"system":"http://terminology.hl7.org/CodeSystem/condition-clinical","code":"active","display":"active","userSelected":true}]},"category":[{"coding":[{"system":"http://terminology.hl7.org/CodeSystem/condition-category","code":"problem-list-item","display":"Problem List Item"}]}],"code":{"coding":[{"system":"http://hl7.org/fhir/sid/icd-9-cm","version":"2013","code":"042","display":"Human immunodeficiency virus [HIV] disease","userSelected":true},{"system":"http://snomed.info/sct","code":"165816005","userSelected":true}]},"subject":{"reference":"Patient/763778d4-705a-4659-837a-914827625a39"},"onsetDateTime":"2019-12-02T12:00:00.000+00:00","recordedDate":"2019-12-02T12:00:00.000+00:00"},"request":{"method":"PUT","url":"Condition/c3ca6363-8572-4cbf-aa20-b79575f887b8"}},{"fullUrl":"https://madie.cms.gov/Encounter/preventive-care-services-initial-office-visit-18-and-up-7766","resource":{"resourceType":"Encounter","id":"74b94ac5-2d19-4ea4-af26-cf5d658d3491","meta":{"profile":["http://hl7.org/fhir/us/qicore/StructureDefinition/qicore-encounter"]},"status":"finished","class":{"system":"http://terminology.hl7.org/CodeSystem/v3-ActCode","code":"AMB","display":"ambulatory"},"type":[{"coding":[{"system":"http://www.ama-assn.org/go/cpt","code":"99386","userSelected":true}]}],"subject":{"reference":"Patient/763778d4-705a-4659-837a-914827625a39"},"period":{"start":"2025-08-27T15:02:00.000+00:00","end":"2025-08-27T15:55:00.000+00:00"}},"request":{"method":"PUT","url":"Encounter/74b94ac5-2d19-4ea4-af26-cf5d658d3491"}},{"fullUrl":"https://madie.cms.gov/Observation/hiv-viral-load-7767","resource":{"resourceType":"Observation","id":"b2dc796c-293f-49a2-bc8e-b97473370cc1","meta":{"profile":["http://hl7.org/fhir/us/qicore/StructureDefinition/qicore-observation"]},"status":"final","category":[{"coding":[{"system":"http://terminology.hl7.org/CodeSystem/observation-category"}]}],"code":{"coding":[{"system":"http://loinc.org","version":"2.73","code":"10351-5","display":"HIV 1 RNA [Units/volume] (viral load) in Serum or Plasma by Probe with amplification","userSelected":true}]},"subject":{"reference":"Patient/763778d4-705a-4659-837a-914827625a39"},"effectiveDateTime":"2025-01-01T09:02:00.000+00:00","issued":"2025-01-01T09:02:00.000+00:00","valueQuantity":{"value":201,"unit":"{copies}/mL"}},"request":{"method":"PUT","url":"Observation/b2dc796c-293f-49a2-bc8e-b97473370cc1"}},{"fullUrl":"https://madie.cms.gov/Coverage/1","resource":{"resourceType":"Coverage","id":"755b96d3-2e09-48b8-9d31-a4e6183674e3","meta":{"profile":["http://hl7.org/fhir/us/qicore/StructureDefinition/qicore-coverage"]},"status":"active","beneficiary":{"reference":"Patient/763778d4-705a-4659-837a-914827625a39"},"payor":[{"reference":"Organization/9e9b3f13-a353-4173-b29b-947d6f1f2031"}]},"request":{"method":"PUT","url":"Coverage/755b96d3-2e09-48b8-9d31-a4e6183674e3"}},{"fullUrl":"https://madie.cms.gov/Organization/123456","resource":{"resourceType":"Organization","id":"9e9b3f13-a353-4173-b29b-947d6f1f2031","meta":{"profile":["http://hl7.org/fhir/us/qicore/StructureDefinition/qicore-organization"]},"identifier":[{"use":"temp","system":"urn:oid:2.16.840.1.113883.4.4","value":"21-3259825"}],"active":true,"type":[{"coding":[{"system":"http://terminology.hl7.org/CodeSystem/organization-type","code":"pay","display":"Payer"}]}],"name":"Blue Cross Blue Shield of Texas","telecom":[{"system":"phone","value":"(+1) 972-766-6900"}],"address":[{"use":"billing","type":"postal","line":["P.O. Box 660044"],"city":"Dallas","state":"TX","postalCode":"75266-0044","country":"USA"}]},"request":{"method":"PUT","url":"Organization/9e9b3f13-a353-4173-b29b-947d6f1f2031"}},{"fullUrl":"https://madie.cms.gov/Practitioner/practitioner-123456","resource":{"resourceType":"Practitioner","id":"de239f32-ae1f-402d-8a6a-1b104408b84a","meta":{"profile":["http://hl7.org/fhir/us/qicore/StructureDefinition/qicore-practitioner"]},"identifier":[{"system":"http://hl7.org/fhir/sid/us-npi","value":"123456"}],"name":[{"family":"Evil","prefix":["Dr"]}]},"request":{"method":"PUT","url":"Practitioner/de239f32-ae1f-402d-8a6a-1b104408b84a"}},{"fullUrl":"https://madie.cms.gov/MeasureReport/7de703f1-a351-4b67-81e1-b2987b35bc1c","resource":{"resourceType":"MeasureReport","id":"7de703f1-a351-4b67-81e1-b2987b35bc1c","meta":{"profile":["http://hl7.org/fhir/us/cqfmeasures/StructureDefinition/test-case-cqfm"]},"contained":[{"resourceType":"Parameters","id":"4b1110f8-676e-4ee8-a47a-c27aad14498d-parameters","parameter":[{"name":"subject","valueString":"763778d4-705a-4659-837a-914827625a39"}]}],"extension":[{"url":"http://hl7.org/fhir/us/cqfmeasures/StructureDefinition/cqfm-inputParameters","valueReference":{"reference":"#4b1110f8-676e-4ee8-a47a-c27aad14498d-parameters"}},{"url":"http://hl7.org/fhir/us/cqfmeasures/StructureDefinition/cqfm-testCaseDescription","valueMarkdown":"Patient with a diagnosis of HIV years before start of the MP and a qualifying encounter on inside 240 day edge of the MP AND a viral load test on Jan 1 of  the MP with a result of 201"}],"modifierExtension":[{"url":"http://hl7.org/fhir/us/cqfmeasures/StructureDefinition/cqfm-isTestCase","valueBoolean":true}],"status":"complete","type":"individual","measure":"https://madie.cms.gov/Measure/HIVViralSuppressionFHIR","period":{"start":"2025-01-01","end":"2025-12-31"},"group":[{"population":[{"code":{"coding":[{"system":"http://terminology.hl7.org/CodeSystem/measure-population","code":"initial-population","display":"Initial Population"}]},"count":1},{"code":{"coding":[{"system":"http://terminology.hl7.org/CodeSystem/measure-population","code":"denominator","display":"Denominator"}]},"count":1},{"code":{"coding":[{"system":"http://terminology.hl7.org/CodeSystem/measure-population","code":"numerator","display":"Numerator"}]},"count":0}]}]},"request":{"method":"PUT","url":"MeasureReport/7de703f1-a351-4b67-81e1-b2987b35bc1c"}}]}