{"resourceType":"Bundle","id":"tests-9df5bcfb-2893-42f4-b092-a7d49bc0276e-bundle","type":"transaction","entry":[{"fullUrl":"Patient/9df5bcfb-2893-42f4-b092-a7d49bc0276e","resource":{"resourceType":"Patient","id":"9df5bcfb-2893-42f4-b092-a7d49bc0276e","meta":{"profile":["http://hl7.org/fhir/us/qicore/StructureDefinition/qicore-patient"]},"extension":[{"url":"http://hl7.org/fhir/us/core/StructureDefinition/us-core-race","extension":[{"url":"ombCategory","valueCoding":{"system":"urn:oid:2.16.840.1.113883.6.238","code":"2076-8","display":"Native Hawaiian or Other Pacific Islander","userSelected":true}},{"url":"text","valueString":"Native Hawaiian or Other Pacific Islander"}]},{"url":"http://hl7.org/fhir/us/core/StructureDefinition/us-core-ethnicity","extension":[{"url":"ombCategory","valueCoding":{"system":"urn:oid:2.16.840.1.113883.6.238","code":"2186-5","display":"Not Hispanic or Latino","userSelected":true}},{"url":"text","valueString":"Not Hispanic or Latino"}]}],"identifier":[{"type":{"coding":[{"system":"http://terminology.hl7.org/CodeSystem/v2-0203","code":"MR"}]},"system":"https://bonnie-fhir.healthit.gov/","value":"6499d6901037008f66e1d7dc"}],"name":[{"family":"NumPass","given":["TestOnDec31DuringMPResultUnderRelevantdateTime"]}],"gender":"male","birthDate":"1986-05-25"},"request":{"method":"PUT","url":"Patient/9df5bcfb-2893-42f4-b092-a7d49bc0276e"}},{"fullUrl":"Condition/hiv-d7dd","resource":{"resourceType":"Condition","id":"hiv-d7dd","meta":{"profile":["http://hl7.org/fhir/us/qicore/StructureDefinition/qicore-condition"]},"clinicalStatus":{"coding":[{"system":"http://terminology.hl7.org/CodeSystem/condition-clinical","code":"active","display":"active","userSelected":true}]},"category":[{"coding":[{"system":"http://terminology.hl7.org/CodeSystem/condition-category","code":"problem-list-item","display":"Problem List Item"}]}],"code":{"coding":[{"system":"http://hl7.org/fhir/sid/icd-9-cm","version":"2013","code":"042","display":"Human immunodeficiency virus [HIV] disease","userSelected":true},{"system":"http://snomed.info/sct","code":"165816005","userSelected":true}]},"subject":{"reference":"Patient/9df5bcfb-2893-42f4-b092-a7d49bc0276e"},"onsetDateTime":"2019-12-02T12:00:00.000+00:00","recordedDate":"2019-12-02T12:00:00.000+00:00"},"request":{"method":"PUT","url":"Condition/hiv-d7dd"}},{"fullUrl":"Encounter/preventive-care-services-initial-office-visit-18-and-up-d7de","resource":{"resourceType":"Encounter","id":"preventive-care-services-initial-office-visit-18-and-up-d7de","meta":{"profile":["http://hl7.org/fhir/us/qicore/StructureDefinition/qicore-encounter"]},"status":"finished","class":{"system":"http://terminology.hl7.org/CodeSystem/v3-ActCode","code":"AMB","display":"ambulatory"},"type":[{"coding":[{"system":"http://www.ama-assn.org/go/cpt","code":"99386","userSelected":true}]}],"subject":{"reference":"Patient/9df5bcfb-2893-42f4-b092-a7d49bc0276e"},"period":{"start":"2025-08-26T15:02:00.000+00:00","end":"2025-08-26T15:55:00.000+00:00"}},"request":{"method":"PUT","url":"Encounter/preventive-care-services-initial-office-visit-18-and-up-d7de"}},{"fullUrl":"Observation/hiv-viral-load-d7df","resource":{"resourceType":"Observation","id":"hiv-viral-load-d7df","meta":{"profile":["http://hl7.org/fhir/us/qicore/StructureDefinition/qicore-observation"]},"status":"final","category":[{"coding":[{"system":"http://terminology.hl7.org/CodeSystem/observation-category"}]}],"code":{"coding":[{"system":"http://loinc.org","version":"2.73","code":"10351-5","display":"HIV 1 RNA [Units/volume] (viral load) in Serum or Plasma by Probe with amplification","userSelected":true}]},"subject":{"reference":"Patient/9df5bcfb-2893-42f4-b092-a7d49bc0276e"},"effectiveDateTime":"2025-12-31T08:02:00.000+00:00","issued":"2025-12-31T08:02:00.000+00:00","valueQuantity":{"value":198.0,"unit":"{copies}/mL"}},"request":{"method":"PUT","url":"Observation/hiv-viral-load-d7df"}},{"fullUrl":"Coverage/Coverage-1","resource":{"resourceType":"Coverage","id":"Coverage-1","meta":{"profile":["http://hl7.org/fhir/us/qicore/StructureDefinition/qicore-coverage"]},"status":"active","beneficiary":{"reference":"Patient/9df5bcfb-2893-42f4-b092-a7d49bc0276e"},"payor":[{"reference":"Organization/Org-123456"}]},"request":{"method":"PUT","url":"Coverage/Coverage-1"}},{"fullUrl":"Organization/Org-123456","resource":{"resourceType":"Organization","id":"Org-123456","meta":{"profile":["http://hl7.org/fhir/us/qicore/StructureDefinition/qicore-organization"]},"identifier":[{"use":"temp","system":"urn:oid:2.16.840.1.113883.4.4","value":"21-3259825"}],"active":true,"type":[{"coding":[{"system":"http://terminology.hl7.org/CodeSystem/organization-type","code":"pay","display":"Payer"}]}],"name":"Blue Cross Blue Shield of Texas","telecom":[{"system":"phone","value":"(+1) 972-766-6900"}],"address":[{"use":"billing","type":"postal","line":["P.O. Box 660044"],"city":"Dallas","state":"TX","postalCode":"75266-0044","country":"USA"}]},"request":{"method":"PUT","url":"Organization/Org-123456"}},{"fullUrl":"Practitioner/practitioner-123456","resource":{"resourceType":"Practitioner","id":"practitioner-123456","meta":{"profile":["http://hl7.org/fhir/us/qicore/StructureDefinition/qicore-practitioner"]},"identifier":[{"system":"http://hl7.org/fhir/sid/us-npi","value":"123456"}],"name":[{"family":"Evil","prefix":["Dr"]}]},"request":{"method":"PUT","url":"Practitioner/practitioner-123456"}},{"fullUrl":"MeasureReport/819ca12c-aa54-49df-9c1f-4d41309c01d7","resource":{"resourceType":"MeasureReport","id":"819ca12c-aa54-49df-9c1f-4d41309c01d7","meta":{"profile":["http://hl7.org/fhir/us/cqfmeasures/StructureDefinition/test-case-cqfm"]},"contained":[{"resourceType":"Parameters","id":"3f97bfa5-e7a2-46b8-8ce4-8618b0949eec-parameters","parameter":[{"name":"subject","valueString":"9df5bcfb-2893-42f4-b092-a7d49bc0276e"}]}],"extension":[{"url":"http://hl7.org/fhir/us/cqfmeasures/StructureDefinition/cqfm-inputParameters","valueReference":{"reference":"#3f97bfa5-e7a2-46b8-8ce4-8618b0949eec-parameters"}},{"url":"http://hl7.org/fhir/us/cqfmeasures/StructureDefinition/cqfm-testCaseDescription","valueMarkdown":"Patient with a diagnosis of HIV 5 years ago and a qualifying encounter on Aug 26 during the measurement period  AND a viral load test on 12/31 of the MP with a result under 200 - using relevant dateTime"}],"modifierExtension":[{"url":"http://hl7.org/fhir/us/cqfmeasures/StructureDefinition/cqfm-isTestCase","valueBoolean":true}],"status":"complete","type":"individual","measure":"Measure/HIVViralSuppressionFHIR","period":{"start":"2025-01-01","end":"2025-12-31"},"group":[{"population":[{"code":{"coding":[{"system":"http://terminology.hl7.org/CodeSystem/measure-population","code":"initial-population","display":"Initial Population"}]},"count":1},{"code":{"coding":[{"system":"http://terminology.hl7.org/CodeSystem/measure-population","code":"denominator","display":"Denominator"}]},"count":1},{"code":{"coding":[{"system":"http://terminology.hl7.org/CodeSystem/measure-population","code":"numerator","display":"Numerator"}]},"count":1}]}],"evaluatedResource":[{"reference":"Patient/9df5bcfb-2893-42f4-b092-a7d49bc0276e"},{"reference":"Condition/hiv-d7dd"},{"reference":"Encounter/preventive-care-services-initial-office-visit-18-and-up-d7de"},{"reference":"Observation/hiv-viral-load-d7df"},{"reference":"Coverage/Coverage-1"},{"reference":"Organization/Org-123456"},{"reference":"Practitioner/practitioner-123456"}]},"request":{"method":"PUT","url":"MeasureReport/819ca12c-aa54-49df-9c1f-4d41309c01d7"}}]}