{"resourceType":"Bundle","id":"tests-e03fd6c9-9b4c-4814-9301-f22a28e4b1be-bundle","type":"transaction","entry":[{"fullUrl":"https://madie.cms.gov/Patient/e03fd6c9-9b4c-4814-9301-f22a28e4b1be","resource":{"resourceType":"Patient","id":"e03fd6c9-9b4c-4814-9301-f22a28e4b1be","meta":{"profile":["http://hl7.org/fhir/us/qicore/StructureDefinition/qicore-patient"]},"extension":[{"url":"http://hl7.org/fhir/us/core/StructureDefinition/us-core-race","extension":[{"url":"ombCategory","valueCoding":{"system":"urn:oid:2.16.840.1.113883.6.238","code":"2076-8","display":"Native Hawaiian or Other Pacific Islander","userSelected":true}},{"url":"text","valueString":"Native Hawaiian or Other Pacific Islander"}]},{"url":"http://hl7.org/fhir/us/core/StructureDefinition/us-core-ethnicity","extension":[{"url":"ombCategory","valueCoding":{"system":"urn:oid:2.16.840.1.113883.6.238","code":"2186-5","display":"Not Hispanic or Latino","userSelected":true}},{"url":"text","valueString":"Not Hispanic or Latino"}]}],"identifier":[{"type":{"coding":[{"system":"http://terminology.hl7.org/CodeSystem/v2-0203","code":"MR"}]},"system":"https://bonnie-fhir.healthit.gov/","value":"6495b468e06f07b7e1707815"}],"name":[{"family":"IPPass","given":["HIVDxinyearsbeforeMP"]}],"gender":"female","birthDate":"1986-05-25"},"request":{"method":"PUT","url":"Patient/e03fd6c9-9b4c-4814-9301-f22a28e4b1be"}},{"fullUrl":"https://madie.cms.gov/Condition/hiv-7816","resource":{"resourceType":"Condition","id":"1a2e5b13-422d-4cd2-9c88-3128912292b6","meta":{"profile":["http://hl7.org/fhir/us/qicore/StructureDefinition/qicore-condition"]},"clinicalStatus":{"coding":[{"system":"http://terminology.hl7.org/CodeSystem/condition-clinical","code":"active","display":"active","userSelected":true}]},"category":[{"coding":[{"system":"http://terminology.hl7.org/CodeSystem/condition-category","code":"problem-list-item","display":"Problem List Item"}]}],"code":{"coding":[{"system":"http://hl7.org/fhir/sid/icd-9-cm","version":"2013","code":"042","display":"Human immunodeficiency virus [HIV] disease","userSelected":true},{"system":"http://snomed.info/sct","code":"165816005","userSelected":true}]},"subject":{"reference":"Patient/e03fd6c9-9b4c-4814-9301-f22a28e4b1be"},"onsetDateTime":"2023-12-02T13:00:00.000+00:00","recordedDate":"2023-12-02T13:00:00.000+00:00"},"request":{"method":"PUT","url":"Condition/1a2e5b13-422d-4cd2-9c88-3128912292b6"}},{"fullUrl":"https://madie.cms.gov/Encounter/outpatient-consultation-7817","resource":{"resourceType":"Encounter","id":"dbe25efc-3ea5-4f7b-9e5f-05b092b8fe7b","meta":{"profile":["http://hl7.org/fhir/us/qicore/StructureDefinition/qicore-encounter"]},"status":"finished","class":{"system":"http://terminology.hl7.org/CodeSystem/v3-ActCode","code":"AMB","display":"ambulatory"},"type":[{"coding":[{"system":"http://snomed.info/sct","version":"2022-09","code":"281036007","display":"Follow-up consultation (procedure)","userSelected":true}]}],"subject":{"reference":"Patient/e03fd6c9-9b4c-4814-9301-f22a28e4b1be"},"period":{"start":"2025-03-07T10:00:00.000+00:00","end":"2025-03-07T10:45:00.000+00:00"}},"request":{"method":"PUT","url":"Encounter/dbe25efc-3ea5-4f7b-9e5f-05b092b8fe7b"}},{"fullUrl":"https://madie.cms.gov/Coverage/1","resource":{"resourceType":"Coverage","id":"a472448f-0b2d-4da5-8475-ddc676740474","meta":{"profile":["http://hl7.org/fhir/us/qicore/StructureDefinition/qicore-coverage"]},"status":"active","beneficiary":{"reference":"Patient/e03fd6c9-9b4c-4814-9301-f22a28e4b1be"},"payor":[{"reference":"Organization/4da248b0-6e59-49b7-b80e-338aa21d299f"}]},"request":{"method":"PUT","url":"Coverage/a472448f-0b2d-4da5-8475-ddc676740474"}},{"fullUrl":"https://madie.cms.gov/Organization/123456","resource":{"resourceType":"Organization","id":"4da248b0-6e59-49b7-b80e-338aa21d299f","meta":{"profile":["http://hl7.org/fhir/us/qicore/StructureDefinition/qicore-organization"]},"identifier":[{"use":"temp","system":"urn:oid:2.16.840.1.113883.4.4","value":"21-3259825"}],"active":true,"type":[{"coding":[{"system":"http://terminology.hl7.org/CodeSystem/organization-type","code":"pay","display":"Payer"}]}],"name":"Blue Cross Blue Shield of Texas","telecom":[{"system":"phone","value":"(+1) 972-766-6900"}],"address":[{"use":"billing","type":"postal","line":["P.O. Box 660044"],"city":"Dallas","state":"TX","postalCode":"75266-0044","country":"USA"}]},"request":{"method":"PUT","url":"Organization/4da248b0-6e59-49b7-b80e-338aa21d299f"}},{"fullUrl":"https://madie.cms.gov/Practitioner/practitioner-123456","resource":{"resourceType":"Practitioner","id":"116e8f1a-fef1-4686-b2f5-a0e60f4e0bee","meta":{"profile":["http://hl7.org/fhir/us/qicore/StructureDefinition/qicore-practitioner"]},"identifier":[{"system":"http://hl7.org/fhir/sid/us-npi","value":"123456"}],"name":[{"family":"Evil","prefix":["Dr"]}]},"request":{"method":"PUT","url":"Practitioner/116e8f1a-fef1-4686-b2f5-a0e60f4e0bee"}},{"fullUrl":"https://madie.cms.gov/MeasureReport/4e6b8b59-bbed-4547-8170-9b8ebd525dc1","resource":{"resourceType":"MeasureReport","id":"4e6b8b59-bbed-4547-8170-9b8ebd525dc1","meta":{"profile":["http://hl7.org/fhir/us/cqfmeasures/StructureDefinition/test-case-cqfm"]},"contained":[{"resourceType":"Parameters","id":"27395712-8c5c-473f-8c38-96d792514c29-parameters","parameter":[{"name":"subject","valueString":"e03fd6c9-9b4c-4814-9301-f22a28e4b1be"}]}],"extension":[{"url":"http://hl7.org/fhir/us/cqfmeasures/StructureDefinition/cqfm-inputParameters","valueReference":{"reference":"#27395712-8c5c-473f-8c38-96d792514c29-parameters"}},{"url":"http://hl7.org/fhir/us/cqfmeasures/StructureDefinition/cqfm-testCaseDescription","valueMarkdown":"Patient with a diagnosis of HIV years prior to the MP and a qualifying encounter during the measurement period "}],"modifierExtension":[{"url":"http://hl7.org/fhir/us/cqfmeasures/StructureDefinition/cqfm-isTestCase","valueBoolean":true}],"status":"complete","type":"individual","measure":"https://madie.cms.gov/Measure/HIVViralSuppressionFHIR","period":{"start":"2025-01-01","end":"2025-12-31"},"group":[{"population":[{"code":{"coding":[{"system":"http://terminology.hl7.org/CodeSystem/measure-population","code":"initial-population","display":"Initial Population"}]},"count":1},{"code":{"coding":[{"system":"http://terminology.hl7.org/CodeSystem/measure-population","code":"denominator","display":"Denominator"}]},"count":1},{"code":{"coding":[{"system":"http://terminology.hl7.org/CodeSystem/measure-population","code":"numerator","display":"Numerator"}]},"count":0}]}]},"request":{"method":"PUT","url":"MeasureReport/4e6b8b59-bbed-4547-8170-9b8ebd525dc1"}}]}