{"resourceType":"Bundle","id":"tests-061ab97e-4e5d-4c1d-91dc-21e34b415b5b-bundle","type":"transaction","entry":[{"fullUrl":"https://madie.cms.gov/Patient/061ab97e-4e5d-4c1d-91dc-21e34b415b5b","resource":{"resourceType":"Patient","id":"061ab97e-4e5d-4c1d-91dc-21e34b415b5b","meta":{"profile":["http://hl7.org/fhir/us/qicore/StructureDefinition/qicore-patient"]},"extension":[{"url":"http://hl7.org/fhir/us/core/StructureDefinition/us-core-race","extension":[{"url":"ombCategory","valueCoding":{"system":"urn:oid:2.16.840.1.113883.6.238","code":"2106-3","display":"White","userSelected":true}},{"url":"text","valueString":"White"}]},{"url":"http://hl7.org/fhir/us/core/StructureDefinition/us-core-ethnicity","extension":[{"url":"ombCategory","valueCoding":{"system":"urn:oid:2.16.840.1.113883.6.238","code":"2135-2","display":"Hispanic or Latino","userSelected":true}},{"url":"text","valueString":"Hispanic or Latino"}]}],"identifier":[{"type":{"coding":[{"system":"http://terminology.hl7.org/CodeSystem/v2-0203","code":"MR"}]},"system":"https://bonnie-fhir.healthit.gov/","value":"64944c508572d953d016cf7b"}],"name":[{"family":"IPFail","given":["HIVDxonApr1ofMP"]}],"gender":"unknown","birthDate":"1990-02-09"},"request":{"method":"PUT","url":"Patient/061ab97e-4e5d-4c1d-91dc-21e34b415b5b"}},{"fullUrl":"https://madie.cms.gov/Condition/hiv-cf7c","resource":{"resourceType":"Condition","id":"f1dd209d-12ad-4f56-b89c-928d3c776fb2","meta":{"profile":["http://hl7.org/fhir/us/qicore/StructureDefinition/qicore-condition"]},"clinicalStatus":{"coding":[{"system":"http://terminology.hl7.org/CodeSystem/condition-clinical","code":"active","display":"active","userSelected":true}]},"category":[{"coding":[{"system":"http://terminology.hl7.org/CodeSystem/condition-category","code":"problem-list-item","display":"Problem List Item"}]}],"code":{"coding":[{"system":"http://hl7.org/fhir/sid/icd-10-cm","code":"O98.73","userSelected":true}]},"subject":{"reference":"Patient/061ab97e-4e5d-4c1d-91dc-21e34b415b5b"},"onsetDateTime":"2025-04-01T00:45:00.000+00:00","recordedDate":"2025-04-01T00:45:00.000+00:00"},"request":{"method":"PUT","url":"Condition/f1dd209d-12ad-4f56-b89c-928d3c776fb2"}},{"fullUrl":"https://madie.cms.gov/Encounter/face-to-face-interaction-cf7d","resource":{"resourceType":"Encounter","id":"cd9c27f8-9cdd-4736-80eb-02b9fb28dfae","meta":{"profile":["http://hl7.org/fhir/us/qicore/StructureDefinition/qicore-encounter"]},"status":"finished","class":{"system":"http://terminology.hl7.org/CodeSystem/v3-ActCode","code":"AMB","display":"ambulatory"},"type":[{"coding":[{"system":"http://snomed.info/sct","version":"2022-09","code":"12843005","display":"Subsequent hospital visit by physician (procedure)","userSelected":true}]}],"subject":{"reference":"Patient/061ab97e-4e5d-4c1d-91dc-21e34b415b5b"},"period":{"start":"2025-03-07T15:00:00.000+00:00","end":"2025-03-07T15:45:00.000+00:00"}},"request":{"method":"PUT","url":"Encounter/cd9c27f8-9cdd-4736-80eb-02b9fb28dfae"}},{"fullUrl":"https://madie.cms.gov/Coverage/1","resource":{"resourceType":"Coverage","id":"516fe030-0743-4da0-8be9-c2b941ad0356","meta":{"profile":["http://hl7.org/fhir/us/qicore/StructureDefinition/qicore-coverage"]},"status":"active","beneficiary":{"reference":"Patient/061ab97e-4e5d-4c1d-91dc-21e34b415b5b"},"payor":[{"reference":"Organization/024e2731-b045-43bf-80d2-684774c5b51c"}]},"request":{"method":"PUT","url":"Coverage/516fe030-0743-4da0-8be9-c2b941ad0356"}},{"fullUrl":"https://madie.cms.gov/Organization/123456","resource":{"resourceType":"Organization","id":"024e2731-b045-43bf-80d2-684774c5b51c","meta":{"profile":["http://hl7.org/fhir/us/qicore/StructureDefinition/qicore-organization"]},"identifier":[{"use":"temp","system":"urn:oid:2.16.840.1.113883.4.4","value":"21-3259825"}],"active":true,"type":[{"coding":[{"system":"http://terminology.hl7.org/CodeSystem/organization-type","code":"pay","display":"Payer"}]}],"name":"Blue Cross Blue Shield of Texas","telecom":[{"system":"phone","value":"(+1) 972-766-6900"}],"address":[{"use":"billing","type":"postal","line":["P.O. Box 660044"],"city":"Dallas","state":"TX","postalCode":"75266-0044","country":"USA"}]},"request":{"method":"PUT","url":"Organization/024e2731-b045-43bf-80d2-684774c5b51c"}},{"fullUrl":"https://madie.cms.gov/Practitioner/practitioner-123456","resource":{"resourceType":"Practitioner","id":"12460541-2709-4f7c-94d1-c0d3264c561e","meta":{"profile":["http://hl7.org/fhir/us/qicore/StructureDefinition/qicore-practitioner"]},"identifier":[{"system":"http://hl7.org/fhir/sid/us-npi","value":"123456"}],"name":[{"family":"Evil","prefix":["Dr"]}]},"request":{"method":"PUT","url":"Practitioner/12460541-2709-4f7c-94d1-c0d3264c561e"}},{"fullUrl":"https://madie.cms.gov/MeasureReport/8b002aaf-9092-4436-82eb-6ae3fa4f7f63","resource":{"resourceType":"MeasureReport","id":"8b002aaf-9092-4436-82eb-6ae3fa4f7f63","meta":{"profile":["http://hl7.org/fhir/us/cqfmeasures/StructureDefinition/test-case-cqfm"]},"contained":[{"resourceType":"Parameters","id":"ca317b60-bf1a-44dd-8ef6-9ba184aebde0-parameters","parameter":[{"name":"subject","valueString":"061ab97e-4e5d-4c1d-91dc-21e34b415b5b"}]}],"extension":[{"url":"http://hl7.org/fhir/us/cqfmeasures/StructureDefinition/cqfm-inputParameters","valueReference":{"reference":"#ca317b60-bf1a-44dd-8ef6-9ba184aebde0-parameters"}},{"url":"http://hl7.org/fhir/us/cqfmeasures/StructureDefinition/cqfm-testCaseDescription","valueMarkdown":"HIV diagnosis onset on April 1st of the MP (91st day/non-leap year), with a qualifying encounter during the first 240 days of MP"}],"modifierExtension":[{"url":"http://hl7.org/fhir/us/cqfmeasures/StructureDefinition/cqfm-isTestCase","valueBoolean":true}],"status":"complete","type":"individual","measure":"https://madie.cms.gov/Measure/HIVViralSuppressionFHIR","period":{"start":"2025-01-01","end":"2025-12-31"},"group":[{"population":[{"code":{"coding":[{"system":"http://terminology.hl7.org/CodeSystem/measure-population","code":"initial-population","display":"Initial Population"}]},"count":0},{"code":{"coding":[{"system":"http://terminology.hl7.org/CodeSystem/measure-population","code":"denominator","display":"Denominator"}]},"count":0},{"code":{"coding":[{"system":"http://terminology.hl7.org/CodeSystem/measure-population","code":"numerator","display":"Numerator"}]},"count":0}]}]},"request":{"method":"PUT","url":"MeasureReport/8b002aaf-9092-4436-82eb-6ae3fa4f7f63"}}]}