{"resourceType":"Bundle","id":"tests-4dcecfe3-5b54-46f2-b26c-f82954ca68fe-bundle","type":"transaction","entry":[{"fullUrl":"https://madie.cms.gov/Patient/4dcecfe3-5b54-46f2-b26c-f82954ca68fe","resource":{"resourceType":"Patient","id":"4dcecfe3-5b54-46f2-b26c-f82954ca68fe","meta":{"profile":["http://hl7.org/fhir/us/qicore/StructureDefinition/qicore-patient"]},"extension":[{"url":"http://hl7.org/fhir/us/core/StructureDefinition/us-core-race","extension":[{"url":"ombCategory","valueCoding":{"system":"urn:oid:2.16.840.1.113883.6.238","code":"2028-9","display":"Asian","userSelected":true}},{"url":"text","valueString":"Asian"}]},{"url":"http://hl7.org/fhir/us/core/StructureDefinition/us-core-ethnicity","extension":[{"url":"ombCategory","valueCoding":{"system":"urn:oid:2.16.840.1.113883.6.238","code":"2186-5","display":"Not Hispanic or Latino","userSelected":true}},{"url":"text","valueString":"Not Hispanic or Latino"}]}],"identifier":[{"type":{"coding":[{"system":"http://terminology.hl7.org/CodeSystem/v2-0203","code":"MR"}]},"system":"https://bonnie-fhir.healthit.gov/","value":"6495b504e06f07b7e1707818"}],"name":[{"family":"IPPass","given":["HIVDxinfirst90daysofMP"]}],"gender":"female","birthDate":"1990-02-09"},"request":{"method":"PUT","url":"Patient/4dcecfe3-5b54-46f2-b26c-f82954ca68fe"}},{"fullUrl":"https://madie.cms.gov/Encounter/annual-wellness-visit-7819","resource":{"resourceType":"Encounter","id":"47781b80-297f-4beb-90f6-ef7beab8e548","meta":{"profile":["http://hl7.org/fhir/us/qicore/StructureDefinition/qicore-encounter"]},"status":"finished","class":{"system":"http://terminology.hl7.org/CodeSystem/v3-ActCode","code":"AMB","display":"ambulatory"},"type":[{"coding":[{"system":"http://snomed.info/sct","version":"2022-09","code":"444971000124105","display":"Annual wellness visit (procedure)","userSelected":true}]}],"subject":{"reference":"Patient/4dcecfe3-5b54-46f2-b26c-f82954ca68fe"},"period":{"start":"2025-03-07T07:00:00.000+00:00","end":"2025-03-07T08:15:00.000+00:00"}},"request":{"method":"PUT","url":"Encounter/47781b80-297f-4beb-90f6-ef7beab8e548"}},{"fullUrl":"https://madie.cms.gov/Condition/hiv-781a","resource":{"resourceType":"Condition","id":"017e44a4-cc0a-4328-a3e9-d2439cd60a83","meta":{"profile":["http://hl7.org/fhir/us/qicore/StructureDefinition/qicore-condition"]},"clinicalStatus":{"coding":[{"system":"http://terminology.hl7.org/CodeSystem/condition-clinical","code":"active","display":"active","userSelected":true}]},"category":[{"coding":[{"system":"http://terminology.hl7.org/CodeSystem/condition-category","code":"problem-list-item","display":"Problem List Item"}]}],"code":{"coding":[{"system":"http://hl7.org/fhir/sid/icd-9-cm","version":"2013","code":"042","display":"Human immunodeficiency virus [HIV] disease","userSelected":true},{"system":"http://snomed.info/sct","code":"165816005","userSelected":true}]},"subject":{"reference":"Patient/4dcecfe3-5b54-46f2-b26c-f82954ca68fe"},"onsetDateTime":"2025-02-01T11:00:00.000+00:00","recordedDate":"2025-02-01T11:00:00.000+00:00"},"request":{"method":"PUT","url":"Condition/017e44a4-cc0a-4328-a3e9-d2439cd60a83"}},{"fullUrl":"https://madie.cms.gov/Coverage/1","resource":{"resourceType":"Coverage","id":"b2b2d50b-7ce2-416d-8d27-cd8fe4e10be9","meta":{"profile":["http://hl7.org/fhir/us/qicore/StructureDefinition/qicore-coverage"]},"status":"active","beneficiary":{"reference":"Patient/4dcecfe3-5b54-46f2-b26c-f82954ca68fe"},"payor":[{"reference":"Organization/a6c3e6fa-301e-4714-9d04-3dde9a7e7c49"}]},"request":{"method":"PUT","url":"Coverage/b2b2d50b-7ce2-416d-8d27-cd8fe4e10be9"}},{"fullUrl":"https://madie.cms.gov/Organization/123456","resource":{"resourceType":"Organization","id":"a6c3e6fa-301e-4714-9d04-3dde9a7e7c49","meta":{"profile":["http://hl7.org/fhir/us/qicore/StructureDefinition/qicore-organization"]},"identifier":[{"use":"temp","system":"urn:oid:2.16.840.1.113883.4.4","value":"21-3259825"}],"active":true,"type":[{"coding":[{"system":"http://terminology.hl7.org/CodeSystem/organization-type","code":"pay","display":"Payer"}]}],"name":"Blue Cross Blue Shield of Texas","telecom":[{"system":"phone","value":"(+1) 972-766-6900"}],"address":[{"use":"billing","type":"postal","line":["P.O. Box 660044"],"city":"Dallas","state":"TX","postalCode":"75266-0044","country":"USA"}]},"request":{"method":"PUT","url":"Organization/a6c3e6fa-301e-4714-9d04-3dde9a7e7c49"}},{"fullUrl":"https://madie.cms.gov/Practitioner/practitioner-123456","resource":{"resourceType":"Practitioner","id":"47d96ce1-ada2-45ca-9046-55cacc047409","meta":{"profile":["http://hl7.org/fhir/us/qicore/StructureDefinition/qicore-practitioner"]},"identifier":[{"system":"http://hl7.org/fhir/sid/us-npi","value":"123456"}],"name":[{"family":"Evil","prefix":["Dr"]}]},"request":{"method":"PUT","url":"Practitioner/47d96ce1-ada2-45ca-9046-55cacc047409"}},{"fullUrl":"https://madie.cms.gov/MeasureReport/35e2d062-58a9-42ad-af31-716d40cc8953","resource":{"resourceType":"MeasureReport","id":"35e2d062-58a9-42ad-af31-716d40cc8953","meta":{"profile":["http://hl7.org/fhir/us/cqfmeasures/StructureDefinition/test-case-cqfm"]},"contained":[{"resourceType":"Parameters","id":"c8459ddc-aee7-4a60-902b-7f6d9c3fa367-parameters","parameter":[{"name":"subject","valueString":"4dcecfe3-5b54-46f2-b26c-f82954ca68fe"}]}],"extension":[{"url":"http://hl7.org/fhir/us/cqfmeasures/StructureDefinition/cqfm-inputParameters","valueReference":{"reference":"#c8459ddc-aee7-4a60-902b-7f6d9c3fa367-parameters"}},{"url":"http://hl7.org/fhir/us/cqfmeasures/StructureDefinition/cqfm-testCaseDescription","valueMarkdown":"HIV diagnosis made during first 90 days of MP with a qualifying encounter during MP"}],"modifierExtension":[{"url":"http://hl7.org/fhir/us/cqfmeasures/StructureDefinition/cqfm-isTestCase","valueBoolean":true}],"status":"complete","type":"individual","measure":"https://madie.cms.gov/Measure/HIVViralSuppressionFHIR","period":{"start":"2025-01-01","end":"2025-12-31"},"group":[{"population":[{"code":{"coding":[{"system":"http://terminology.hl7.org/CodeSystem/measure-population","code":"initial-population","display":"Initial Population"}]},"count":1},{"code":{"coding":[{"system":"http://terminology.hl7.org/CodeSystem/measure-population","code":"denominator","display":"Denominator"}]},"count":1},{"code":{"coding":[{"system":"http://terminology.hl7.org/CodeSystem/measure-population","code":"numerator","display":"Numerator"}]},"count":0}]}]},"request":{"method":"PUT","url":"MeasureReport/35e2d062-58a9-42ad-af31-716d40cc8953"}}]}