{
  "resourceType": "Bundle",
  "id": "633b3f9f0968f80122503ce1",
  "type": "transaction",
  "entry": [ {
    "fullUrl": "https://madie.cms.gov/Patient/401ea252-58ee-4255-b537-e90af10ff0a1",
    "resource": {
      "resourceType": "Patient",
      "id": "401ea252-58ee-4255-b537-e90af10ff0a1",
      "meta": {
        "profile": [ "http://hl7.org/fhir/us/qicore/StructureDefinition/qicore-patient" ]
      },
      "text": {
        "status": "generated",
        "div": "<div xmlns=\"http://www.w3.org/1999/xhtml\"><div class=\"hapiHeaderText\">LastAssPrfEGAResultQuantityEQ20 <b>DENOMPASS </b></div><table class=\"hapiPropertyTable\"><tbody><tr><td>Date of birth</td><td><span>01 February 2004</span></td></tr></tbody></table></div>"
      },
      "extension": [ {
        "url": "http://hl7.org/fhir/us/core/StructureDefinition/us-core-race",
        "extension": [ {
          "url": "ombCategory",
          "valueCoding": {
            "system": "urn:oid:2.16.840.1.113883.6.238",
            "code": "1002-5",
            "display": "American Indian or Alaska Native",
            "userSelected": true
          }
        }, {
          "url": "text",
          "valueString": "American Indian or Alaska Native"
        } ]
      }, {
        "url": "http://hl7.org/fhir/us/core/StructureDefinition/us-core-ethnicity",
        "extension": [ {
          "url": "ombCategory",
          "valueCoding": {
            "system": "urn:oid:2.16.840.1.113883.6.238",
            "code": "2135-2",
            "display": "Hispanic or Latino",
            "userSelected": true
          }
        }, {
          "url": "text",
          "valueString": "Hispanic or Latino"
        } ]
      } ],
      "identifier": [ {
        "type": {
          "coding": [ {
            "system": "http://terminology.hl7.org/CodeSystem/v2-0203",
            "code": "MR"
          } ]
        },
        "system": "https://bonnie-fhir.healthit.gov/",
        "value": "633b3f9f0968f80122503ce1"
      } ],
      "active": true,
      "name": [ {
        "use": "usual",
        "family": "DENOMPass",
        "given": [ "LastAssPrfEGAResultQuantityEQ20" ]
      } ],
      "gender": "female",
      "birthDate": "2004-02-01"
    },
    "request": {
      "method": "PUT",
      "url": "Patient/401ea252-58ee-4255-b537-e90af10ff0a1"
    }
  }, {
    "fullUrl": "https://madie.cms.gov/Observation/2d7a1f0f-bc11-4dd1-8f98-7dc8185fdaa5",
    "resource": {
      "resourceType": "Observation",
      "id": "2d7a1f0f-bc11-4dd1-8f98-7dc8185fdaa5",
      "meta": {
        "profile": [ "http://hl7.org/fhir/us/qicore/StructureDefinition/qicore-observation" ]
      },
      "status": "final",
      "category": [ {
        "coding": [ {
          "system": "http://terminology.hl7.org/CodeSystem/observation-category",
          "code": "exam",
          "display": "exam",
          "userSelected": true
        } ]
      } ],
      "code": {
        "coding": [ {
          "system": "http://loinc.org",
          "code": "93857-1"
        } ]
      },
      "subject": {
        "reference": "Patient/401ea252-58ee-4255-b537-e90af10ff0a1"
      },
      "effectiveDateTime": "2025-02-01T08:00:00.000+00:00",
      "valueDateTime": "2025-02-01T08:00:00+00:00"
    },
    "request": {
      "method": "PUT",
      "url": "Observation/2d7a1f0f-bc11-4dd1-8f98-7dc8185fdaa5"
    }
  }, {
    "fullUrl": "https://madie.cms.gov/Observation/96d4a301-1f68-4e25-8b34-a2c3348dfa9d",
    "resource": {
      "resourceType": "Observation",
      "id": "96d4a301-1f68-4e25-8b34-a2c3348dfa9d",
      "meta": {
        "profile": [ "http://hl7.org/fhir/us/qicore/StructureDefinition/qicore-observation" ]
      },
      "status": "final",
      "category": [ {
        "coding": [ {
          "system": "http://terminology.hl7.org/CodeSystem/observation-category",
          "code": "exam",
          "display": "exam",
          "userSelected": true
        } ]
      } ],
      "code": {
        "coding": [ {
          "system": "http://loinc.org",
          "code": "11884-4"
        } ]
      },
      "subject": {
        "reference": "Patient/401ea252-58ee-4255-b537-e90af10ff0a1"
      },
      "effectiveDateTime": "2025-02-01T08:00:00.000+00:00",
      "valueQuantity": {
        "value": 20,
        "unit": "wk"
      }
    },
    "request": {
      "method": "PUT",
      "url": "Observation/96d4a301-1f68-4e25-8b34-a2c3348dfa9d"
    }
  }, {
    "fullUrl": "https://madie.cms.gov/Encounter/d1211a90-9420-47b3-a270-6e240c0792d2",
    "resource": {
      "resourceType": "Encounter",
      "id": "d1211a90-9420-47b3-a270-6e240c0792d2",
      "meta": {
        "profile": [ "http://hl7.org/fhir/us/qicore/StructureDefinition/qicore-encounter" ]
      },
      "status": "finished",
      "class": {
        "system": "http://terminology.hl7.org/CodeSystem/v3-ActCode",
        "code": "IMP",
        "display": "inpatient encounter"
      },
      "type": [ {
        "coding": [ {
          "system": "http://snomed.info/sct",
          "code": "183452005"
        } ]
      } ],
      "subject": {
        "reference": "Patient/401ea252-58ee-4255-b537-e90af10ff0a1"
      },
      "period": {
        "start": "2025-02-01T08:00:00.000Z",
        "end": "2025-02-05T08:15:00.000Z"
      }
    },
    "request": {
      "method": "PUT",
      "url": "Encounter/d1211a90-9420-47b3-a270-6e240c0792d2"
    }
  }, {
    "fullUrl": "https://madie.cms.gov/Procedure/d27a495d-d7c5-4459-8d9e-b7e802b85d10",
    "resource": {
      "resourceType": "Procedure",
      "id": "d27a495d-d7c5-4459-8d9e-b7e802b85d10",
      "meta": {
        "profile": [ "http://hl7.org/fhir/us/qicore/StructureDefinition/qicore-procedure" ]
      },
      "extension": [ {
        "url": "http://hl7.org/fhir/us/qicore/StructureDefinition/qicore-recorded",
        "valueDateTime": "2013-04-05T09:35:00-04:00"
      } ],
      "status": "completed",
      "code": {
        "coding": [ {
          "system": "http://snomed.info/sct",
          "code": "10745001"
        } ]
      },
      "subject": {
        "reference": "Patient/401ea252-58ee-4255-b537-e90af10ff0a1"
      },
      "performedPeriod": {
        "start": "2025-02-01T08:00:00.000Z",
        "end": "2025-02-05T08:15:00.000Z"
      }
    },
    "request": {
      "method": "PUT",
      "url": "Procedure/d27a495d-d7c5-4459-8d9e-b7e802b85d10"
    }
  }, {
    "fullUrl": "https://madie.cms.gov/Coverage/6982d618-acdf-42b2-a5b5-c52bf012793c",
    "resource": {
      "resourceType": "Coverage",
      "id": "6982d618-acdf-42b2-a5b5-c52bf012793c",
      "meta": {
        "profile": [ "http://hl7.org/fhir/us/qicore/StructureDefinition/qicore-coverage" ]
      },
      "status": "active",
      "beneficiary": {
        "reference": "Patient/401ea252-58ee-4255-b537-e90af10ff0a1"
      },
      "payor": [ {
        "reference": "Organization/454ec17c-44f3-4427-84b4-f980c2e79e12"
      } ]
    },
    "request": {
      "method": "PUT",
      "url": "Coverage/6982d618-acdf-42b2-a5b5-c52bf012793c"
    }
  }, {
    "fullUrl": "https://madie.cms.gov/Organization/454ec17c-44f3-4427-84b4-f980c2e79e12",
    "resource": {
      "resourceType": "Organization",
      "id": "454ec17c-44f3-4427-84b4-f980c2e79e12",
      "meta": {
        "profile": [ "http://hl7.org/fhir/us/qicore/StructureDefinition/qicore-organization" ]
      },
      "identifier": [ {
        "use": "temp",
        "system": "urn:oid:2.16.840.1.113883.4.4",
        "value": "21-3259825"
      } ],
      "active": true,
      "type": [ {
        "coding": [ {
          "system": "http://terminology.hl7.org/CodeSystem/organization-type",
          "code": "pay",
          "display": "Payer"
        } ]
      } ],
      "name": "Blue Cross Blue Shield of Texas",
      "telecom": [ {
        "system": "phone",
        "value": "(+1) 972-766-6900"
      } ],
      "address": [ {
        "use": "billing",
        "type": "postal",
        "line": [ "P.O. Box 660044" ],
        "city": "Dallas",
        "state": "TX",
        "postalCode": "75266-0044",
        "country": "USA"
      } ]
    },
    "request": {
      "method": "PUT",
      "url": "Organization/454ec17c-44f3-4427-84b4-f980c2e79e12"
    }
  }, {
    "fullUrl": "https://madie.cms.gov/Practitioner/17611aa1-dbfc-4ac2-9af8-783f5767909b",
    "resource": {
      "resourceType": "Practitioner",
      "id": "17611aa1-dbfc-4ac2-9af8-783f5767909b",
      "identifier": [ {
        "system": "http://hl7.org/fhir/sid/us-npi",
        "value": "123456"
      } ],
      "name": [ {
        "family": "Evil",
        "prefix": [ "Dr" ]
      } ]
    },
    "request": {
      "method": "PUT",
      "url": "Practitioner/17611aa1-dbfc-4ac2-9af8-783f5767909b"
    }
  }, {
    "fullUrl": "https://madie.cms.gov/MeasureReport/d5f559e8-99da-4707-b0c0-15d6a7dc0bf1",
    "resource": {
      "resourceType": "MeasureReport",
      "id": "d5f559e8-99da-4707-b0c0-15d6a7dc0bf1",
      "meta": {
        "profile": [ "http://hl7.org/fhir/us/cqfmeasures/StructureDefinition/test-case-cqfm" ]
      },
      "contained": [ {
        "resourceType": "Parameters",
        "id": "9fe2b743-eb03-420c-8a38-ffdabc7af80b-parameters",
        "parameter": [ {
          "name": "subject",
          "valueString": "401ea252-58ee-4255-b537-e90af10ff0a1"
        } ]
      } ],
      "extension": [ {
        "url": "http://hl7.org/fhir/us/cqfmeasures/StructureDefinition/cqfm-inputParameters",
        "valueReference": {
          "reference": "#9fe2b743-eb03-420c-8a38-ffdabc7af80b-parameters"
        }
      }, {
        "url": "http://hl7.org/fhir/us/cqfmeasures/StructureDefinition/cqfm-testCaseDescription",
        "valueMarkdown": "Last Assessment Performed EGA = 20 weeks\n"
      } ],
      "modifierExtension": [ {
        "url": "http://hl7.org/fhir/us/cqfmeasures/StructureDefinition/cqfm-isTestCase",
        "valueBoolean": true
      } ],
      "status": "complete",
      "type": "individual",
      "measure": "https://madie.cms.gov/Measure/CMS1028FHIRPCSevereOBComps",
      "period": {
        "start": "2025-01-01",
        "end": "2025-12-31"
      },
      "group": [ {
        "population": [ {
          "code": {
            "coding": [ {
              "system": "http://terminology.hl7.org/CodeSystem/measure-population",
              "code": "initial-population",
              "display": "Initial Population"
            } ]
          },
          "count": 1
        }, {
          "code": {
            "coding": [ {
              "system": "http://terminology.hl7.org/CodeSystem/measure-population",
              "code": "denominator",
              "display": "Denominator"
            } ]
          },
          "count": 1
        }, {
          "code": {
            "coding": [ {
              "system": "http://terminology.hl7.org/CodeSystem/measure-population",
              "code": "numerator",
              "display": "Numerator"
            } ]
          },
          "count": 0
        }, {
          "code": {
            "coding": [ {
              "system": "http://terminology.hl7.org/CodeSystem/measure-population",
              "code": "numerator-exclusion",
              "display": "Numerator Exclusion"
            } ]
          },
          "count": 0
        } ]
      }, {
        "population": [ {
          "code": {
            "coding": [ {
              "system": "http://terminology.hl7.org/CodeSystem/measure-population",
              "code": "initial-population",
              "display": "Initial Population"
            } ]
          },
          "count": 1
        }, {
          "code": {
            "coding": [ {
              "system": "http://terminology.hl7.org/CodeSystem/measure-population",
              "code": "denominator",
              "display": "Denominator"
            } ]
          },
          "count": 1
        }, {
          "code": {
            "coding": [ {
              "system": "http://terminology.hl7.org/CodeSystem/measure-population",
              "code": "numerator",
              "display": "Numerator"
            } ]
          },
          "count": 0
        }, {
          "code": {
            "coding": [ {
              "system": "http://terminology.hl7.org/CodeSystem/measure-population",
              "code": "numerator-exclusion",
              "display": "Numerator Exclusion"
            } ]
          },
          "count": 0
        } ]
      } ],
      "evaluatedResource": [ {
        "reference": "Patient/401ea252-58ee-4255-b537-e90af10ff0a1"
      }, {
        "reference": "Observation/2d7a1f0f-bc11-4dd1-8f98-7dc8185fdaa5"
      }, {
        "reference": "Observation/96d4a301-1f68-4e25-8b34-a2c3348dfa9d"
      }, {
        "reference": "Encounter/d1211a90-9420-47b3-a270-6e240c0792d2"
      }, {
        "reference": "Procedure/d27a495d-d7c5-4459-8d9e-b7e802b85d10"
      }, {
        "reference": "Coverage/6982d618-acdf-42b2-a5b5-c52bf012793c"
      }, {
        "reference": "Organization/454ec17c-44f3-4427-84b4-f980c2e79e12"
      }, {
        "reference": "Practitioner/17611aa1-dbfc-4ac2-9af8-783f5767909b"
      } ]
    },
    "request": {
      "method": "PUT",
      "url": "MeasureReport/d5f559e8-99da-4707-b0c0-15d6a7dc0bf1"
    }
  } ]
}