{"resourceType":"Bundle","id":"tests-b7534abb-5837-4f38-83b1-b14e52684f84-bundle","type":"transaction","entry":[{"fullUrl":"https://madie.cms.gov/Patient/b7534abb-5837-4f38-83b1-b14e52684f84","resource":{"resourceType":"Patient","id":"b7534abb-5837-4f38-83b1-b14e52684f84","meta":{"profile":["http://hl7.org/fhir/us/qicore/StructureDefinition/qicore-patient"]},"extension":[{"url":"http://hl7.org/fhir/us/core/StructureDefinition/us-core-race","extension":[{"url":"ombCategory","valueCoding":{"system":"urn:oid:2.16.840.1.113883.6.238","code":"2106-3","display":"White"}},{"url":"text","valueString":"White"}]},{"url":"http://hl7.org/fhir/us/core/StructureDefinition/us-core-ethnicity","extension":[{"url":"ombCategory","valueCoding":{"system":"urn:oid:2.16.840.1.113883.6.238","code":"2135-2","display":"Hispanic or Latino"}},{"url":"text","valueString":"Hispanic or Latino"}]}],"identifier":[{"system":"http://hospital.smarthealthit.org","value":"999999999"}],"name":[{"family":"Example","given":["Patient"]}],"gender":"unknown","birthDate":"1956-01-01"},"request":{"method":"PUT","url":"Patient/b7534abb-5837-4f38-83b1-b14e52684f84"}},{"fullUrl":"https://madie.cms.gov/Encounter/b6a1382b-c695-41ba-aa18-bf33ad29e99e","resource":{"resourceType":"Encounter","id":"b6a1382b-c695-41ba-aa18-bf33ad29e99e","meta":{"profile":["http://hl7.org/fhir/us/qicore/StructureDefinition/qicore-encounter"]},"status":"finished","class":{"system":"http://terminology.hl7.org/CodeSystem/v3-ActCode","code":"IMP","display":"inpatient encounter"},"type":[{"coding":[{"system":"http://snomed.info/sct","code":"183452005"}]}],"subject":{"reference":"Patient/b7534abb-5837-4f38-83b1-b14e52684f84"},"period":{"start":"2026-04-07T08:00:00.000Z","end":"2026-04-20T08:15:00.000Z"}},"request":{"method":"PUT","url":"Encounter/b6a1382b-c695-41ba-aa18-bf33ad29e99e"}},{"fullUrl":"https://madie.cms.gov/Condition/5ba44f5c-d564-454a-a9ac-8b5df2893a86","resource":{"resourceType":"Condition","id":"5ba44f5c-d564-454a-a9ac-8b5df2893a86","meta":{"profile":["http://hl7.org/fhir/us/qicore/StructureDefinition/qicore-condition"]},"category":[{"coding":[{"system":"http://terminology.hl7.org/CodeSystem/condition-category","code":"encounter-diagnosis","display":"Encounter Diagnosis"}]}],"code":{"coding":[{"system":"http://hl7.org/fhir/sid/icd-10-cm","code":"E10.21","display":"Type 1 diabetes mellitus with diabetic nephropathy"}]},"subject":{"reference":"Patient/b7534abb-5837-4f38-83b1-b14e52684f84"},"onsetDateTime":"2011-01-02"},"request":{"method":"PUT","url":"Condition/5ba44f5c-d564-454a-a9ac-8b5df2893a86"}},{"fullUrl":"https://madie.cms.gov/Observation/6bf2db9e-00e2-466a-b1d0-4c266356c564","resource":{"resourceType":"Observation","id":"6bf2db9e-00e2-466a-b1d0-4c266356c564","meta":{"profile":["http://hl7.org/fhir/us/qicore/StructureDefinition/qicore-observation"]},"status":"final","category":[{"coding":[{"system":"http://terminology.hl7.org/CodeSystem/observation-category","code":"laboratory","display":"Laboratory"}]}],"code":{"coding":[{"system":"http://loinc.org","version":"2.72","code":"1556-0","display":"Fasting glucose [Mass/volume] in Capillary blood","userSelected":true}]},"subject":{"reference":"Patient/b7534abb-5837-4f38-83b1-b14e52684f84"},"effectiveDateTime":"2026-04-09T07:00:00.000+00:00","valueQuantity":{"value":320,"unit":"mg/dL"}},"request":{"method":"PUT","url":"Observation/6bf2db9e-00e2-466a-b1d0-4c266356c564"}},{"fullUrl":"https://madie.cms.gov/MeasureReport/5bc3d091-8976-4806-9009-dd7cb9d85827","resource":{"resourceType":"MeasureReport","id":"5bc3d091-8976-4806-9009-dd7cb9d85827","meta":{"profile":["http://hl7.org/fhir/us/cqfmeasures/StructureDefinition/test-case-cqfm"]},"contained":[{"resourceType":"Parameters","id":"72d58826-9abd-40bb-adef-000bf0b327c8-parameters","parameter":[{"name":"subject","valueString":"b7534abb-5837-4f38-83b1-b14e52684f84"}]}],"extension":[{"url":"http://hl7.org/fhir/us/cqfmeasures/StructureDefinition/cqfm-inputParameters","valueReference":{"reference":"#72d58826-9abd-40bb-adef-000bf0b327c8-parameters"}},{"url":"http://hl7.org/fhir/us/cqfmeasures/StructureDefinition/cqfm-testCaseDescription","valueMarkdown":"IP Encounter with LOS 13 days and one hyperglycemic event (numerator). Cropped qualifying encounter days to 9 as expected. "}],"modifierExtension":[{"url":"http://hl7.org/fhir/us/cqfmeasures/StructureDefinition/cqfm-isTestCase","valueBoolean":true}],"status":"complete","type":"individual","measure":"https://madie.cms.gov/Measure/HospitalHarmHyperglycemiainHospitalizedPatientsFHIR","period":{"start":"2026-01-01","end":"2026-12-31"},"group":[{"population":[{"code":{"coding":[{"system":"http://terminology.hl7.org/CodeSystem/measure-population","code":"initial-population","display":"Initial Population"}]},"count":1},{"code":{"coding":[{"system":"http://terminology.hl7.org/CodeSystem/measure-population","code":"denominator","display":"Denominator"}]},"count":1},{"code":{"coding":[{"system":"http://terminology.hl7.org/CodeSystem/measure-population","code":"denominator-exclusion","display":"Denominator Exclusion"}]},"count":0},{"code":{"coding":[{"system":"http://terminology.hl7.org/CodeSystem/measure-population","code":"numerator","display":"Numerator"}]},"count":1},{"code":{"coding":[{"system":"http://terminology.hl7.org/CodeSystem/measure-population","code":"denominator-observation","display":"DenominatorObservation"}]},"count":9},{"code":{"coding":[{"system":"http://terminology.hl7.org/CodeSystem/measure-population","code":"numerator-observation","display":"Numerator Observation"}]},"count":1}]}]},"request":{"method":"PUT","url":"MeasureReport/5bc3d091-8976-4806-9009-dd7cb9d85827"}}]}