{"resourceType":"Bundle","id":"tests-b8dd3c0c-bc5c-4858-9f96-9faabbbaad45-bundle","type":"transaction","entry":[{"fullUrl":"https://madie.cms.gov/Patient/b8dd3c0c-bc5c-4858-9f96-9faabbbaad45","resource":{"resourceType":"Patient","id":"b8dd3c0c-bc5c-4858-9f96-9faabbbaad45","meta":{"profile":["http://hl7.org/fhir/us/qicore/StructureDefinition/qicore-patient"]},"extension":[{"url":"http://hl7.org/fhir/us/core/StructureDefinition/us-core-race","extension":[{"url":"ombCategory","valueCoding":{"system":"urn:oid:2.16.840.1.113883.6.238","code":"2106-3","display":"White"}},{"url":"text","valueString":"White"}]},{"url":"http://hl7.org/fhir/us/core/StructureDefinition/us-core-ethnicity","extension":[{"url":"ombCategory","valueCoding":{"system":"urn:oid:2.16.840.1.113883.6.238","code":"2135-2","display":"Hispanic or Latino"}},{"url":"text","valueString":"Hispanic or Latino"}]}],"identifier":[{"system":"http://hospital.smarthealthit.org","value":"999999999"}],"name":[{"family":"Example","given":["Patient"]}],"gender":"other","birthDate":"1956-01-01"},"request":{"method":"PUT","url":"Patient/b8dd3c0c-bc5c-4858-9f96-9faabbbaad45"}},{"fullUrl":"https://madie.cms.gov/Encounter/8d42d77c-5388-4aa5-8cec-36e25ff8d2f6","resource":{"resourceType":"Encounter","id":"8d42d77c-5388-4aa5-8cec-36e25ff8d2f6","meta":{"profile":["http://hl7.org/fhir/us/qicore/StructureDefinition/qicore-encounter"]},"status":"finished","class":{"system":"http://terminology.hl7.org/CodeSystem/v3-ActCode","code":"IMP","display":"inpatient encounter"},"type":[{"coding":[{"system":"http://snomed.info/sct","code":"183452005"}]}],"subject":{"reference":"Patient/b8dd3c0c-bc5c-4858-9f96-9faabbbaad45"},"period":{"start":"2026-04-07T08:00:00.000Z","end":"2026-04-11T08:15:00.000Z"}},"request":{"method":"PUT","url":"Encounter/8d42d77c-5388-4aa5-8cec-36e25ff8d2f6"}},{"fullUrl":"https://madie.cms.gov/Observation/4d0ccaae-42f5-477e-9629-1f0862c2f4ad","resource":{"resourceType":"Observation","id":"4d0ccaae-42f5-477e-9629-1f0862c2f4ad","meta":{"profile":["http://hl7.org/fhir/us/qicore/StructureDefinition/qicore-observation"]},"status":"final","category":[{"coding":[{"system":"http://terminology.hl7.org/CodeSystem/observation-category","code":"laboratory","display":"Laboratory"}]}],"code":{"coding":[{"system":"http://loinc.org","version":"2.72","code":"1556-0","display":"Fasting glucose [Mass/volume] in Capillary blood","userSelected":true}]},"subject":{"reference":"Patient/b8dd3c0c-bc5c-4858-9f96-9faabbbaad45"},"effectiveDateTime":"2026-04-07T07:30:00.000+00:00","valueQuantity":{"value":600,"unit":"mg/dL"}},"request":{"method":"PUT","url":"Observation/4d0ccaae-42f5-477e-9629-1f0862c2f4ad"}},{"fullUrl":"https://madie.cms.gov/Observation/5bea7124-3eb8-454e-b8ba-1c7cc8821407","resource":{"resourceType":"Observation","id":"5bea7124-3eb8-454e-b8ba-1c7cc8821407","meta":{"profile":["http://hl7.org/fhir/us/qicore/StructureDefinition/qicore-observation"]},"status":"final","category":[{"coding":[{"system":"http://terminology.hl7.org/CodeSystem/observation-category","code":"laboratory","display":"Laboratory"}]}],"code":{"coding":[{"system":"http://loinc.org","version":"2.72","code":"1556-0","display":"Fasting glucose [Mass/volume] in Capillary blood","userSelected":true}]},"subject":{"reference":"Patient/b8dd3c0c-bc5c-4858-9f96-9faabbbaad45"},"effectiveDateTime":"2026-04-07T08:00:00.000+00:00","valueQuantity":{"value":601,"unit":"mg/dL"}},"request":{"method":"PUT","url":"Observation/5bea7124-3eb8-454e-b8ba-1c7cc8821407"}},{"fullUrl":"https://madie.cms.gov/MeasureReport/7d3c042e-3cf6-47e1-bbb1-2882519a467e","resource":{"resourceType":"MeasureReport","id":"7d3c042e-3cf6-47e1-bbb1-2882519a467e","meta":{"profile":["http://hl7.org/fhir/us/cqfmeasures/StructureDefinition/test-case-cqfm"]},"contained":[{"resourceType":"Parameters","id":"892f90d5-3986-4e45-9f99-300c6cd7af68-parameters","parameter":[{"name":"subject","valueString":"b8dd3c0c-bc5c-4858-9f96-9faabbbaad45"}]}],"extension":[{"url":"http://hl7.org/fhir/us/cqfmeasures/StructureDefinition/cqfm-inputParameters","valueReference":{"reference":"#892f90d5-3986-4e45-9f99-300c6cd7af68-parameters"}},{"url":"http://hl7.org/fhir/us/cqfmeasures/StructureDefinition/cqfm-testCaseDescription","valueMarkdown":"IP encounter where there is a glucose >600mg/dL within 7-hr interval, but there is a glucose test done before it, so does not meet denom exclusion. The glucose >600 must be the initial test. "}],"modifierExtension":[{"url":"http://hl7.org/fhir/us/cqfmeasures/StructureDefinition/cqfm-isTestCase","valueBoolean":true}],"status":"complete","type":"individual","measure":"https://madie.cms.gov/Measure/HospitalHarmHyperglycemiainHospitalizedPatientsFHIR","period":{"start":"2026-01-01","end":"2026-12-31"},"group":[{"population":[{"code":{"coding":[{"system":"http://terminology.hl7.org/CodeSystem/measure-population","code":"initial-population","display":"Initial Population"}]},"count":1},{"code":{"coding":[{"system":"http://terminology.hl7.org/CodeSystem/measure-population","code":"denominator","display":"Denominator"}]},"count":1},{"code":{"coding":[{"system":"http://terminology.hl7.org/CodeSystem/measure-population","code":"denominator-exclusion","display":"Denominator Exclusion"}]},"count":0},{"code":{"coding":[{"system":"http://terminology.hl7.org/CodeSystem/measure-population","code":"numerator","display":"Numerator"}]},"count":0},{"code":{"coding":[{"system":"http://terminology.hl7.org/CodeSystem/measure-population","code":"denominator-observation","display":"DenominatorObservation"}]},"count":3}]}]},"request":{"method":"PUT","url":"MeasureReport/7d3c042e-3cf6-47e1-bbb1-2882519a467e"}}]}