{"resourceType":"Bundle","id":"tests-cff9d7db-ba56-4527-8cd4-3a6412945f16-bundle","type":"transaction","entry":[{"fullUrl":"https://madie.cms.gov/Patient/cff9d7db-ba56-4527-8cd4-3a6412945f16","resource":{"resourceType":"Patient","id":"cff9d7db-ba56-4527-8cd4-3a6412945f16","meta":{"profile":["http://hl7.org/fhir/us/qicore/StructureDefinition/qicore-patient"]},"extension":[{"url":"http://hl7.org/fhir/us/core/StructureDefinition/us-core-race","extension":[{"url":"ombCategory","valueCoding":{"system":"urn:oid:2.16.840.1.113883.6.238","code":"2106-3","display":"White"}},{"url":"text","valueString":"White"}]},{"url":"http://hl7.org/fhir/us/core/StructureDefinition/us-core-ethnicity","extension":[{"url":"ombCategory","valueCoding":{"system":"urn:oid:2.16.840.1.113883.6.238","code":"2135-2","display":"Hispanic or Latino"}},{"url":"text","valueString":"Hispanic or Latino"}]}],"identifier":[{"system":"http://hospital.smarthealthit.org","value":"999999999"}],"name":[{"family":"Example","given":["Patient"]}],"gender":"male","birthDate":"1956-01-01"},"request":{"method":"PUT","url":"Patient/cff9d7db-ba56-4527-8cd4-3a6412945f16"}},{"fullUrl":"https://madie.cms.gov/Encounter/fec9d199-6659-4d80-bc05-f1ac2ae56eaf","resource":{"resourceType":"Encounter","id":"fec9d199-6659-4d80-bc05-f1ac2ae56eaf","meta":{"profile":["http://hl7.org/fhir/us/qicore/StructureDefinition/qicore-encounter"]},"status":"finished","class":{"system":"http://terminology.hl7.org/CodeSystem/v3-ActCode","code":"IMP","display":"inpatient encounter"},"type":[{"coding":[{"system":"http://snomed.info/sct","code":"183452005"}]}],"subject":{"reference":"Patient/cff9d7db-ba56-4527-8cd4-3a6412945f16"},"period":{"start":"2026-04-07T08:00:00.000Z","end":"2026-04-11T08:15:00.000Z"}},"request":{"method":"PUT","url":"Encounter/fec9d199-6659-4d80-bc05-f1ac2ae56eaf"}},{"fullUrl":"https://madie.cms.gov/Condition/7ff44cba-6fb7-4544-b3a1-07e6966fba43","resource":{"resourceType":"Condition","id":"7ff44cba-6fb7-4544-b3a1-07e6966fba43","meta":{"profile":["http://hl7.org/fhir/us/qicore/StructureDefinition/qicore-condition"]},"category":[{"coding":[{"system":"http://terminology.hl7.org/CodeSystem/condition-category","code":"encounter-diagnosis","display":"Encounter Diagnosis"}]}],"code":{"coding":[{"system":"http://hl7.org/fhir/sid/icd-10-cm","code":"E10.21","display":"Type 1 diabetes mellitus with diabetic nephropathy"}]},"subject":{"reference":"Patient/cff9d7db-ba56-4527-8cd4-3a6412945f16"},"onsetDateTime":"2011-01-02"},"request":{"method":"PUT","url":"Condition/7ff44cba-6fb7-4544-b3a1-07e6966fba43"}},{"fullUrl":"https://madie.cms.gov/Observation/9eed69bb-6b63-482a-b8b1-2a9f288d16c6","resource":{"resourceType":"Observation","id":"9eed69bb-6b63-482a-b8b1-2a9f288d16c6","meta":{"profile":["http://hl7.org/fhir/us/qicore/StructureDefinition/qicore-observation"]},"status":"final","category":[{"coding":[{"system":"http://terminology.hl7.org/CodeSystem/observation-category","code":"laboratory","display":"Laboratory"}]}],"code":{"coding":[{"system":"http://loinc.org","version":"2.72","code":"1556-0","display":"Fasting glucose [Mass/volume] in Capillary blood","userSelected":true}]},"subject":{"reference":"Patient/cff9d7db-ba56-4527-8cd4-3a6412945f16"},"effectiveDateTime":"2026-04-09T07:00:00.000+00:00","valueQuantity":{"value":320,"unit":"mg/dL"}},"request":{"method":"PUT","url":"Observation/9eed69bb-6b63-482a-b8b1-2a9f288d16c6"}},{"fullUrl":"https://madie.cms.gov/MeasureReport/c2127809-3501-4cb9-8c46-ff8a0b2bb4db","resource":{"resourceType":"MeasureReport","id":"c2127809-3501-4cb9-8c46-ff8a0b2bb4db","meta":{"profile":["http://hl7.org/fhir/us/cqfmeasures/StructureDefinition/test-case-cqfm"]},"contained":[{"resourceType":"Parameters","id":"12689b2a-21e7-4387-b17d-a066a18e01f0-parameters","parameter":[{"name":"subject","valueString":"cff9d7db-ba56-4527-8cd4-3a6412945f16"}]}],"extension":[{"url":"http://hl7.org/fhir/us/cqfmeasures/StructureDefinition/cqfm-inputParameters","valueReference":{"reference":"#12689b2a-21e7-4387-b17d-a066a18e01f0-parameters"}},{"url":"http://hl7.org/fhir/us/cqfmeasures/StructureDefinition/cqfm-testCaseDescription","valueMarkdown":"IP encounter where glucose level >300 mg/dL during encounter, occurring after the first 24 hours of admission. Meets Numerator. "}],"modifierExtension":[{"url":"http://hl7.org/fhir/us/cqfmeasures/StructureDefinition/cqfm-isTestCase","valueBoolean":true}],"status":"complete","type":"individual","measure":"https://madie.cms.gov/Measure/HospitalHarmHyperglycemiainHospitalizedPatientsFHIR","period":{"start":"2026-01-01","end":"2026-12-31"},"group":[{"population":[{"code":{"coding":[{"system":"http://terminology.hl7.org/CodeSystem/measure-population","code":"initial-population","display":"Initial Population"}]},"count":1},{"code":{"coding":[{"system":"http://terminology.hl7.org/CodeSystem/measure-population","code":"denominator","display":"Denominator"}]},"count":1},{"code":{"coding":[{"system":"http://terminology.hl7.org/CodeSystem/measure-population","code":"denominator-exclusion","display":"Denominator Exclusion"}]},"count":0},{"code":{"coding":[{"system":"http://terminology.hl7.org/CodeSystem/measure-population","code":"numerator","display":"Numerator"}]},"count":1},{"code":{"coding":[{"system":"http://terminology.hl7.org/CodeSystem/measure-population","code":"denominator-observation","display":"DenominatorObservation"}]},"count":3},{"code":{"coding":[{"system":"http://terminology.hl7.org/CodeSystem/measure-population","code":"numerator-observation","display":"Numerator Observation"}]},"count":1}]}]},"request":{"method":"PUT","url":"MeasureReport/c2127809-3501-4cb9-8c46-ff8a0b2bb4db"}}]}