{"resourceType":"Bundle","id":"tests-4c12355d-2548-471a-a98f-b9a58c2cbfe0-bundle","type":"transaction","entry":[{"fullUrl":"https://madie.cms.gov/Patient/4c12355d-2548-471a-a98f-b9a58c2cbfe0","resource":{"resourceType":"Patient","id":"4c12355d-2548-471a-a98f-b9a58c2cbfe0","meta":{"profile":["http://hl7.org/fhir/us/qicore/StructureDefinition/qicore-patient"]},"extension":[{"url":"http://hl7.org/fhir/us/core/StructureDefinition/us-core-race","extension":[{"url":"ombCategory","valueCoding":{"system":"urn:oid:2.16.840.1.113883.6.238","code":"2106-3","display":"White"}},{"url":"text","valueString":"White"}]},{"url":"http://hl7.org/fhir/us/core/StructureDefinition/us-core-ethnicity","extension":[{"url":"ombCategory","valueCoding":{"system":"urn:oid:2.16.840.1.113883.6.238","code":"2135-2","display":"Hispanic or Latino"}},{"url":"text","valueString":"Hispanic or Latino"}]}],"identifier":[{"system":"http://hospital.smarthealthit.org","value":"999999999"}],"name":[{"family":"Example","given":["Patient"]}],"gender":"other","birthDate":"1956-01-01"},"request":{"method":"PUT","url":"Patient/4c12355d-2548-471a-a98f-b9a58c2cbfe0"}},{"fullUrl":"https://madie.cms.gov/Encounter/5c620ea6-79a1-47bc-8e30-cac915b5bbec","resource":{"resourceType":"Encounter","id":"5c620ea6-79a1-47bc-8e30-cac915b5bbec","meta":{"profile":["http://hl7.org/fhir/us/qicore/StructureDefinition/qicore-encounter"]},"status":"finished","class":{"system":"http://terminology.hl7.org/CodeSystem/v3-ActCode","code":"IMP","display":"inpatient encounter"},"type":[{"coding":[{"system":"http://snomed.info/sct","code":"183452005"}]}],"subject":{"reference":"Patient/4c12355d-2548-471a-a98f-b9a58c2cbfe0"},"period":{"start":"2026-04-07T08:00:00.000Z","end":"2026-04-12T08:15:00.000Z"}},"request":{"method":"PUT","url":"Encounter/5c620ea6-79a1-47bc-8e30-cac915b5bbec"}},{"fullUrl":"https://madie.cms.gov/Condition/4db1f5e1-7779-459a-b2be-c8e95a8d086c","resource":{"resourceType":"Condition","id":"4db1f5e1-7779-459a-b2be-c8e95a8d086c","meta":{"profile":["http://hl7.org/fhir/us/qicore/StructureDefinition/qicore-condition"]},"category":[{"coding":[{"system":"http://terminology.hl7.org/CodeSystem/condition-category","code":"encounter-diagnosis","display":"Encounter Diagnosis"}]}],"code":{"coding":[{"system":"http://hl7.org/fhir/sid/icd-10-cm","code":"E10.21","display":"Type 1 diabetes mellitus with diabetic nephropathy"}]},"subject":{"reference":"Patient/4c12355d-2548-471a-a98f-b9a58c2cbfe0"},"onsetDateTime":"2011-01-02"},"request":{"method":"PUT","url":"Condition/4db1f5e1-7779-459a-b2be-c8e95a8d086c"}},{"fullUrl":"https://madie.cms.gov/Observation/16b8f995-1883-48d2-b369-3baa8b0c222e","resource":{"resourceType":"Observation","id":"16b8f995-1883-48d2-b369-3baa8b0c222e","meta":{"profile":["http://hl7.org/fhir/us/qicore/StructureDefinition/qicore-observation"]},"status":"final","category":[{"coding":[{"system":"http://terminology.hl7.org/CodeSystem/observation-category","code":"laboratory","display":"Laboratory"}]}],"code":{"coding":[{"system":"http://loinc.org","version":"2.72","code":"1556-0","display":"Fasting glucose [Mass/volume] in Capillary blood","userSelected":true}]},"subject":{"reference":"Patient/4c12355d-2548-471a-a98f-b9a58c2cbfe0"},"effectiveDateTime":"2026-04-09T07:00:00.000+00:00","valueQuantity":{"value":201,"unit":"mg/dL"}},"request":{"method":"PUT","url":"Observation/16b8f995-1883-48d2-b369-3baa8b0c222e"}},{"fullUrl":"https://madie.cms.gov/Observation/54322957-1e5c-4915-b0e6-717d1f96aaf9","resource":{"resourceType":"Observation","id":"54322957-1e5c-4915-b0e6-717d1f96aaf9","meta":{"profile":["http://hl7.org/fhir/us/qicore/StructureDefinition/qicore-observation"]},"status":"final","category":[{"coding":[{"system":"http://terminology.hl7.org/CodeSystem/observation-category","code":"laboratory","display":"Laboratory"}]}],"code":{"coding":[{"system":"http://loinc.org","version":"2.72","code":"1556-0","display":"Fasting glucose [Mass/volume] in Capillary blood","userSelected":true}]},"subject":{"reference":"Patient/4c12355d-2548-471a-a98f-b9a58c2cbfe0"},"effectiveDateTime":"2026-04-10T07:00:00.000+00:00","valueQuantity":{"value":200,"unit":"mg/dL"}},"request":{"method":"PUT","url":"Observation/54322957-1e5c-4915-b0e6-717d1f96aaf9"}},{"fullUrl":"https://madie.cms.gov/MeasureReport/f4ca16e7-a94b-4943-bd3f-97cb4bc4a5bd","resource":{"resourceType":"MeasureReport","id":"f4ca16e7-a94b-4943-bd3f-97cb4bc4a5bd","meta":{"profile":["http://hl7.org/fhir/us/cqfmeasures/StructureDefinition/test-case-cqfm"]},"contained":[{"resourceType":"Parameters","id":"b75d899f-7abb-495e-a0ae-a34c004b7d30-parameters","parameter":[{"name":"subject","valueString":"4c12355d-2548-471a-a98f-b9a58c2cbfe0"}]}],"extension":[{"url":"http://hl7.org/fhir/us/cqfmeasures/StructureDefinition/cqfm-inputParameters","valueReference":{"reference":"#b75d899f-7abb-495e-a0ae-a34c004b7d30-parameters"}},{"url":"http://hl7.org/fhir/us/cqfmeasures/StructureDefinition/cqfm-testCaseDescription","valueMarkdown":"IP encounter for patient w/diabetes. Had 2 consecutive days of glucose >200mg/dL, then followed by a day with no glucose level result. Meets Numerator. "}],"modifierExtension":[{"url":"http://hl7.org/fhir/us/cqfmeasures/StructureDefinition/cqfm-isTestCase","valueBoolean":true}],"status":"complete","type":"individual","measure":"https://madie.cms.gov/Measure/HospitalHarmHyperglycemiainHospitalizedPatientsFHIR","period":{"start":"2026-01-01","end":"2026-12-31"},"group":[{"population":[{"code":{"coding":[{"system":"http://terminology.hl7.org/CodeSystem/measure-population","code":"initial-population","display":"Initial Population"}]},"count":1},{"code":{"coding":[{"system":"http://terminology.hl7.org/CodeSystem/measure-population","code":"denominator","display":"Denominator"}]},"count":1},{"code":{"coding":[{"system":"http://terminology.hl7.org/CodeSystem/measure-population","code":"denominator-exclusion","display":"Denominator Exclusion"}]},"count":0},{"code":{"coding":[{"system":"http://terminology.hl7.org/CodeSystem/measure-population","code":"numerator","display":"Numerator"}]},"count":1},{"code":{"coding":[{"system":"http://terminology.hl7.org/CodeSystem/measure-population","code":"denominator-observation","display":"DenominatorObservation"}]},"count":4},{"code":{"coding":[{"system":"http://terminology.hl7.org/CodeSystem/measure-population","code":"numerator-observation","display":"Numerator Observation"}]},"count":1}]}]},"request":{"method":"PUT","url":"MeasureReport/f4ca16e7-a94b-4943-bd3f-97cb4bc4a5bd"}}]}