{"resourceType":"Bundle","id":"tests-770c7dc8-5c0b-4987-8f60-27e90f251dae-bundle","type":"transaction","entry":[{"fullUrl":"https://madie.cms.gov/Patient/770c7dc8-5c0b-4987-8f60-27e90f251dae","resource":{"resourceType":"Patient","id":"770c7dc8-5c0b-4987-8f60-27e90f251dae","meta":{"profile":["http://hl7.org/fhir/us/qicore/StructureDefinition/qicore-patient"]},"extension":[{"url":"http://hl7.org/fhir/us/core/StructureDefinition/us-core-race","extension":[{"url":"ombCategory","valueCoding":{"system":"urn:oid:2.16.840.1.113883.6.238","code":"2054-5","display":"Black or African American","userSelected":true}},{"url":"text","valueString":"Black or African American"}]},{"url":"http://hl7.org/fhir/us/core/StructureDefinition/us-core-ethnicity","extension":[{"url":"ombCategory","valueCoding":{"system":"urn:oid:2.16.840.1.113883.6.238","code":"2186-5","display":"Not Hispanic or Latino","userSelected":true}},{"url":"text","valueString":"Not Hispanic or Latino"}]}],"identifier":[{"type":{"coding":[{"system":"http://terminology.hl7.org/CodeSystem/v2-0203","code":"MR"}]},"system":"https://bonnie-fhir.healthit.gov/","value":"64a2f7676bc362e28fa378b3"}],"name":[{"family":"NumPass","given":["AllLabTestsBeforeEncWith2ofSameTest"]}],"gender":"female","birthDate":"2000-02-04"},"request":{"method":"PUT","url":"Patient/770c7dc8-5c0b-4987-8f60-27e90f251dae"}},{"fullUrl":"https://madie.cms.gov/Condition/hiv-78b4","resource":{"resourceType":"Condition","id":"4ef326d0-444f-4caf-9063-cacdd0ed39d1","meta":{"profile":["http://hl7.org/fhir/us/qicore/StructureDefinition/qicore-condition"]},"clinicalStatus":{"coding":[{"system":"http://terminology.hl7.org/CodeSystem/condition-clinical","code":"active","display":"active","userSelected":true}]},"category":[{"coding":[{"system":"http://terminology.hl7.org/CodeSystem/condition-category","code":"problem-list-item","display":"Problem List Item"}]}],"code":{"coding":[{"system":"http://hl7.org/fhir/sid/icd-9-cm","version":"2013","code":"042","display":"Human immunodeficiency virus [HIV] disease","userSelected":true},{"system":"http://snomed.info/sct","code":"165816005","userSelected":true}]},"subject":{"reference":"Patient/770c7dc8-5c0b-4987-8f60-27e90f251dae"},"onsetDateTime":"2017-09-28T08:00:00.000+00:00","recordedDate":"2017-09-28T08:00:00.000+00:00"},"request":{"method":"PUT","url":"Condition/4ef326d0-444f-4caf-9063-cacdd0ed39d1"}},{"fullUrl":"https://madie.cms.gov/Encounter/preventive-care-established-office-visit-0-to-17-78b5","resource":{"resourceType":"Encounter","id":"f34d03b2-3036-4a09-8962-17ac42d9ef97","meta":{"profile":["http://hl7.org/fhir/us/qicore/StructureDefinition/qicore-encounter"]},"status":"finished","class":{"system":"http://terminology.hl7.org/CodeSystem/v3-ActCode","code":"AMB","display":"ambulatory"},"type":[{"coding":[{"system":"http://www.ama-assn.org/go/cpt","version":"2023","code":"99391","display":"Periodic comprehensive preventive medicine reevaluation and management of an individual including an age and gender appropriate history, examination, counseling/anticipatory guidance/risk factor reduction interventions, and the ordering of laboratory/diagnostic procedures, established patient; infant (age younger than 1 year)","userSelected":true}]}],"subject":{"reference":"Patient/770c7dc8-5c0b-4987-8f60-27e90f251dae"},"period":{"start":"2025-09-29T08:00:00.000+00:00","end":"2025-09-29T08:30:00.000+00:00"}},"request":{"method":"PUT","url":"Encounter/f34d03b2-3036-4a09-8962-17ac42d9ef97"}},{"fullUrl":"https://madie.cms.gov/Observation/syphilis-tests-78b6","resource":{"resourceType":"Observation","id":"72614589-f00f-4865-9f61-78a275692f67","meta":{"profile":["http://hl7.org/fhir/us/qicore/StructureDefinition/qicore-observation"]},"status":"final","category":[{"coding":[{"system":"http://terminology.hl7.org/CodeSystem/observation-category"}]}],"code":{"coding":[{"system":"http://loinc.org","version":"2.73","code":"11084-1","display":"Reagin Ab [Titer] in Serum","userSelected":true}]},"subject":{"reference":"Patient/770c7dc8-5c0b-4987-8f60-27e90f251dae"},"effectivePeriod":{"start":"2025-08-30T08:00:00.000+00:00","end":"2025-08-30T08:15:00.000+00:00"},"issued":"2025-08-30T08:00:00.000+00:00","valueQuantity":{"value":12.69}},"request":{"method":"PUT","url":"Observation/72614589-f00f-4865-9f61-78a275692f67"}},{"fullUrl":"https://madie.cms.gov/Observation/chlamydia-screening-78b7","resource":{"resourceType":"Observation","id":"f0d6aeb0-4fe7-4d66-bfc4-c22bc5b49819","meta":{"profile":["http://hl7.org/fhir/us/qicore/StructureDefinition/qicore-observation"]},"status":"final","category":[{"coding":[{"system":"http://terminology.hl7.org/CodeSystem/observation-category"}]}],"code":{"coding":[{"system":"http://loinc.org","version":"2.73","code":"14463-4","display":"Chlamydia trachomatis [Presence] in Cervix by Organism specific culture","userSelected":true}]},"subject":{"reference":"Patient/770c7dc8-5c0b-4987-8f60-27e90f251dae"},"effectivePeriod":{"start":"2025-08-30T08:00:00.000+00:00","end":"2025-08-30T08:15:00.000+00:00"},"issued":"2025-08-30T08:00:00.000+00:00","valueQuantity":{"value":12}},"request":{"method":"PUT","url":"Observation/f0d6aeb0-4fe7-4d66-bfc4-c22bc5b49819"}},{"fullUrl":"https://madie.cms.gov/Observation/gonorrhea-screening-78b8","resource":{"resourceType":"Observation","id":"ee8170be-a3f1-4cc6-bdbd-9ae1599f3947","meta":{"profile":["http://hl7.org/fhir/us/qicore/StructureDefinition/qicore-observation"]},"status":"final","category":[{"coding":[{"system":"http://terminology.hl7.org/CodeSystem/observation-category"}]}],"code":{"coding":[{"system":"http://loinc.org","version":"2.73","code":"21415-5","display":"Neisseria gonorrhoeae DNA [Presence] in Cervical mucus by NAA with probe detection","userSelected":true}]},"subject":{"reference":"Patient/770c7dc8-5c0b-4987-8f60-27e90f251dae"},"effectiveDateTime":"2025-08-31T08:00:00.000+00:00","issued":"2025-08-31T08:00:00.000+00:00","valueQuantity":{"value":11}},"request":{"method":"PUT","url":"Observation/ee8170be-a3f1-4cc6-bdbd-9ae1599f3947"}},{"fullUrl":"https://madie.cms.gov/Observation/gonorrhea-screening-78b9","resource":{"resourceType":"Observation","id":"097f6841-d37d-4d89-a6dd-d2ff6f508dce","meta":{"profile":["http://hl7.org/fhir/us/qicore/StructureDefinition/qicore-observation"]},"status":"final","category":[{"coding":[{"system":"http://terminology.hl7.org/CodeSystem/observation-category"}]}],"code":{"coding":[{"system":"http://loinc.org","version":"2.73","code":"21414-8","display":"Neisseria gonorrhoeae DNA [Presence] in Cervical mucus by NAA with probe detection","userSelected":true}]},"subject":{"reference":"Patient/770c7dc8-5c0b-4987-8f60-27e90f251dae"},"effectivePeriod":{"start":"2025-12-01T08:00:00.000+00:00","end":"2025-12-01T08:15:00.000+00:00"},"issued":"2025-12-01T08:00:00.000+00:00","valueQuantity":{"value":15}},"request":{"method":"PUT","url":"Observation/097f6841-d37d-4d89-a6dd-d2ff6f508dce"}},{"fullUrl":"https://madie.cms.gov/Coverage/1","resource":{"resourceType":"Coverage","id":"33d5e485-a2bf-4a52-a3ff-e4c3d3e121b1","meta":{"profile":["http://hl7.org/fhir/us/qicore/StructureDefinition/qicore-coverage"]},"status":"active","beneficiary":{"reference":"Patient/770c7dc8-5c0b-4987-8f60-27e90f251dae"},"payor":[{"reference":"Organization/4da248b0-6e59-49b7-b80e-338aa21d299f"}]},"request":{"method":"PUT","url":"Coverage/33d5e485-a2bf-4a52-a3ff-e4c3d3e121b1"}},{"fullUrl":"https://madie.cms.gov/Organization/123456","resource":{"resourceType":"Organization","id":"4da248b0-6e59-49b7-b80e-338aa21d299f","meta":{"profile":["http://hl7.org/fhir/us/qicore/StructureDefinition/qicore-organization"]},"identifier":[{"use":"temp","system":"urn:oid:2.16.840.1.113883.4.4","value":"21-3259825"}],"active":true,"type":[{"coding":[{"system":"http://terminology.hl7.org/CodeSystem/organization-type","code":"pay","display":"Payer"}]}],"name":"Blue Cross Blue Shield of Texas","telecom":[{"system":"phone","value":"(+1) 972-766-6900"}],"address":[{"use":"billing","type":"postal","line":["P.O. Box 660044"],"city":"Dallas","state":"TX","postalCode":"75266-0044","country":"USA"}]},"request":{"method":"PUT","url":"Organization/4da248b0-6e59-49b7-b80e-338aa21d299f"}},{"fullUrl":"https://madie.cms.gov/Practitioner/practitioner-123456","resource":{"resourceType":"Practitioner","id":"d4f07255-3932-47a1-8437-f3dfb8e93ab0","meta":{"profile":["http://hl7.org/fhir/us/qicore/StructureDefinition/qicore-practitioner"]},"identifier":[{"system":"http://hl7.org/fhir/sid/us-npi","value":"123456"}],"name":[{"family":"Evil","prefix":["Dr"]}]},"request":{"method":"PUT","url":"Practitioner/d4f07255-3932-47a1-8437-f3dfb8e93ab0"}},{"fullUrl":"https://madie.cms.gov/MeasureReport/f1225046-467a-4c87-b008-b40aef45e37b","resource":{"resourceType":"MeasureReport","id":"f1225046-467a-4c87-b008-b40aef45e37b","meta":{"profile":["http://hl7.org/fhir/us/cqfmeasures/StructureDefinition/test-case-cqfm"]},"contained":[{"resourceType":"Parameters","id":"b58082dd-52df-427b-8ce3-76d82c36b5ba-parameters","parameter":[{"name":"subject","valueString":"770c7dc8-5c0b-4987-8f60-27e90f251dae"}]}],"extension":[{"url":"http://hl7.org/fhir/us/cqfmeasures/StructureDefinition/cqfm-inputParameters","valueReference":{"reference":"#b58082dd-52df-427b-8ce3-76d82c36b5ba-parameters"}},{"url":"http://hl7.org/fhir/us/cqfmeasures/StructureDefinition/cqfm-testCaseDescription","valueMarkdown":"Patient is over 13 years old and has an encounter during the MP and has all three lab tests during the MP BEFORE the encounter with two of the same lab test"}],"modifierExtension":[{"url":"http://hl7.org/fhir/us/cqfmeasures/StructureDefinition/cqfm-isTestCase","valueBoolean":true}],"status":"complete","type":"individual","measure":"https://madie.cms.gov/Measure/HIVSTITestingFHIR","period":{"start":"2025-01-01","end":"2025-12-31"},"group":[{"population":[{"code":{"coding":[{"system":"http://terminology.hl7.org/CodeSystem/measure-population","code":"initial-population","display":"Initial Population"}]},"count":1},{"code":{"coding":[{"system":"http://terminology.hl7.org/CodeSystem/measure-population","code":"denominator","display":"Denominator"}]},"count":1},{"code":{"coding":[{"system":"http://terminology.hl7.org/CodeSystem/measure-population","code":"numerator","display":"Numerator"}]},"count":1}]}]},"request":{"method":"PUT","url":"MeasureReport/f1225046-467a-4c87-b008-b40aef45e37b"}}]}