{"resourceType":"Bundle","id":"tests-d66ec0c1-1b48-4337-afbb-c2abd3fae91e-bundle","type":"transaction","entry":[{"fullUrl":"https://madie.cms.gov/Patient/d66ec0c1-1b48-4337-afbb-c2abd3fae91e","resource":{"resourceType":"Patient","id":"d66ec0c1-1b48-4337-afbb-c2abd3fae91e","meta":{"profile":["http://hl7.org/fhir/us/qicore/StructureDefinition/qicore-patient"]},"extension":[{"url":"http://hl7.org/fhir/us/core/StructureDefinition/us-core-race","extension":[{"url":"ombCategory","valueCoding":{"system":"urn:oid:2.16.840.1.113883.6.238","code":"2054-5","display":"Black or African American","userSelected":true}},{"url":"text","valueString":"Black or African American"}]},{"url":"http://hl7.org/fhir/us/core/StructureDefinition/us-core-ethnicity","extension":[{"url":"ombCategory","valueCoding":{"system":"urn:oid:2.16.840.1.113883.6.238","code":"2186-5","display":"Not Hispanic or Latino","userSelected":true}},{"url":"text","valueString":"Not Hispanic or Latino"}]}],"identifier":[{"type":{"coding":[{"system":"http://terminology.hl7.org/CodeSystem/v2-0203","code":"MR"}]},"system":"https://bonnie-fhir.healthit.gov/","value":"64a86e13dbdfa43e8d8ec0b8"}],"name":[{"family":"NumPass","given":["AllLabTestsBeforeEnc"]}],"gender":"female","birthDate":"2000-02-04"},"request":{"method":"PUT","url":"Patient/d66ec0c1-1b48-4337-afbb-c2abd3fae91e"}},{"fullUrl":"https://madie.cms.gov/Condition/hiv-f16f","resource":{"resourceType":"Condition","id":"c30cdffd-41b3-43f6-ac27-9493afede812","meta":{"profile":["http://hl7.org/fhir/us/qicore/StructureDefinition/qicore-condition"]},"clinicalStatus":{"coding":[{"system":"http://terminology.hl7.org/CodeSystem/condition-clinical","code":"active","display":"active","userSelected":true}]},"category":[{"coding":[{"system":"http://terminology.hl7.org/CodeSystem/condition-category","code":"problem-list-item","display":"Problem List Item"}]}],"code":{"coding":[{"system":"http://hl7.org/fhir/sid/icd-9-cm","version":"2013","code":"042","display":"Human immunodeficiency virus [HIV] disease","userSelected":true},{"system":"http://snomed.info/sct","code":"165816005","userSelected":true}]},"subject":{"reference":"Patient/d66ec0c1-1b48-4337-afbb-c2abd3fae91e"},"onsetDateTime":"2017-09-28T08:00:00.000+00:00","recordedDate":"2017-09-28T08:00:00.000+00:00"},"request":{"method":"PUT","url":"Condition/c30cdffd-41b3-43f6-ac27-9493afede812"}},{"fullUrl":"https://madie.cms.gov/Encounter/preventive-care-established-office-visit-0-to-17-ad07","resource":{"resourceType":"Encounter","id":"245fd4ce-2d64-452c-bd16-7a1428b868e5","meta":{"profile":["http://hl7.org/fhir/us/qicore/StructureDefinition/qicore-encounter"]},"status":"finished","class":{"system":"http://terminology.hl7.org/CodeSystem/v3-ActCode","code":"AMB","display":"ambulatory"},"type":[{"coding":[{"system":"http://www.ama-assn.org/go/cpt","version":"2023","code":"99391","display":"Periodic comprehensive preventive medicine reevaluation and management of an individual including an age and gender appropriate history, examination, counseling/anticipatory guidance/risk factor reduction interventions, and the ordering of laboratory/diagnostic procedures, established patient; infant (age younger than 1 year)","userSelected":true}]}],"subject":{"reference":"Patient/d66ec0c1-1b48-4337-afbb-c2abd3fae91e"},"period":{"start":"2025-09-29T08:00:00.000+00:00","end":"2025-09-29T08:30:00.000+00:00"}},"request":{"method":"PUT","url":"Encounter/245fd4ce-2d64-452c-bd16-7a1428b868e5"}},{"fullUrl":"https://madie.cms.gov/Observation/chlamydia-screening-ad08","resource":{"resourceType":"Observation","id":"7deaf86a-99d3-4c05-819f-05b99c7d91b5","meta":{"profile":["http://hl7.org/fhir/us/qicore/StructureDefinition/qicore-observation"]},"status":"final","category":[{"coding":[{"system":"http://terminology.hl7.org/CodeSystem/observation-category"}]}],"code":{"coding":[{"system":"http://loinc.org","version":"2.73","code":"14463-4","display":"Chlamydia trachomatis [Presence] in Cervix by Organism specific culture","userSelected":true}]},"subject":{"reference":"Patient/d66ec0c1-1b48-4337-afbb-c2abd3fae91e"},"effectivePeriod":{"start":"2025-08-30T08:00:00.000+00:00","end":"2025-08-30T08:16:00.000+00:00"},"issued":"2025-08-30T08:00:00.000+00:00","valueQuantity":{"value":16}},"request":{"method":"PUT","url":"Observation/7deaf86a-99d3-4c05-819f-05b99c7d91b5"}},{"fullUrl":"https://madie.cms.gov/Observation/gonorrhea-screening-ad09","resource":{"resourceType":"Observation","id":"59112613-c508-4f25-9f03-e04776d45ce2","meta":{"profile":["http://hl7.org/fhir/us/qicore/StructureDefinition/qicore-observation"]},"status":"final","category":[{"coding":[{"system":"http://terminology.hl7.org/CodeSystem/observation-category"}]}],"code":{"coding":[{"system":"http://loinc.org","version":"2.73","code":"21415-5","display":"Neisseria gonorrhoeae DNA [Presence] in Cervical mucus by NAA with probe detection","userSelected":true}]},"subject":{"reference":"Patient/d66ec0c1-1b48-4337-afbb-c2abd3fae91e"},"effectivePeriod":{"start":"2025-08-30T08:00:00.000+00:00","end":"2025-08-30T08:15:00.000+00:00"},"issued":"2025-08-30T08:00:00.000+00:00","valueQuantity":{"value":19}},"request":{"method":"PUT","url":"Observation/59112613-c508-4f25-9f03-e04776d45ce2"}},{"fullUrl":"https://madie.cms.gov/Observation/syphilis-tests-ad0a","resource":{"resourceType":"Observation","id":"6e462ac2-fc3e-42ff-9248-cb8a940f158a","meta":{"profile":["http://hl7.org/fhir/us/qicore/StructureDefinition/qicore-observation"]},"status":"final","category":[{"coding":[{"system":"http://terminology.hl7.org/CodeSystem/observation-category"}]}],"code":{"coding":[{"system":"http://loinc.org","version":"2.73","code":"11084-1","display":"Reagin Ab [Titer] in Serum","userSelected":true}]},"subject":{"reference":"Patient/d66ec0c1-1b48-4337-afbb-c2abd3fae91e"},"effectivePeriod":{"start":"2025-08-30T08:00:00.000+00:00","end":"2025-08-30T08:15:00.000+00:00"},"issued":"2025-08-30T08:00:00.000+00:00","valueQuantity":{"value":18}},"request":{"method":"PUT","url":"Observation/6e462ac2-fc3e-42ff-9248-cb8a940f158a"}},{"fullUrl":"https://madie.cms.gov/Coverage/1","resource":{"resourceType":"Coverage","id":"4e784ad5-dcb6-4dba-b992-af2d463968f6","meta":{"profile":["http://hl7.org/fhir/us/qicore/StructureDefinition/qicore-coverage"]},"status":"active","beneficiary":{"reference":"Patient/d66ec0c1-1b48-4337-afbb-c2abd3fae91e"},"payor":[{"reference":"Organization/33ead57e-5e04-40e4-95ea-bc3cdbd58917"}]},"request":{"method":"PUT","url":"Coverage/4e784ad5-dcb6-4dba-b992-af2d463968f6"}},{"fullUrl":"https://madie.cms.gov/Organization/123456","resource":{"resourceType":"Organization","id":"33ead57e-5e04-40e4-95ea-bc3cdbd58917","meta":{"profile":["http://hl7.org/fhir/us/qicore/StructureDefinition/qicore-organization"]},"identifier":[{"use":"temp","system":"urn:oid:2.16.840.1.113883.4.4","value":"21-3259825"}],"active":true,"type":[{"coding":[{"system":"http://terminology.hl7.org/CodeSystem/organization-type","code":"pay","display":"Payer"}]}],"name":"Blue Cross Blue Shield of Texas","telecom":[{"system":"phone","value":"(+1) 972-766-6900"}],"address":[{"use":"billing","type":"postal","line":["P.O. Box 660044"],"city":"Dallas","state":"TX","postalCode":"75266-0044","country":"USA"}]},"request":{"method":"PUT","url":"Organization/33ead57e-5e04-40e4-95ea-bc3cdbd58917"}},{"fullUrl":"https://madie.cms.gov/Practitioner/practitioner-123456","resource":{"resourceType":"Practitioner","id":"e913963e-b099-4c9c-be96-e37346a5040d","meta":{"profile":["http://hl7.org/fhir/us/qicore/StructureDefinition/qicore-practitioner"]},"identifier":[{"system":"http://hl7.org/fhir/sid/us-npi","value":"123456"}],"name":[{"family":"Evil","prefix":["Dr"]}]},"request":{"method":"PUT","url":"Practitioner/e913963e-b099-4c9c-be96-e37346a5040d"}},{"fullUrl":"https://madie.cms.gov/MeasureReport/58871bfb-ea70-4ec1-b507-1211ebe496e7","resource":{"resourceType":"MeasureReport","id":"58871bfb-ea70-4ec1-b507-1211ebe496e7","meta":{"profile":["http://hl7.org/fhir/us/cqfmeasures/StructureDefinition/test-case-cqfm"]},"contained":[{"resourceType":"Parameters","id":"0595a34b-6774-4895-a2fe-234fa80726ec-parameters","parameter":[{"name":"subject","valueString":"d66ec0c1-1b48-4337-afbb-c2abd3fae91e"}]}],"extension":[{"url":"http://hl7.org/fhir/us/cqfmeasures/StructureDefinition/cqfm-inputParameters","valueReference":{"reference":"#0595a34b-6774-4895-a2fe-234fa80726ec-parameters"}},{"url":"http://hl7.org/fhir/us/cqfmeasures/StructureDefinition/cqfm-testCaseDescription","valueMarkdown":"Patient is over 13 years old and has an encounter during the MP and has all three lab tests during the MP BEFORE  the encounter "}],"modifierExtension":[{"url":"http://hl7.org/fhir/us/cqfmeasures/StructureDefinition/cqfm-isTestCase","valueBoolean":true}],"status":"complete","type":"individual","measure":"https://madie.cms.gov/Measure/HIVSTITestingFHIR","period":{"start":"2025-01-01","end":"2025-12-31"},"group":[{"population":[{"code":{"coding":[{"system":"http://terminology.hl7.org/CodeSystem/measure-population","code":"initial-population","display":"Initial Population"}]},"count":1},{"code":{"coding":[{"system":"http://terminology.hl7.org/CodeSystem/measure-population","code":"denominator","display":"Denominator"}]},"count":1},{"code":{"coding":[{"system":"http://terminology.hl7.org/CodeSystem/measure-population","code":"numerator","display":"Numerator"}]},"count":1}]}]},"request":{"method":"PUT","url":"MeasureReport/58871bfb-ea70-4ec1-b507-1211ebe496e7"}}]}