{"resourceType":"Bundle","id":"tests-3d16a3a5-a2e7-49f8-8335-1b908a646ff4-bundle","type":"transaction","entry":[{"fullUrl":"https://madie.cms.gov/Patient/3d16a3a5-a2e7-49f8-8335-1b908a646ff4","resource":{"resourceType":"Patient","id":"3d16a3a5-a2e7-49f8-8335-1b908a646ff4","meta":{"profile":["http://hl7.org/fhir/us/qicore/StructureDefinition/qicore-patient"]},"extension":[{"url":"http://hl7.org/fhir/us/core/StructureDefinition/us-core-race","extension":[{"url":"ombCategory","valueCoding":{"system":"urn:oid:2.16.840.1.113883.6.238","code":"2054-5","display":"Black or African American","userSelected":true}},{"url":"text","valueString":"Black or African American"}]},{"url":"http://hl7.org/fhir/us/core/StructureDefinition/us-core-ethnicity","extension":[{"url":"ombCategory","valueCoding":{"system":"urn:oid:2.16.840.1.113883.6.238","code":"2186-5","display":"Not Hispanic or Latino","userSelected":true}},{"url":"text","valueString":"Not Hispanic or Latino"}]}],"identifier":[{"type":{"coding":[{"system":"http://terminology.hl7.org/CodeSystem/v2-0203","code":"MR"}]},"system":"https://bonnie-fhir.healthit.gov/","value":"649f402a585d003d2ac643d3"}],"name":[{"family":"NUMFail","given":["3LabBeforeMP"]}],"gender":"female","birthDate":"2000-02-04"},"request":{"method":"PUT","url":"Patient/3d16a3a5-a2e7-49f8-8335-1b908a646ff4"}},{"fullUrl":"https://madie.cms.gov/Condition/hiv-43d4","resource":{"resourceType":"Condition","id":"b59d4c8b-f67d-4d17-9377-ee077e166c11","meta":{"profile":["http://hl7.org/fhir/us/qicore/StructureDefinition/qicore-condition"]},"clinicalStatus":{"coding":[{"system":"http://terminology.hl7.org/CodeSystem/condition-clinical","code":"active","display":"active","userSelected":true}]},"category":[{"coding":[{"system":"http://terminology.hl7.org/CodeSystem/condition-category","code":"problem-list-item","display":"Problem List Item"}]}],"code":{"coding":[{"system":"http://hl7.org/fhir/sid/icd-9-cm","version":"2013","code":"042","display":"Human immunodeficiency virus [HIV] disease","userSelected":true},{"system":"http://snomed.info/sct","code":"165816005","userSelected":true}]},"subject":{"reference":"Patient/3d16a3a5-a2e7-49f8-8335-1b908a646ff4"},"onsetDateTime":"2017-09-28T08:00:00.000+00:00","recordedDate":"2017-09-28T08:00:00.000+00:00"},"request":{"method":"PUT","url":"Condition/b59d4c8b-f67d-4d17-9377-ee077e166c11"}},{"fullUrl":"https://madie.cms.gov/Encounter/preventive-care-services-initial-office-visit-0-to-17-43d5","resource":{"resourceType":"Encounter","id":"647cc6b0-63d1-4691-ad40-9928180538db","meta":{"profile":["http://hl7.org/fhir/us/qicore/StructureDefinition/qicore-encounter"]},"status":"finished","class":{"system":"http://terminology.hl7.org/CodeSystem/v3-ActCode","code":"AMB","display":"ambulatory"},"type":[{"coding":[{"system":"http://www.ama-assn.org/go/cpt","version":"2023","code":"99381","display":"Initial comprehensive preventive medicine evaluation and management of an individual including an age and gender appropriate history, examination, counseling/anticipatory guidance/risk factor reduction interventions, and the ordering of laboratory/diagnostic procedures, new patient; infant (age younger than 1 year)","userSelected":true}]}],"subject":{"reference":"Patient/3d16a3a5-a2e7-49f8-8335-1b908a646ff4"},"period":{"start":"2025-09-28T08:00:00.000+00:00","end":"2025-09-28T08:30:00.000+00:00"}},"request":{"method":"PUT","url":"Encounter/647cc6b0-63d1-4691-ad40-9928180538db"}},{"fullUrl":"https://madie.cms.gov/Observation/syphilis-tests-43d6","resource":{"resourceType":"Observation","id":"1a2c43e3-8ef4-42c7-8c90-38a84f5509c3","meta":{"profile":["http://hl7.org/fhir/us/qicore/StructureDefinition/qicore-observation"]},"status":"final","category":[{"coding":[{"system":"http://terminology.hl7.org/CodeSystem/observation-category"}]}],"code":{"coding":[{"system":"http://loinc.org","version":"2.73","code":"11084-1","display":"Reagin Ab [Titer] in Serum","userSelected":true}]},"subject":{"reference":"Patient/3d16a3a5-a2e7-49f8-8335-1b908a646ff4"},"effectiveDateTime":"2023-10-31T08:16:00.000+00:00","issued":"2023-10-31T08:16:00.000+00:00","valueQuantity":{"value":15.0}},"request":{"method":"PUT","url":"Observation/1a2c43e3-8ef4-42c7-8c90-38a84f5509c3"}},{"fullUrl":"https://madie.cms.gov/Observation/gonorrhea-screening-43d7","resource":{"resourceType":"Observation","id":"54ec1399-e643-4cf7-a660-8b1a3bac26ac","meta":{"profile":["http://hl7.org/fhir/us/qicore/StructureDefinition/qicore-observation"]},"status":"final","category":[{"coding":[{"system":"http://terminology.hl7.org/CodeSystem/observation-category"}]}],"code":{"coding":[{"system":"http://loinc.org","version":"2.73","code":"21414-8","display":"Neisseria gonorrhoeae DNA [Presence] in Cervical mucus by NAA with probe detection","userSelected":true}]},"subject":{"reference":"Patient/3d16a3a5-a2e7-49f8-8335-1b908a646ff4"},"effectiveDateTime":"2023-10-31T08:00:00.000+00:00","issued":"2023-10-31T08:00:00.000+00:00","valueQuantity":{"value":38.0}},"request":{"method":"PUT","url":"Observation/54ec1399-e643-4cf7-a660-8b1a3bac26ac"}},{"fullUrl":"https://madie.cms.gov/Observation/chlamydia-screening-43d8","resource":{"resourceType":"Observation","id":"2614dbfa-c079-4820-a63f-afa1c02992ec","meta":{"profile":["http://hl7.org/fhir/us/qicore/StructureDefinition/qicore-observation"]},"status":"final","category":[{"coding":[{"system":"http://terminology.hl7.org/CodeSystem/observation-category"}]}],"code":{"coding":[{"system":"http://loinc.org","version":"2.73","code":"14463-4","display":"Chlamydia trachomatis [Presence] in Cervix by Organism specific culture","userSelected":true}]},"subject":{"reference":"Patient/3d16a3a5-a2e7-49f8-8335-1b908a646ff4"},"effectivePeriod":{"start":"2023-10-31T08:16:00.000+00:00","end":"2023-10-31T08:17:00.000+00:00"},"issued":"2023-10-31T08:16:00.000+00:00","valueQuantity":{"value":22.0}},"request":{"method":"PUT","url":"Observation/2614dbfa-c079-4820-a63f-afa1c02992ec"}},{"fullUrl":"https://madie.cms.gov/Coverage/1","resource":{"resourceType":"Coverage","id":"457d98e0-6019-478f-8298-ec4f407ac477","meta":{"profile":["http://hl7.org/fhir/us/qicore/StructureDefinition/qicore-coverage"]},"status":"active","beneficiary":{"reference":"Patient/3d16a3a5-a2e7-49f8-8335-1b908a646ff4"},"payor":[{"reference":"Organization/ec8cac12-7dd8-4c6e-8c44-d6c645085c80"}]},"request":{"method":"PUT","url":"Coverage/457d98e0-6019-478f-8298-ec4f407ac477"}},{"fullUrl":"https://madie.cms.gov/Organization/123456","resource":{"resourceType":"Organization","id":"ec8cac12-7dd8-4c6e-8c44-d6c645085c80","meta":{"profile":["http://hl7.org/fhir/us/qicore/StructureDefinition/qicore-organization"]},"identifier":[{"use":"temp","system":"urn:oid:2.16.840.1.113883.4.4","value":"21-3259825"}],"active":true,"type":[{"coding":[{"system":"http://terminology.hl7.org/CodeSystem/organization-type","code":"pay","display":"Payer"}]}],"name":"Blue Cross Blue Shield of Texas","telecom":[{"system":"phone","value":"(+1) 972-766-6900"}],"address":[{"use":"billing","type":"postal","line":["P.O. Box 660044"],"city":"Dallas","state":"TX","postalCode":"75266-0044","country":"USA"}]},"request":{"method":"PUT","url":"Organization/ec8cac12-7dd8-4c6e-8c44-d6c645085c80"}},{"fullUrl":"https://madie.cms.gov/Practitioner/practitioner-123456","resource":{"resourceType":"Practitioner","id":"222df1b2-8ebf-4cd5-b198-e910e666cb7f","meta":{"profile":["http://hl7.org/fhir/us/qicore/StructureDefinition/qicore-practitioner"]},"identifier":[{"system":"http://hl7.org/fhir/sid/us-npi","value":"123456"}],"name":[{"family":"Evil","prefix":["Dr"]}]},"request":{"method":"PUT","url":"Practitioner/222df1b2-8ebf-4cd5-b198-e910e666cb7f"}},{"fullUrl":"https://madie.cms.gov/MeasureReport/a37fcc05-c283-4609-90c5-ef3987dffaba","resource":{"resourceType":"MeasureReport","id":"a37fcc05-c283-4609-90c5-ef3987dffaba","meta":{"profile":["http://hl7.org/fhir/us/cqfmeasures/StructureDefinition/test-case-cqfm"]},"contained":[{"resourceType":"Parameters","id":"1892e0de-5e1f-4162-8d2b-b8766e68e54d-parameters","parameter":[{"name":"subject","valueString":"3d16a3a5-a2e7-49f8-8335-1b908a646ff4"}]}],"extension":[{"url":"http://hl7.org/fhir/us/cqfmeasures/StructureDefinition/cqfm-inputParameters","valueReference":{"reference":"#1892e0de-5e1f-4162-8d2b-b8766e68e54d-parameters"}},{"url":"http://hl7.org/fhir/us/cqfmeasures/StructureDefinition/cqfm-testCaseDescription","valueMarkdown":"Patient is over 13 years old with an encounter - 3 STI screen before MP, 0 STI screen during MP"}],"modifierExtension":[{"url":"http://hl7.org/fhir/us/cqfmeasures/StructureDefinition/cqfm-isTestCase","valueBoolean":true}],"status":"complete","type":"individual","measure":"https://madie.cms.gov/Measure/HIVSTITestingFHIR","period":{"start":"2025-01-01","end":"2025-12-31"},"group":[{"population":[{"code":{"coding":[{"system":"http://terminology.hl7.org/CodeSystem/measure-population","code":"initial-population","display":"Initial Population"}]},"count":1},{"code":{"coding":[{"system":"http://terminology.hl7.org/CodeSystem/measure-population","code":"denominator","display":"Denominator"}]},"count":1},{"code":{"coding":[{"system":"http://terminology.hl7.org/CodeSystem/measure-population","code":"numerator","display":"Numerator"}]},"count":0}]}]},"request":{"method":"PUT","url":"MeasureReport/a37fcc05-c283-4609-90c5-ef3987dffaba"}}]}