{"resourceType":"Bundle","id":"tests-770c7dc8-5c0b-4987-8f60-27e90f251dae-bundle","type":"transaction","entry":[{"fullUrl":"https://madie.cms.gov/Patient/770c7dc8-5c0b-4987-8f60-27e90f251dae","resource":{"resourceType":"Patient","id":"770c7dc8-5c0b-4987-8f60-27e90f251dae","meta":{"profile":["http://hl7.org/fhir/us/qicore/StructureDefinition/qicore-patient"]},"extension":[{"url":"http://hl7.org/fhir/us/core/StructureDefinition/us-core-race","extension":[{"url":"ombCategory","valueCoding":{"system":"urn:oid:2.16.840.1.113883.6.238","code":"2054-5","display":"Black or African American","userSelected":true}},{"url":"text","valueString":"Black or African American"}]},{"url":"http://hl7.org/fhir/us/core/StructureDefinition/us-core-ethnicity","extension":[{"url":"ombCategory","valueCoding":{"system":"urn:oid:2.16.840.1.113883.6.238","code":"2186-5","display":"Not Hispanic or Latino","userSelected":true}},{"url":"text","valueString":"Not Hispanic or Latino"}]}],"identifier":[{"type":{"coding":[{"system":"http://terminology.hl7.org/CodeSystem/v2-0203","code":"MR"}]},"system":"https://bonnie-fhir.healthit.gov/","value":"64a2f7676bc362e28fa378b3"}],"name":[{"family":"NumPass","given":["AllLabTestsBeforeEncWith2ofSameTest"]}],"gender":"female","birthDate":"2000-02-04"},"request":{"method":"PUT","url":"Patient/770c7dc8-5c0b-4987-8f60-27e90f251dae"}},{"fullUrl":"https://madie.cms.gov/Condition/hiv-78b4","resource":{"resourceType":"Condition","id":"7b97f4e4-c860-4ba0-b356-b795e9e207a6","meta":{"profile":["http://hl7.org/fhir/us/qicore/StructureDefinition/qicore-condition"]},"clinicalStatus":{"coding":[{"system":"http://terminology.hl7.org/CodeSystem/condition-clinical","code":"active","display":"active","userSelected":true}]},"category":[{"coding":[{"system":"http://terminology.hl7.org/CodeSystem/condition-category","code":"problem-list-item","display":"Problem List Item"}]}],"code":{"coding":[{"system":"http://hl7.org/fhir/sid/icd-9-cm","version":"2013","code":"042","display":"Human immunodeficiency virus [HIV] disease","userSelected":true},{"system":"http://snomed.info/sct","code":"165816005","userSelected":true}]},"subject":{"reference":"Patient/770c7dc8-5c0b-4987-8f60-27e90f251dae"},"onsetDateTime":"2017-09-28T08:00:00.000+00:00","recordedDate":"2017-09-28T08:00:00.000+00:00"},"request":{"method":"PUT","url":"Condition/7b97f4e4-c860-4ba0-b356-b795e9e207a6"}},{"fullUrl":"https://madie.cms.gov/Encounter/preventive-care-established-office-visit-0-to-17-78b5","resource":{"resourceType":"Encounter","id":"46b86383-9940-408a-8138-6e8a4b65ec0d","meta":{"profile":["http://hl7.org/fhir/us/qicore/StructureDefinition/qicore-encounter"]},"status":"finished","class":{"system":"http://terminology.hl7.org/CodeSystem/v3-ActCode","code":"AMB","display":"ambulatory"},"type":[{"coding":[{"system":"http://www.ama-assn.org/go/cpt","version":"2023","code":"99391","display":"Periodic comprehensive preventive medicine reevaluation and management of an individual including an age and gender appropriate history, examination, counseling/anticipatory guidance/risk factor reduction interventions, and the ordering of laboratory/diagnostic procedures, established patient; infant (age younger than 1 year)","userSelected":true}]}],"subject":{"reference":"Patient/770c7dc8-5c0b-4987-8f60-27e90f251dae"},"period":{"start":"2025-09-29T08:00:00.000+00:00","end":"2025-09-29T08:30:00.000+00:00"}},"request":{"method":"PUT","url":"Encounter/46b86383-9940-408a-8138-6e8a4b65ec0d"}},{"fullUrl":"https://madie.cms.gov/Observation/syphilis-tests-78b6","resource":{"resourceType":"Observation","id":"467323ff-9aa0-43f2-a479-dfc8ae9f3984","meta":{"profile":["http://hl7.org/fhir/us/qicore/StructureDefinition/qicore-observation"]},"status":"final","category":[{"coding":[{"system":"http://terminology.hl7.org/CodeSystem/observation-category"}]}],"code":{"coding":[{"system":"http://loinc.org","version":"2.73","code":"11084-1","display":"Reagin Ab [Titer] in Serum","userSelected":true}]},"subject":{"reference":"Patient/770c7dc8-5c0b-4987-8f60-27e90f251dae"},"effectivePeriod":{"start":"2025-08-30T08:00:00.000+00:00","end":"2025-08-30T08:15:00.000+00:00"},"issued":"2025-08-30T08:00:00.000+00:00","valueQuantity":{"value":12.69}},"request":{"method":"PUT","url":"Observation/467323ff-9aa0-43f2-a479-dfc8ae9f3984"}},{"fullUrl":"https://madie.cms.gov/Observation/chlamydia-screening-78b7","resource":{"resourceType":"Observation","id":"7a7c66d0-454f-4455-bbb3-4c0d464dca96","meta":{"profile":["http://hl7.org/fhir/us/qicore/StructureDefinition/qicore-observation"]},"status":"final","category":[{"coding":[{"system":"http://terminology.hl7.org/CodeSystem/observation-category"}]}],"code":{"coding":[{"system":"http://loinc.org","version":"2.73","code":"14463-4","display":"Chlamydia trachomatis [Presence] in Cervix by Organism specific culture","userSelected":true}]},"subject":{"reference":"Patient/770c7dc8-5c0b-4987-8f60-27e90f251dae"},"effectivePeriod":{"start":"2025-08-30T08:00:00.000+00:00","end":"2025-08-30T08:15:00.000+00:00"},"issued":"2025-08-30T08:00:00.000+00:00","valueQuantity":{"value":12}},"request":{"method":"PUT","url":"Observation/7a7c66d0-454f-4455-bbb3-4c0d464dca96"}},{"fullUrl":"https://madie.cms.gov/Observation/gonorrhea-screening-78b8","resource":{"resourceType":"Observation","id":"29fbba29-341c-424d-8cf0-f21ba9f676fb","meta":{"profile":["http://hl7.org/fhir/us/qicore/StructureDefinition/qicore-observation"]},"status":"final","category":[{"coding":[{"system":"http://terminology.hl7.org/CodeSystem/observation-category"}]}],"code":{"coding":[{"system":"http://loinc.org","version":"2.73","code":"21415-5","display":"Neisseria gonorrhoeae DNA [Presence] in Cervical mucus by NAA with probe detection","userSelected":true}]},"subject":{"reference":"Patient/770c7dc8-5c0b-4987-8f60-27e90f251dae"},"effectiveDateTime":"2025-08-31T08:00:00.000+00:00","issued":"2025-08-31T08:00:00.000+00:00","valueQuantity":{"value":11}},"request":{"method":"PUT","url":"Observation/29fbba29-341c-424d-8cf0-f21ba9f676fb"}},{"fullUrl":"https://madie.cms.gov/Observation/gonorrhea-screening-78b9","resource":{"resourceType":"Observation","id":"2d817504-0b0a-44c6-9431-928cd0fed0a4","meta":{"profile":["http://hl7.org/fhir/us/qicore/StructureDefinition/qicore-observation"]},"status":"final","category":[{"coding":[{"system":"http://terminology.hl7.org/CodeSystem/observation-category"}]}],"code":{"coding":[{"system":"http://loinc.org","version":"2.73","code":"21414-8","display":"Neisseria gonorrhoeae DNA [Presence] in Cervical mucus by NAA with probe detection","userSelected":true}]},"subject":{"reference":"Patient/770c7dc8-5c0b-4987-8f60-27e90f251dae"},"effectivePeriod":{"start":"2025-12-01T08:00:00.000+00:00","end":"2025-12-01T08:15:00.000+00:00"},"issued":"2025-12-01T08:00:00.000+00:00","valueQuantity":{"value":15}},"request":{"method":"PUT","url":"Observation/2d817504-0b0a-44c6-9431-928cd0fed0a4"}},{"fullUrl":"https://madie.cms.gov/Coverage/1","resource":{"resourceType":"Coverage","id":"c6f3ff42-0e42-422b-b27c-e945dc9af70c","meta":{"profile":["http://hl7.org/fhir/us/qicore/StructureDefinition/qicore-coverage"]},"status":"active","beneficiary":{"reference":"Patient/770c7dc8-5c0b-4987-8f60-27e90f251dae"},"payor":[{"reference":"Organization/607fdef9-3983-4cef-ab1a-95434d29b463"}]},"request":{"method":"PUT","url":"Coverage/c6f3ff42-0e42-422b-b27c-e945dc9af70c"}},{"fullUrl":"https://madie.cms.gov/Organization/123456","resource":{"resourceType":"Organization","id":"607fdef9-3983-4cef-ab1a-95434d29b463","meta":{"profile":["http://hl7.org/fhir/us/qicore/StructureDefinition/qicore-organization"]},"identifier":[{"use":"temp","system":"urn:oid:2.16.840.1.113883.4.4","value":"21-3259825"}],"active":true,"type":[{"coding":[{"system":"http://terminology.hl7.org/CodeSystem/organization-type","code":"pay","display":"Payer"}]}],"name":"Blue Cross Blue Shield of Texas","telecom":[{"system":"phone","value":"(+1) 972-766-6900"}],"address":[{"use":"billing","type":"postal","line":["P.O. Box 660044"],"city":"Dallas","state":"TX","postalCode":"75266-0044","country":"USA"}]},"request":{"method":"PUT","url":"Organization/607fdef9-3983-4cef-ab1a-95434d29b463"}},{"fullUrl":"https://madie.cms.gov/Practitioner/practitioner-123456","resource":{"resourceType":"Practitioner","id":"21aa8f15-efe8-4757-96b9-6af1f90604c4","meta":{"profile":["http://hl7.org/fhir/us/qicore/StructureDefinition/qicore-practitioner"]},"identifier":[{"system":"http://hl7.org/fhir/sid/us-npi","value":"123456"}],"name":[{"family":"Evil","prefix":["Dr"]}]},"request":{"method":"PUT","url":"Practitioner/21aa8f15-efe8-4757-96b9-6af1f90604c4"}},{"fullUrl":"https://madie.cms.gov/MeasureReport/f1225046-467a-4c87-b008-b40aef45e37b","resource":{"resourceType":"MeasureReport","id":"f1225046-467a-4c87-b008-b40aef45e37b","meta":{"profile":["http://hl7.org/fhir/us/cqfmeasures/StructureDefinition/test-case-cqfm"]},"contained":[{"resourceType":"Parameters","id":"b58082dd-52df-427b-8ce3-76d82c36b5ba-parameters","parameter":[{"name":"subject","valueString":"770c7dc8-5c0b-4987-8f60-27e90f251dae"}]}],"extension":[{"url":"http://hl7.org/fhir/us/cqfmeasures/StructureDefinition/cqfm-inputParameters","valueReference":{"reference":"#b58082dd-52df-427b-8ce3-76d82c36b5ba-parameters"}},{"url":"http://hl7.org/fhir/us/cqfmeasures/StructureDefinition/cqfm-testCaseDescription","valueMarkdown":"Patient is over 13 years old and has an encounter during the MP and has all three lab tests during the MP BEFORE the encounter with two of the same lab test"}],"modifierExtension":[{"url":"http://hl7.org/fhir/us/cqfmeasures/StructureDefinition/cqfm-isTestCase","valueBoolean":true}],"status":"complete","type":"individual","measure":"https://madie.cms.gov/Measure/HIVSTITestingFHIR","period":{"start":"2025-01-01","end":"2025-12-31"},"group":[{"population":[{"code":{"coding":[{"system":"http://terminology.hl7.org/CodeSystem/measure-population","code":"initial-population","display":"Initial Population"}]},"count":1},{"code":{"coding":[{"system":"http://terminology.hl7.org/CodeSystem/measure-population","code":"denominator","display":"Denominator"}]},"count":1},{"code":{"coding":[{"system":"http://terminology.hl7.org/CodeSystem/measure-population","code":"numerator","display":"Numerator"}]},"count":1}]}]},"request":{"method":"PUT","url":"MeasureReport/f1225046-467a-4c87-b008-b40aef45e37b"}}]}