{"resourceType":"Bundle","id":"tests-74ac3135-a328-4695-93aa-17368142976f-bundle","type":"transaction","entry":[{"fullUrl":"https://madie.cms.gov/Patient/74ac3135-a328-4695-93aa-17368142976f","resource":{"resourceType":"Patient","id":"74ac3135-a328-4695-93aa-17368142976f","meta":{"profile":["http://hl7.org/fhir/us/qicore/StructureDefinition/qicore-patient"]},"extension":[{"url":"http://hl7.org/fhir/us/core/StructureDefinition/us-core-race","extension":[{"url":"ombCategory","valueCoding":{"system":"urn:oid:2.16.840.1.113883.6.238","code":"2028-9","display":"Asian","userSelected":true}},{"url":"text","valueString":"Asian"}]},{"url":"http://hl7.org/fhir/us/core/StructureDefinition/us-core-ethnicity","extension":[{"url":"ombCategory","valueCoding":{"system":"urn:oid:2.16.840.1.113883.6.238","code":"2135-2","display":"Hispanic or Latino","userSelected":true}},{"url":"text","valueString":"Hispanic or Latino"}]}],"identifier":[{"type":{"coding":[{"system":"http://terminology.hl7.org/CodeSystem/v2-0203","code":"MR"}]},"system":"https://bonnie-fhir.healthit.gov/","value":"64a30614a6e663d06065269f"}],"name":[{"family":"NumPass","given":["MultipleOfAllLabTestsDuringMP"]}],"gender":"male","birthDate":"2000-02-04"},"request":{"method":"PUT","url":"Patient/74ac3135-a328-4695-93aa-17368142976f"}},{"fullUrl":"https://madie.cms.gov/Condition/hiv-26a0","resource":{"resourceType":"Condition","id":"0e94a1c4-dc7f-4b1d-b749-c3e4f9a589e8","meta":{"profile":["http://hl7.org/fhir/us/qicore/StructureDefinition/qicore-condition"]},"clinicalStatus":{"coding":[{"system":"http://terminology.hl7.org/CodeSystem/condition-clinical","code":"active","display":"active","userSelected":true}]},"category":[{"coding":[{"system":"http://terminology.hl7.org/CodeSystem/condition-category","code":"problem-list-item","display":"Problem List Item"}]}],"code":{"coding":[{"system":"http://hl7.org/fhir/sid/icd-9-cm","version":"2013","code":"042","display":"Human immunodeficiency virus [HIV] disease","userSelected":true},{"system":"http://snomed.info/sct","code":"165816005","userSelected":true}]},"subject":{"reference":"Patient/74ac3135-a328-4695-93aa-17368142976f"},"onsetDateTime":"2017-09-28T08:00:00.000+00:00","recordedDate":"2017-09-28T08:00:00.000+00:00"},"request":{"method":"PUT","url":"Condition/0e94a1c4-dc7f-4b1d-b749-c3e4f9a589e8"}},{"fullUrl":"https://madie.cms.gov/Encounter/preventive-care-established-office-visit-0-to-17-26a1","resource":{"resourceType":"Encounter","id":"4e65698e-c645-4b95-b3ff-9d4f4bd7e78a","meta":{"profile":["http://hl7.org/fhir/us/qicore/StructureDefinition/qicore-encounter"]},"status":"finished","class":{"system":"http://terminology.hl7.org/CodeSystem/v3-ActCode","code":"AMB","display":"ambulatory"},"type":[{"coding":[{"system":"http://www.ama-assn.org/go/cpt","version":"2023","code":"99391","display":"Periodic comprehensive preventive medicine reevaluation and management of an individual including an age and gender appropriate history, examination, counseling/anticipatory guidance/risk factor reduction interventions, and the ordering of laboratory/diagnostic procedures, established patient; infant (age younger than 1 year)","userSelected":true}]}],"subject":{"reference":"Patient/74ac3135-a328-4695-93aa-17368142976f"},"period":{"start":"2025-09-29T08:00:00.000+00:00","end":"2025-09-29T08:30:00.000+00:00"}},"request":{"method":"PUT","url":"Encounter/4e65698e-c645-4b95-b3ff-9d4f4bd7e78a"}},{"fullUrl":"https://madie.cms.gov/Observation/syphilis-tests-26a2","resource":{"resourceType":"Observation","id":"0924b426-98ca-4704-834d-73fb41436cf6","meta":{"profile":["http://hl7.org/fhir/us/qicore/StructureDefinition/qicore-observation"]},"status":"final","category":[{"coding":[{"system":"http://terminology.hl7.org/CodeSystem/observation-category"}]}],"code":{"coding":[{"system":"http://loinc.org","version":"2.73","code":"11084-1","display":"Reagin Ab [Titer] in Serum","userSelected":true}]},"subject":{"reference":"Patient/74ac3135-a328-4695-93aa-17368142976f"},"effectivePeriod":{"start":"2025-08-30T08:00:00.000+00:00","end":"2025-08-30T08:15:00.000+00:00"},"issued":"2025-08-30T08:00:00.000+00:00","valueQuantity":{"value":12.3}},"request":{"method":"PUT","url":"Observation/0924b426-98ca-4704-834d-73fb41436cf6"}},{"fullUrl":"https://madie.cms.gov/Observation/gonorrhea-screening-26a3","resource":{"resourceType":"Observation","id":"69b1b00d-f0e6-49d3-b06f-a83f3a4ecc19","meta":{"profile":["http://hl7.org/fhir/us/qicore/StructureDefinition/qicore-observation"]},"status":"final","category":[{"coding":[{"system":"http://terminology.hl7.org/CodeSystem/observation-category"}]}],"code":{"coding":[{"system":"http://loinc.org","version":"2.73","code":"21414-8","display":"Neisseria gonorrhoeae DNA [Presence] in Cervical mucus by NAA with probe detection","userSelected":true}]},"subject":{"reference":"Patient/74ac3135-a328-4695-93aa-17368142976f"},"effectivePeriod":{"start":"2025-08-30T08:00:00.000+00:00","end":"2025-08-30T08:15:00.000+00:00"},"issued":"2025-08-30T08:00:00.000+00:00","valueQuantity":{"value":15}},"request":{"method":"PUT","url":"Observation/69b1b00d-f0e6-49d3-b06f-a83f3a4ecc19"}},{"fullUrl":"https://madie.cms.gov/Observation/chlamydia-screening-26a4","resource":{"resourceType":"Observation","id":"2f149789-ef21-403c-a238-a4b682bea287","meta":{"profile":["http://hl7.org/fhir/us/qicore/StructureDefinition/qicore-observation"]},"status":"final","category":[{"coding":[{"system":"http://terminology.hl7.org/CodeSystem/observation-category"}]}],"code":{"coding":[{"system":"http://loinc.org","version":"2.73","code":"14463-4","display":"Chlamydia trachomatis [Presence] in Cervix by Organism specific culture","userSelected":true}]},"subject":{"reference":"Patient/74ac3135-a328-4695-93aa-17368142976f"},"effectivePeriod":{"start":"2025-08-30T08:00:00.000+00:00","end":"2025-08-30T08:15:00.000+00:00"},"issued":"2025-08-30T08:00:00.000+00:00","valueQuantity":{"value":16}},"request":{"method":"PUT","url":"Observation/2f149789-ef21-403c-a238-a4b682bea287"}},{"fullUrl":"https://madie.cms.gov/Observation/syphilis-tests-26a5","resource":{"resourceType":"Observation","id":"964bccb2-7a5b-4b01-81aa-ed318f89ecd7","meta":{"profile":["http://hl7.org/fhir/us/qicore/StructureDefinition/qicore-observation"]},"status":"final","category":[{"coding":[{"system":"http://terminology.hl7.org/CodeSystem/observation-category"}]}],"code":{"coding":[{"system":"http://loinc.org","code":"22590-4","userSelected":true}]},"subject":{"reference":"Patient/74ac3135-a328-4695-93aa-17368142976f"},"effectiveDateTime":"2025-03-06T08:45:00.000+00:00","issued":"2025-03-06T08:45:00.000+00:00","valueQuantity":{"value":19}},"request":{"method":"PUT","url":"Observation/964bccb2-7a5b-4b01-81aa-ed318f89ecd7"}},{"fullUrl":"https://madie.cms.gov/Observation/gonorrhea-screening-26a6","resource":{"resourceType":"Observation","id":"33d6b14c-846c-4dc9-b205-6a35aa1758b2","meta":{"profile":["http://hl7.org/fhir/us/qicore/StructureDefinition/qicore-observation"]},"status":"final","category":[{"coding":[{"system":"http://terminology.hl7.org/CodeSystem/observation-category"}]}],"code":{"coding":[{"system":"http://loinc.org","version":"2.73","code":"21415-5","display":"Neisseria gonorrhoeae DNA [Presence] in Cervical mucus by NAA with probe detection","userSelected":true}]},"subject":{"reference":"Patient/74ac3135-a328-4695-93aa-17368142976f"},"effectiveDateTime":"2025-03-06T08:47:00.000+00:00","issued":"2025-03-06T08:47:00.000+00:00","valueQuantity":{"value":19}},"request":{"method":"PUT","url":"Observation/33d6b14c-846c-4dc9-b205-6a35aa1758b2"}},{"fullUrl":"https://madie.cms.gov/Observation/chlamydia-screening-26a7","resource":{"resourceType":"Observation","id":"ea8df6bd-843b-4209-9416-9fa8a6da8def","meta":{"profile":["http://hl7.org/fhir/us/qicore/StructureDefinition/qicore-observation"]},"status":"final","category":[{"coding":[{"system":"http://terminology.hl7.org/CodeSystem/observation-category"}]}],"code":{"coding":[{"system":"http://loinc.org","code":"34710-4","userSelected":true}]},"subject":{"reference":"Patient/74ac3135-a328-4695-93aa-17368142976f"},"effectiveDateTime":"2025-03-06T08:48:00.000+00:00","issued":"2025-03-06T08:48:00.000+00:00","valueQuantity":{"value":19}},"request":{"method":"PUT","url":"Observation/ea8df6bd-843b-4209-9416-9fa8a6da8def"}},{"fullUrl":"https://madie.cms.gov/Coverage/1","resource":{"resourceType":"Coverage","id":"c194bbbb-c862-4430-b3e0-9b1704ca6430","meta":{"profile":["http://hl7.org/fhir/us/qicore/StructureDefinition/qicore-coverage"]},"status":"active","beneficiary":{"reference":"Patient/74ac3135-a328-4695-93aa-17368142976f"},"payor":[{"reference":"Organization/9e9b3f13-a353-4173-b29b-947d6f1f2031"}]},"request":{"method":"PUT","url":"Coverage/c194bbbb-c862-4430-b3e0-9b1704ca6430"}},{"fullUrl":"https://madie.cms.gov/Organization/123456","resource":{"resourceType":"Organization","id":"9e9b3f13-a353-4173-b29b-947d6f1f2031","meta":{"profile":["http://hl7.org/fhir/us/qicore/StructureDefinition/qicore-organization"]},"identifier":[{"use":"temp","system":"urn:oid:2.16.840.1.113883.4.4","value":"21-3259825"}],"active":true,"type":[{"coding":[{"system":"http://terminology.hl7.org/CodeSystem/organization-type","code":"pay","display":"Payer"}]}],"name":"Blue Cross Blue Shield of Texas","telecom":[{"system":"phone","value":"(+1) 972-766-6900"}],"address":[{"use":"billing","type":"postal","line":["P.O. Box 660044"],"city":"Dallas","state":"TX","postalCode":"75266-0044","country":"USA"}]},"request":{"method":"PUT","url":"Organization/9e9b3f13-a353-4173-b29b-947d6f1f2031"}},{"fullUrl":"https://madie.cms.gov/Practitioner/practitioner-123456","resource":{"resourceType":"Practitioner","id":"9057c990-7d9b-49a5-adfa-ffed50101303","meta":{"profile":["http://hl7.org/fhir/us/qicore/StructureDefinition/qicore-practitioner"]},"identifier":[{"system":"http://hl7.org/fhir/sid/us-npi","value":"123456"}],"name":[{"family":"Evil","prefix":["Dr"]}]},"request":{"method":"PUT","url":"Practitioner/9057c990-7d9b-49a5-adfa-ffed50101303"}},{"fullUrl":"https://madie.cms.gov/MeasureReport/a087fc0a-f554-4cc0-a0b6-01b2df56b711","resource":{"resourceType":"MeasureReport","id":"a087fc0a-f554-4cc0-a0b6-01b2df56b711","meta":{"profile":["http://hl7.org/fhir/us/cqfmeasures/StructureDefinition/test-case-cqfm"]},"contained":[{"resourceType":"Parameters","id":"4dd18866-05f6-417c-9431-c6774db0da58-parameters","parameter":[{"name":"subject","valueString":"74ac3135-a328-4695-93aa-17368142976f"}]}],"extension":[{"url":"http://hl7.org/fhir/us/cqfmeasures/StructureDefinition/cqfm-inputParameters","valueReference":{"reference":"#4dd18866-05f6-417c-9431-c6774db0da58-parameters"}},{"url":"http://hl7.org/fhir/us/cqfmeasures/StructureDefinition/cqfm-testCaseDescription","valueMarkdown":"Patient is over 13 years old and has an encounter during the MP and has all three lab tests performed multiple times during the MP "}],"modifierExtension":[{"url":"http://hl7.org/fhir/us/cqfmeasures/StructureDefinition/cqfm-isTestCase","valueBoolean":true}],"status":"complete","type":"individual","measure":"https://madie.cms.gov/Measure/HIVSTITestingFHIR","period":{"start":"2025-01-01","end":"2025-12-31"},"group":[{"population":[{"code":{"coding":[{"system":"http://terminology.hl7.org/CodeSystem/measure-population","code":"initial-population","display":"Initial Population"}]},"count":1},{"code":{"coding":[{"system":"http://terminology.hl7.org/CodeSystem/measure-population","code":"denominator","display":"Denominator"}]},"count":1},{"code":{"coding":[{"system":"http://terminology.hl7.org/CodeSystem/measure-population","code":"numerator","display":"Numerator"}]},"count":1}]}]},"request":{"method":"PUT","url":"MeasureReport/a087fc0a-f554-4cc0-a0b6-01b2df56b711"}}]}