{"resourceType":"Bundle","id":"tests-23a881d2-1897-4674-8857-c438bdb8bd7d-bundle","type":"transaction","entry":[{"fullUrl":"https://madie.cms.gov/Patient/23a881d2-1897-4674-8857-c438bdb8bd7d","resource":{"resourceType":"Patient","id":"23a881d2-1897-4674-8857-c438bdb8bd7d","meta":{"profile":["http://hl7.org/fhir/us/qicore/StructureDefinition/qicore-patient"]},"extension":[{"url":"http://hl7.org/fhir/us/core/StructureDefinition/us-core-race","extension":[{"url":"ombCategory","valueCoding":{"system":"urn:oid:2.16.840.1.113883.6.238","code":"2054-5","display":"Black or African American","userSelected":true}},{"url":"text","valueString":"Black or African American"}]},{"url":"http://hl7.org/fhir/us/core/StructureDefinition/us-core-ethnicity","extension":[{"url":"ombCategory","valueCoding":{"system":"urn:oid:2.16.840.1.113883.6.238","code":"2186-5","display":"Not Hispanic or Latino","userSelected":true}},{"url":"text","valueString":"Not Hispanic or Latino"}]}],"identifier":[{"type":{"coding":[{"system":"http://terminology.hl7.org/CodeSystem/v2-0203","code":"MR"}]},"system":"https://bonnie-fhir.healthit.gov/","value":"649f402a585d003d2ac643d4"}],"name":[{"family":"NUMFail","given":["3LabBeforeMP"]}],"gender":"female","birthDate":"2000-02-04"},"request":{"method":"PUT","url":"Patient/23a881d2-1897-4674-8857-c438bdb8bd7d"}},{"fullUrl":"https://madie.cms.gov/Condition/hiv-43d4","resource":{"resourceType":"Condition","id":"d93d5085-9863-44a7-9b2a-0500298ffbf1","meta":{"profile":["http://hl7.org/fhir/us/qicore/StructureDefinition/qicore-condition"]},"clinicalStatus":{"coding":[{"system":"http://terminology.hl7.org/CodeSystem/condition-clinical","code":"active","display":"active","userSelected":true}]},"category":[{"coding":[{"system":"http://terminology.hl7.org/CodeSystem/condition-category","code":"problem-list-item","display":"Problem List Item"}]}],"code":{"coding":[{"system":"http://hl7.org/fhir/sid/icd-9-cm","version":"2013","code":"042","display":"Human immunodeficiency virus [HIV] disease","userSelected":true},{"system":"http://snomed.info/sct","code":"165816005","userSelected":true}]},"subject":{"reference":"Patient/23a881d2-1897-4674-8857-c438bdb8bd7d"},"onsetDateTime":"2017-09-28T08:00:00.000+00:00","recordedDate":"2017-09-28T08:00:00.000+00:00"},"request":{"method":"PUT","url":"Condition/d93d5085-9863-44a7-9b2a-0500298ffbf1"}},{"fullUrl":"https://madie.cms.gov/Encounter/preventive-care-services-initial-office-visit-0-to-17-43d5","resource":{"resourceType":"Encounter","id":"8c84ac01-9c65-4b78-baec-995b1fa629df","meta":{"profile":["http://hl7.org/fhir/us/qicore/StructureDefinition/qicore-encounter"]},"status":"finished","class":{"system":"http://terminology.hl7.org/CodeSystem/v3-ActCode","code":"AMB","display":"ambulatory"},"type":[{"coding":[{"system":"http://www.ama-assn.org/go/cpt","version":"2023","code":"99381","display":"Initial comprehensive preventive medicine evaluation and management of an individual including an age and gender appropriate history, examination, counseling/anticipatory guidance/risk factor reduction interventions, and the ordering of laboratory/diagnostic procedures, new patient; infant (age younger than 1 year)","userSelected":true}]}],"subject":{"reference":"Patient/23a881d2-1897-4674-8857-c438bdb8bd7d"},"period":{"start":"2025-09-28T08:00:00.000+00:00","end":"2025-09-28T08:30:00.000+00:00"}},"request":{"method":"PUT","url":"Encounter/8c84ac01-9c65-4b78-baec-995b1fa629df"}},{"fullUrl":"https://madie.cms.gov/Observation/syphilis-tests-43d6","resource":{"resourceType":"Observation","id":"bb2bc15e-2ce0-4518-8b29-a0170d63ccba","meta":{"profile":["http://hl7.org/fhir/us/qicore/StructureDefinition/qicore-observation"]},"status":"final","category":[{"coding":[{"system":"http://terminology.hl7.org/CodeSystem/observation-category"}]}],"code":{"coding":[{"system":"http://loinc.org","version":"2.73","code":"11084-1","display":"Reagin Ab [Titer] in Serum","userSelected":true}]},"subject":{"reference":"Patient/23a881d2-1897-4674-8857-c438bdb8bd7d"},"effectivePeriod":{"start":"2023-12-31T08:00:00.000+00:00","end":"2023-12-31T08:15:00.000+00:00"},"issued":"2023-12-31T08:16:00.000+00:00","valueQuantity":{"value":15.0}},"request":{"method":"PUT","url":"Observation/bb2bc15e-2ce0-4518-8b29-a0170d63ccba"}},{"fullUrl":"https://madie.cms.gov/Observation/gonorrhea-screening-43d7","resource":{"resourceType":"Observation","id":"1d23ddb7-ad8e-4137-8b04-974b55b9ded6","meta":{"profile":["http://hl7.org/fhir/us/qicore/StructureDefinition/qicore-observation"]},"status":"final","category":[{"coding":[{"system":"http://terminology.hl7.org/CodeSystem/observation-category"}]}],"code":{"coding":[{"system":"http://loinc.org","version":"2.73","code":"21414-8","display":"Neisseria gonorrhoeae DNA [Presence] in Cervical mucus by NAA with probe detection","userSelected":true}]},"subject":{"reference":"Patient/23a881d2-1897-4674-8857-c438bdb8bd7d"},"effectivePeriod":{"start":"2023-12-31T08:00:00.000+00:00","end":"2023-12-31T08:15:00.000+00:00"},"issued":"2023-12-31T08:16:00.000+00:00","valueQuantity":{"value":38.0}},"request":{"method":"PUT","url":"Observation/1d23ddb7-ad8e-4137-8b04-974b55b9ded6"}},{"fullUrl":"https://madie.cms.gov/Observation/chlamydia-screening-43d8","resource":{"resourceType":"Observation","id":"3154760a-f2d4-489c-b6c1-0bf7b099fa31","meta":{"profile":["http://hl7.org/fhir/us/qicore/StructureDefinition/qicore-observation"]},"status":"final","category":[{"coding":[{"system":"http://terminology.hl7.org/CodeSystem/observation-category"}]}],"code":{"coding":[{"system":"http://loinc.org","version":"2.73","code":"14463-4","display":"Chlamydia trachomatis [Presence] in Cervix by Organism specific culture","userSelected":true}]},"subject":{"reference":"Patient/23a881d2-1897-4674-8857-c438bdb8bd7d"},"effectivePeriod":{"start":"2023-12-31T08:00:00.000+00:00","end":"2023-12-31T08:15:00.000+00:00"},"issued":"2023-12-31T08:16:00.000+00:00","valueQuantity":{"value":22.0}},"request":{"method":"PUT","url":"Observation/3154760a-f2d4-489c-b6c1-0bf7b099fa31"}},{"fullUrl":"https://madie.cms.gov/Coverage/1","resource":{"resourceType":"Coverage","id":"ffea0456-aa39-46d7-8a2d-4b8fdd32f1c1","meta":{"profile":["http://hl7.org/fhir/us/qicore/StructureDefinition/qicore-coverage"]},"status":"active","beneficiary":{"reference":"Patient/23a881d2-1897-4674-8857-c438bdb8bd7d"},"payor":[{"reference":"Organization/4d7da20f-8773-4347-8f6b-80adcdcee1f4"}]},"request":{"method":"PUT","url":"Coverage/ffea0456-aa39-46d7-8a2d-4b8fdd32f1c1"}},{"fullUrl":"https://madie.cms.gov/Organization/123456","resource":{"resourceType":"Organization","id":"4d7da20f-8773-4347-8f6b-80adcdcee1f4","meta":{"profile":["http://hl7.org/fhir/us/qicore/StructureDefinition/qicore-organization"]},"identifier":[{"use":"temp","system":"urn:oid:2.16.840.1.113883.4.4","value":"21-3259825"}],"active":true,"type":[{"coding":[{"system":"http://terminology.hl7.org/CodeSystem/organization-type","code":"pay","display":"Payer"}]}],"name":"Blue Cross Blue Shield of Texas","telecom":[{"system":"phone","value":"(+1) 972-766-6900"}],"address":[{"use":"billing","type":"postal","line":["P.O. Box 660044"],"city":"Dallas","state":"TX","postalCode":"75266-0044","country":"USA"}]},"request":{"method":"PUT","url":"Organization/4d7da20f-8773-4347-8f6b-80adcdcee1f4"}},{"fullUrl":"https://madie.cms.gov/Practitioner/practitioner-123456","resource":{"resourceType":"Practitioner","id":"f9331951-ec19-4f6b-9669-b37517e288a4","meta":{"profile":["http://hl7.org/fhir/us/qicore/StructureDefinition/qicore-practitioner"]},"identifier":[{"system":"http://hl7.org/fhir/sid/us-npi","value":"123456"}],"name":[{"family":"Evil","prefix":["Dr"]}]},"request":{"method":"PUT","url":"Practitioner/f9331951-ec19-4f6b-9669-b37517e288a4"}},{"fullUrl":"https://madie.cms.gov/MeasureReport/caab6472-6c52-4386-9d74-e6709f0b8747","resource":{"resourceType":"MeasureReport","id":"caab6472-6c52-4386-9d74-e6709f0b8747","meta":{"profile":["http://hl7.org/fhir/us/cqfmeasures/StructureDefinition/test-case-cqfm"]},"contained":[{"resourceType":"Parameters","id":"2238a569-cdf5-41f7-8547-867708d1b621-parameters","parameter":[{"name":"subject","valueString":"23a881d2-1897-4674-8857-c438bdb8bd7d"}]}],"extension":[{"url":"http://hl7.org/fhir/us/cqfmeasures/StructureDefinition/cqfm-inputParameters","valueReference":{"reference":"#2238a569-cdf5-41f7-8547-867708d1b621-parameters"}},{"url":"http://hl7.org/fhir/us/cqfmeasures/StructureDefinition/cqfm-testCaseDescription","valueMarkdown":"Patient is over 13 years old with an encounter - 3 STI screen periods before MP, 0 STI screen during MP"}],"modifierExtension":[{"url":"http://hl7.org/fhir/us/cqfmeasures/StructureDefinition/cqfm-isTestCase","valueBoolean":true}],"status":"complete","type":"individual","measure":"https://madie.cms.gov/Measure/HIVSTITestingFHIR","period":{"start":"2025-01-01","end":"2025-12-31"},"group":[{"population":[{"code":{"coding":[{"system":"http://terminology.hl7.org/CodeSystem/measure-population","code":"initial-population","display":"Initial Population"}]},"count":1},{"code":{"coding":[{"system":"http://terminology.hl7.org/CodeSystem/measure-population","code":"denominator","display":"Denominator"}]},"count":1},{"code":{"coding":[{"system":"http://terminology.hl7.org/CodeSystem/measure-population","code":"numerator","display":"Numerator"}]},"count":0}]}]},"request":{"method":"PUT","url":"MeasureReport/caab6472-6c52-4386-9d74-e6709f0b8747"}}]}