{"resourceType":"Bundle","id":"tests-b21edef6-b548-47fc-b399-55188354fbf1-bundle","type":"transaction","entry":[{"fullUrl":"https://madie.cms.gov/Patient/b21edef6-b548-47fc-b399-55188354fbf1","resource":{"resourceType":"Patient","id":"b21edef6-b548-47fc-b399-55188354fbf1","meta":{"profile":["http://hl7.org/fhir/us/qicore/StructureDefinition/qicore-patient"]},"extension":[{"url":"http://hl7.org/fhir/us/core/StructureDefinition/us-core-race","extension":[{"url":"ombCategory","valueCoding":{"system":"urn:oid:2.16.840.1.113883.6.238","code":"2054-5","display":"Black or African American","userSelected":true}},{"url":"text","valueString":"Black or African American"}]},{"url":"http://hl7.org/fhir/us/core/StructureDefinition/us-core-ethnicity","extension":[{"url":"ombCategory","valueCoding":{"system":"urn:oid:2.16.840.1.113883.6.238","code":"2186-5","display":"Not Hispanic or Latino","userSelected":true}},{"url":"text","valueString":"Not Hispanic or Latino"}]}],"identifier":[{"type":{"coding":[{"system":"http://terminology.hl7.org/CodeSystem/v2-0203","code":"MR"}]},"system":"https://bonnie-fhir.healthit.gov/","value":"649f313111aae161d5618897"}],"name":[{"family":"NUMFail","given":["1LabBeforeMP2LabDuringMP"]}],"gender":"female","birthDate":"2000-02-04"},"request":{"method":"PUT","url":"Patient/b21edef6-b548-47fc-b399-55188354fbf1"}},{"fullUrl":"https://madie.cms.gov/Condition/hiv-8898","resource":{"resourceType":"Condition","id":"16a33919-3c74-4b08-995b-f1e40ebb0432","meta":{"profile":["http://hl7.org/fhir/us/qicore/StructureDefinition/qicore-condition"]},"clinicalStatus":{"coding":[{"system":"http://terminology.hl7.org/CodeSystem/condition-clinical","code":"active","display":"active","userSelected":true}]},"category":[{"coding":[{"system":"http://terminology.hl7.org/CodeSystem/condition-category","code":"problem-list-item","display":"Problem List Item"}]}],"code":{"coding":[{"system":"http://hl7.org/fhir/sid/icd-9-cm","version":"2013","code":"042","display":"Human immunodeficiency virus [HIV] disease","userSelected":true},{"system":"http://snomed.info/sct","code":"165816005","userSelected":true}]},"subject":{"reference":"Patient/b21edef6-b548-47fc-b399-55188354fbf1"},"onsetDateTime":"2017-09-28T08:00:00.000+00:00","recordedDate":"2017-09-28T08:00:00.000+00:00"},"request":{"method":"PUT","url":"Condition/16a33919-3c74-4b08-995b-f1e40ebb0432"}},{"fullUrl":"https://madie.cms.gov/Encounter/preventive-care-services-initial-office-visit-0-to-17-8899","resource":{"resourceType":"Encounter","id":"3afd173d-ba58-4010-8820-61bb61797299","meta":{"profile":["http://hl7.org/fhir/us/qicore/StructureDefinition/qicore-encounter"]},"status":"finished","class":{"system":"http://terminology.hl7.org/CodeSystem/v3-ActCode","code":"AMB","display":"ambulatory"},"type":[{"coding":[{"system":"http://www.ama-assn.org/go/cpt","version":"2023","code":"99381","display":"Initial comprehensive preventive medicine evaluation and management of an individual including an age and gender appropriate history, examination, counseling/anticipatory guidance/risk factor reduction interventions, and the ordering of laboratory/diagnostic procedures, new patient; infant (age younger than 1 year)","userSelected":true}]}],"subject":{"reference":"Patient/b21edef6-b548-47fc-b399-55188354fbf1"},"period":{"start":"2025-09-28T08:00:00.000+00:00","end":"2025-09-28T08:30:00.000+00:00"}},"request":{"method":"PUT","url":"Encounter/3afd173d-ba58-4010-8820-61bb61797299"}},{"fullUrl":"https://madie.cms.gov/Observation/syphilis-tests-889a","resource":{"resourceType":"Observation","id":"7d75d65e-f2eb-4364-b539-6df9afa9a833","meta":{"profile":["http://hl7.org/fhir/us/qicore/StructureDefinition/qicore-observation"]},"status":"final","category":[{"coding":[{"system":"http://terminology.hl7.org/CodeSystem/observation-category"}]}],"code":{"coding":[{"system":"http://loinc.org","version":"2.73","code":"11084-1","display":"Reagin Ab [Titer] in Serum","userSelected":true}]},"subject":{"reference":"Patient/b21edef6-b548-47fc-b399-55188354fbf1"},"effectiveDateTime":"2025-10-31T08:16:00.000+00:00","issued":"2025-10-31T08:16:00.000+00:00"},"request":{"method":"PUT","url":"Observation/7d75d65e-f2eb-4364-b539-6df9afa9a833"}},{"fullUrl":"https://madie.cms.gov/Observation/gonorrhea-screening-889b","resource":{"resourceType":"Observation","id":"641eceb6-bd5c-4656-85a3-483c29be2f53","meta":{"profile":["http://hl7.org/fhir/us/qicore/StructureDefinition/qicore-observation"]},"status":"final","category":[{"coding":[{"system":"http://terminology.hl7.org/CodeSystem/observation-category"}]}],"code":{"coding":[{"system":"http://loinc.org","version":"2.73","code":"21414-8","display":"Neisseria gonorrhoeae DNA [Presence] in Cervical mucus by NAA with probe detection","userSelected":true}]},"subject":{"reference":"Patient/b21edef6-b548-47fc-b399-55188354fbf1"},"effectiveDateTime":"2023-10-31T08:00:00.000+00:00","issued":"2023-10-31T08:00:00.000+00:00"},"request":{"method":"PUT","url":"Observation/641eceb6-bd5c-4656-85a3-483c29be2f53"}},{"fullUrl":"https://madie.cms.gov/Observation/chlamydia-screening-889c","resource":{"resourceType":"Observation","id":"76752d4f-b7b2-4da4-ac48-82ecc1b86d3f","meta":{"profile":["http://hl7.org/fhir/us/qicore/StructureDefinition/qicore-observation"]},"status":"final","category":[{"coding":[{"system":"http://terminology.hl7.org/CodeSystem/observation-category"}]}],"code":{"coding":[{"system":"http://loinc.org","version":"2.73","code":"14463-4","display":"Chlamydia trachomatis [Presence] in Cervix by Organism specific culture","userSelected":true}]},"subject":{"reference":"Patient/b21edef6-b548-47fc-b399-55188354fbf1"},"effectivePeriod":{"start":"2025-10-31T08:16:00.000+00:00","end":"2025-10-31T08:17:00.000+00:00"},"issued":"2025-10-31T08:16:00.000+00:00"},"request":{"method":"PUT","url":"Observation/76752d4f-b7b2-4da4-ac48-82ecc1b86d3f"}},{"fullUrl":"https://madie.cms.gov/Coverage/1","resource":{"resourceType":"Coverage","id":"216fe81a-d0b0-46c0-9fd1-4301838acdbb","meta":{"profile":["http://hl7.org/fhir/us/qicore/StructureDefinition/qicore-coverage"]},"status":"active","beneficiary":{"reference":"Patient/b21edef6-b548-47fc-b399-55188354fbf1"},"payor":[{"reference":"Organization/880a275e-1cf2-4fb9-869b-f1d2173fdc2b"}]},"request":{"method":"PUT","url":"Coverage/216fe81a-d0b0-46c0-9fd1-4301838acdbb"}},{"fullUrl":"https://madie.cms.gov/Organization/123456","resource":{"resourceType":"Organization","id":"880a275e-1cf2-4fb9-869b-f1d2173fdc2b","meta":{"profile":["http://hl7.org/fhir/us/qicore/StructureDefinition/qicore-organization"]},"identifier":[{"use":"temp","system":"urn:oid:2.16.840.1.113883.4.4","value":"21-3259825"}],"active":true,"type":[{"coding":[{"system":"http://terminology.hl7.org/CodeSystem/organization-type","code":"pay","display":"Payer"}]}],"name":"Blue Cross Blue Shield of Texas","telecom":[{"system":"phone","value":"(+1) 972-766-6900"}],"address":[{"use":"billing","type":"postal","line":["P.O. Box 660044"],"city":"Dallas","state":"TX","postalCode":"75266-0044","country":"USA"}]},"request":{"method":"PUT","url":"Organization/880a275e-1cf2-4fb9-869b-f1d2173fdc2b"}},{"fullUrl":"https://madie.cms.gov/Practitioner/practitioner-123456","resource":{"resourceType":"Practitioner","id":"02c74a9c-47d5-43ef-aae9-a6904e44dcc8","meta":{"profile":["http://hl7.org/fhir/us/qicore/StructureDefinition/qicore-practitioner"]},"identifier":[{"system":"http://hl7.org/fhir/sid/us-npi","value":"123456"}],"name":[{"family":"Evil","prefix":["Dr"]}]},"request":{"method":"PUT","url":"Practitioner/02c74a9c-47d5-43ef-aae9-a6904e44dcc8"}},{"fullUrl":"https://madie.cms.gov/MeasureReport/13a5a21b-7194-465b-a550-21d7289c7064","resource":{"resourceType":"MeasureReport","id":"13a5a21b-7194-465b-a550-21d7289c7064","meta":{"profile":["http://hl7.org/fhir/us/cqfmeasures/StructureDefinition/test-case-cqfm"]},"contained":[{"resourceType":"Parameters","id":"07b85ffd-57dc-4604-a219-0c2da56edfa2-parameters","parameter":[{"name":"subject","valueString":"b21edef6-b548-47fc-b399-55188354fbf1"}]}],"extension":[{"url":"http://hl7.org/fhir/us/cqfmeasures/StructureDefinition/cqfm-inputParameters","valueReference":{"reference":"#07b85ffd-57dc-4604-a219-0c2da56edfa2-parameters"}},{"url":"http://hl7.org/fhir/us/cqfmeasures/StructureDefinition/cqfm-testCaseDescription","valueMarkdown":"Patient is over 13 years old with an encounter - 1 STI screen before MP, 2 STI screen during MP"}],"modifierExtension":[{"url":"http://hl7.org/fhir/us/cqfmeasures/StructureDefinition/cqfm-isTestCase","valueBoolean":true}],"status":"complete","type":"individual","measure":"https://madie.cms.gov/Measure/HIVSTITestingFHIR","period":{"start":"2025-01-01","end":"2025-12-31"},"group":[{"population":[{"code":{"coding":[{"system":"http://terminology.hl7.org/CodeSystem/measure-population","code":"initial-population","display":"Initial Population"}]},"count":1},{"code":{"coding":[{"system":"http://terminology.hl7.org/CodeSystem/measure-population","code":"denominator","display":"Denominator"}]},"count":1},{"code":{"coding":[{"system":"http://terminology.hl7.org/CodeSystem/measure-population","code":"numerator","display":"Numerator"}]},"count":0}]}]},"request":{"method":"PUT","url":"MeasureReport/13a5a21b-7194-465b-a550-21d7289c7064"}}]}