{"resourceType":"Bundle","id":"tests-8002d0cb-c4c0-4f54-96b0-c0e701947c07-bundle","type":"transaction","entry":[{"fullUrl":"https://madie.cms.gov/Patient/8002d0cb-c4c0-4f54-96b0-c0e701947c07","resource":{"resourceType":"Patient","id":"8002d0cb-c4c0-4f54-96b0-c0e701947c07","meta":{"profile":["http://hl7.org/fhir/us/qicore/StructureDefinition/qicore-patient"]},"extension":[{"url":"http://hl7.org/fhir/us/core/StructureDefinition/us-core-race","extension":[{"url":"ombCategory","valueCoding":{"system":"urn:oid:2.16.840.1.113883.6.238","code":"2054-5","display":"Black or African American","userSelected":true}},{"url":"text","valueString":"Black or African American"}]},{"url":"http://hl7.org/fhir/us/core/StructureDefinition/us-core-ethnicity","extension":[{"url":"ombCategory","valueCoding":{"system":"urn:oid:2.16.840.1.113883.6.238","code":"2186-5","display":"Not Hispanic or Latino","userSelected":true}},{"url":"text","valueString":"Not Hispanic or Latino"}]}],"identifier":[{"type":{"coding":[{"system":"http://terminology.hl7.org/CodeSystem/v2-0203","code":"MR"}]},"system":"https://bonnie-fhir.healthit.gov/","value":"649f3586ee658463ed0fd36a"}],"name":[{"family":"NUMFail","given":["2LabBeforeMP1LabDuringMP"]}],"gender":"female","birthDate":"2000-02-04"},"request":{"method":"PUT","url":"Patient/8002d0cb-c4c0-4f54-96b0-c0e701947c07"}},{"fullUrl":"https://madie.cms.gov/Condition/hiv-d36b","resource":{"resourceType":"Condition","id":"f05e2bfd-d1a6-4ceb-a02f-2f16defb0e09","meta":{"profile":["http://hl7.org/fhir/us/qicore/StructureDefinition/qicore-condition"]},"clinicalStatus":{"coding":[{"system":"http://terminology.hl7.org/CodeSystem/condition-clinical","code":"active","display":"active","userSelected":true}]},"category":[{"coding":[{"system":"http://terminology.hl7.org/CodeSystem/condition-category","code":"problem-list-item","display":"Problem List Item"}]}],"code":{"coding":[{"system":"http://hl7.org/fhir/sid/icd-9-cm","version":"2013","code":"042","display":"Human immunodeficiency virus [HIV] disease","userSelected":true},{"system":"http://snomed.info/sct","code":"165816005","userSelected":true}]},"subject":{"reference":"Patient/8002d0cb-c4c0-4f54-96b0-c0e701947c07"},"onsetDateTime":"2017-09-28T08:00:00.000+00:00","recordedDate":"2017-09-28T08:00:00.000+00:00"},"request":{"method":"PUT","url":"Condition/f05e2bfd-d1a6-4ceb-a02f-2f16defb0e09"}},{"fullUrl":"https://madie.cms.gov/Encounter/preventive-care-established-office-visit-0-to-17-78c9","resource":{"resourceType":"Encounter","id":"03fd61ab-45c6-4ece-9eb0-6c9d58c2bcce","meta":{"profile":["http://hl7.org/fhir/us/qicore/StructureDefinition/qicore-encounter"]},"status":"finished","class":{"system":"http://terminology.hl7.org/CodeSystem/v3-ActCode","code":"AMB","display":"ambulatory"},"type":[{"coding":[{"system":"http://www.ama-assn.org/go/cpt","version":"2023","code":"99391","display":"Periodic comprehensive preventive medicine reevaluation and management of an individual including an age and gender appropriate history, examination, counseling/anticipatory guidance/risk factor reduction interventions, and the ordering of laboratory/diagnostic procedures, established patient; infant (age younger than 1 year)","userSelected":true}]}],"subject":{"reference":"Patient/8002d0cb-c4c0-4f54-96b0-c0e701947c07"},"period":{"start":"2025-10-31T08:00:00.000+00:00","end":"2025-10-31T08:15:00.000+00:00"}},"request":{"method":"PUT","url":"Encounter/03fd61ab-45c6-4ece-9eb0-6c9d58c2bcce"}},{"fullUrl":"https://madie.cms.gov/Observation/syphilis-tests-d36d","resource":{"resourceType":"Observation","id":"0d223248-1391-46ae-9016-e55a289277ab","meta":{"profile":["http://hl7.org/fhir/us/qicore/StructureDefinition/qicore-observation"]},"status":"final","category":[{"coding":[{"system":"http://terminology.hl7.org/CodeSystem/observation-category"}]}],"code":{"coding":[{"system":"http://loinc.org","version":"2.73","code":"11084-1","display":"Reagin Ab [Titer] in Serum","userSelected":true}]},"subject":{"reference":"Patient/8002d0cb-c4c0-4f54-96b0-c0e701947c07"},"effectiveDateTime":"2023-10-31T08:16:00.000+00:00","issued":"2023-10-31T08:16:00.000+00:00"},"request":{"method":"PUT","url":"Observation/0d223248-1391-46ae-9016-e55a289277ab"}},{"fullUrl":"https://madie.cms.gov/Observation/gonorrhea-screening-d36e","resource":{"resourceType":"Observation","id":"8eec38ec-aa0f-43d7-83c4-4b80d7b6b353","meta":{"profile":["http://hl7.org/fhir/us/qicore/StructureDefinition/qicore-observation"]},"status":"final","category":[{"coding":[{"system":"http://terminology.hl7.org/CodeSystem/observation-category"}]}],"code":{"coding":[{"system":"http://loinc.org","version":"2.73","code":"21414-8","display":"Neisseria gonorrhoeae DNA [Presence] in Cervical mucus by NAA with probe detection","userSelected":true}]},"subject":{"reference":"Patient/8002d0cb-c4c0-4f54-96b0-c0e701947c07"},"effectiveDateTime":"2023-10-31T08:00:00.000+00:00","issued":"2023-10-31T08:00:00.000+00:00"},"request":{"method":"PUT","url":"Observation/8eec38ec-aa0f-43d7-83c4-4b80d7b6b353"}},{"fullUrl":"https://madie.cms.gov/Observation/chlamydia-screening-d36f","resource":{"resourceType":"Observation","id":"1d10915b-8037-4373-83f9-82e33b0ae3e7","meta":{"profile":["http://hl7.org/fhir/us/qicore/StructureDefinition/qicore-observation"]},"status":"final","category":[{"coding":[{"system":"http://terminology.hl7.org/CodeSystem/observation-category"}]}],"code":{"coding":[{"system":"http://loinc.org","version":"2.73","code":"14463-4","display":"Chlamydia trachomatis [Presence] in Cervix by Organism specific culture","userSelected":true}]},"subject":{"reference":"Patient/8002d0cb-c4c0-4f54-96b0-c0e701947c07"},"effectivePeriod":{"start":"2025-10-31T08:16:00.000+00:00","end":"2025-10-31T08:17:00.000+00:00"},"issued":"2025-10-31T08:16:00.000+00:00"},"request":{"method":"PUT","url":"Observation/1d10915b-8037-4373-83f9-82e33b0ae3e7"}},{"fullUrl":"https://madie.cms.gov/Coverage/1","resource":{"resourceType":"Coverage","id":"cd7c1520-97db-48d1-b064-7f5f58460e6d","meta":{"profile":["http://hl7.org/fhir/us/qicore/StructureDefinition/qicore-coverage"]},"status":"active","beneficiary":{"reference":"Patient/8002d0cb-c4c0-4f54-96b0-c0e701947c07"},"payor":[{"reference":"Organization/e75793c9-fdf6-463a-8c1d-4ee44320dc25"}]},"request":{"method":"PUT","url":"Coverage/cd7c1520-97db-48d1-b064-7f5f58460e6d"}},{"fullUrl":"https://madie.cms.gov/Organization/123456","resource":{"resourceType":"Organization","id":"e75793c9-fdf6-463a-8c1d-4ee44320dc25","meta":{"profile":["http://hl7.org/fhir/us/qicore/StructureDefinition/qicore-organization"]},"identifier":[{"use":"temp","system":"urn:oid:2.16.840.1.113883.4.4","value":"21-3259825"}],"active":true,"type":[{"coding":[{"system":"http://terminology.hl7.org/CodeSystem/organization-type","code":"pay","display":"Payer"}]}],"name":"Blue Cross Blue Shield of Texas","telecom":[{"system":"phone","value":"(+1) 972-766-6900"}],"address":[{"use":"billing","type":"postal","line":["P.O. Box 660044"],"city":"Dallas","state":"TX","postalCode":"75266-0044","country":"USA"}]},"request":{"method":"PUT","url":"Organization/e75793c9-fdf6-463a-8c1d-4ee44320dc25"}},{"fullUrl":"https://madie.cms.gov/Practitioner/practitioner-123456","resource":{"resourceType":"Practitioner","id":"823d7f9c-0436-4810-993b-2ebacf1c7f83","meta":{"profile":["http://hl7.org/fhir/us/qicore/StructureDefinition/qicore-practitioner"]},"identifier":[{"system":"http://hl7.org/fhir/sid/us-npi","value":"123456"}],"name":[{"family":"Evil","prefix":["Dr"]}]},"request":{"method":"PUT","url":"Practitioner/823d7f9c-0436-4810-993b-2ebacf1c7f83"}},{"fullUrl":"https://madie.cms.gov/MeasureReport/67ff4bab-e9ad-42f9-9c65-77ab38b0ba63","resource":{"resourceType":"MeasureReport","id":"67ff4bab-e9ad-42f9-9c65-77ab38b0ba63","meta":{"profile":["http://hl7.org/fhir/us/cqfmeasures/StructureDefinition/test-case-cqfm"]},"contained":[{"resourceType":"Parameters","id":"2ca7bcfa-dffb-4d84-89cc-6a959b8d7aea-parameters","parameter":[{"name":"subject","valueString":"8002d0cb-c4c0-4f54-96b0-c0e701947c07"}]}],"extension":[{"url":"http://hl7.org/fhir/us/cqfmeasures/StructureDefinition/cqfm-inputParameters","valueReference":{"reference":"#2ca7bcfa-dffb-4d84-89cc-6a959b8d7aea-parameters"}},{"url":"http://hl7.org/fhir/us/cqfmeasures/StructureDefinition/cqfm-testCaseDescription","valueMarkdown":"Patient is over 13 years old with an encounter - 2 STI screen before MP, 1 STI screen during MP"}],"modifierExtension":[{"url":"http://hl7.org/fhir/us/cqfmeasures/StructureDefinition/cqfm-isTestCase","valueBoolean":true}],"status":"complete","type":"individual","measure":"https://madie.cms.gov/Measure/HIVSTITestingFHIR","period":{"start":"2025-01-01","end":"2025-12-31"},"group":[{"population":[{"code":{"coding":[{"system":"http://terminology.hl7.org/CodeSystem/measure-population","code":"initial-population","display":"Initial Population"}]},"count":1},{"code":{"coding":[{"system":"http://terminology.hl7.org/CodeSystem/measure-population","code":"denominator","display":"Denominator"}]},"count":1},{"code":{"coding":[{"system":"http://terminology.hl7.org/CodeSystem/measure-population","code":"numerator","display":"Numerator"}]},"count":0}]}]},"request":{"method":"PUT","url":"MeasureReport/67ff4bab-e9ad-42f9-9c65-77ab38b0ba63"}}]}