{"resourceType":"Bundle","id":"tests-66c60f6c-2a7b-4868-b9bd-5ede60b61463-bundle","type":"transaction","entry":[{"fullUrl":"https://madie.cms.gov/Patient/66c60f6c-2a7b-4868-b9bd-5ede60b61463","resource":{"resourceType":"Patient","id":"66c60f6c-2a7b-4868-b9bd-5ede60b61463","meta":{"profile":["http://hl7.org/fhir/us/qicore/StructureDefinition/qicore-patient"]},"text":{"status":"generated","div":"<div xmlns=\"http://www.w3.org/1999/xhtml\"><div class=\"hapiHeaderText\">PainAssessAfterRadTx<b>NUMERFailPop2</b></div><table class=\"hapiPropertyTable\"><tbody><tr><td>Identifier</td><td>108ca9ccb4a98e1577b2d9bbb79712df</td></tr><tr><td>Date of birth</td><td><span>12 April 1941</span></td></tr></tbody></table></div>"},"extension":[{"url":"http://hl7.org/fhir/us/core/StructureDefinition/us-core-race","extension":[{"url":"ombCategory","valueCoding":{"system":"urn:oid:2.16.840.1.113883.6.238","code":"1002-5","display":"American Indian or Alaska Native","userSelected":true}},{"url":"text","valueString":"American Indian or Alaska Native"}]},{"url":"http://hl7.org/fhir/us/core/StructureDefinition/us-core-ethnicity","extension":[{"url":"ombCategory","valueCoding":{"system":"urn:oid:2.16.840.1.113883.6.238","code":"2135-2","display":"Hispanic or Latino","userSelected":true}},{"url":"text","valueString":"Hispanic or Latino"}]}],"identifier":[{"type":{"coding":[{"system":"http://terminology.hl7.org/CodeSystem/v2-0203","code":"MR"}]},"system":"https://bonnie-fhir.healthit.gov/","value":"62c880ed0111a60120dc221d"}],"active":true,"name":[{"use":"usual","family":"NUMERFailPop2","given":["PainAssessAfterRadTx"]}],"gender":"male","birthDate":"1941-04-12"},"request":{"method":"PUT","url":"Patient/66c60f6c-2a7b-4868-b9bd-5ede60b61463"}},{"fullUrl":"https://madie.cms.gov/Observation/5e41c5eaa9c22a0000b32a85","resource":{"resourceType":"Observation","id":"63edf0ed-cabd-477b-850b-2ec0c45dcd05","meta":{"profile":["http://hl7.org/fhir/us/qicore/StructureDefinition/qicore-observation"]},"status":"final","category":[{"coding":[{"system":"http://terminology.hl7.org/CodeSystem/observation-category","code":"survey","display":"Survey"}],"text":"Survey"}],"code":{"coding":[{"system":"http://loinc.org","code":"38208-5","display":"Pain severity - Reported"}],"text":"Pain severity - Reported"},"subject":{"reference":"Patient/66c60f6c-2a7b-4868-b9bd-5ede60b61463"},"effectiveDateTime":"2025-03-10T08:00:00.000Z","valueInteger":7},"request":{"method":"PUT","url":"Observation/63edf0ed-cabd-477b-850b-2ec0c45dcd05"}},{"fullUrl":"https://madie.cms.gov/Condition/5ca52609b8484613a555a944","resource":{"resourceType":"Condition","id":"8873d98f-543b-4f43-8b3e-13b47b854b41","meta":{"profile":["http://hl7.org/fhir/us/qicore/StructureDefinition/qicore-condition"]},"clinicalStatus":{"coding":[{"system":"http://terminology.hl7.org/CodeSystem/condition-clinical","code":"active","display":"Active","userSelected":true}]},"verificationStatus":{"coding":[{"system":"http://terminology.hl7.org/CodeSystem/condition-ver-status","code":"confirmed","display":"Confirmed"}]},"category":[{"coding":[{"system":"http://terminology.hl7.org/CodeSystem/condition-category","code":"problem-list-item","display":"Problem List Item"}]}],"code":{"coding":[{"system":"http://hl7.org/fhir/sid/icd-10-cm","code":"C00.0"}]},"subject":{"reference":"Patient/66c60f6c-2a7b-4868-b9bd-5ede60b61463"},"onsetDateTime":"2022-06-01T14:00:00.000Z"},"request":{"method":"PUT","url":"Condition/8873d98f-543b-4f43-8b3e-13b47b854b41"}},{"fullUrl":"https://madie.cms.gov/Coverage/60099ac71c76ba64612b064f","resource":{"resourceType":"Coverage","id":"7e718569-6e67-4a78-b4a1-d9b6026f1541","meta":{"profile":["http://hl7.org/fhir/us/qicore/StructureDefinition/qicore-coverage"]},"status":"active","beneficiary":{"reference":"Patient/66c60f6c-2a7b-4868-b9bd-5ede60b61463"},"period":{"start":"1941-04-12T08:00:00.000Z"},"payor":[{"reference":"Organization/4d7da20f-8773-4347-8f6b-80adcdcee1f4"}]},"request":{"method":"PUT","url":"Coverage/7e718569-6e67-4a78-b4a1-d9b6026f1541"}},{"fullUrl":"https://madie.cms.gov/Encounter/radiation-treatment-management-1893","resource":{"resourceType":"Encounter","id":"c665c025-70b5-43b2-a1ec-db56afde5bf7","meta":{"profile":["http://hl7.org/fhir/us/qicore/StructureDefinition/qicore-encounter"]},"status":"finished","class":{"system":"http://terminology.hl7.org/CodeSystem/v3-ActCode","code":"AMB","display":"ambulatory","userSelected":true},"type":[{"coding":[{"system":"http://snomed.info/sct","code":"84755001","userSelected":true}]}],"subject":{"reference":"Patient/66c60f6c-2a7b-4868-b9bd-5ede60b61463"},"period":{"start":"2025-02-01T14:00:00.000+00:00","end":"2025-02-01T14:15:00.000+00:00"}},"request":{"method":"PUT","url":"Encounter/c665c025-70b5-43b2-a1ec-db56afde5bf7"}},{"fullUrl":"https://madie.cms.gov/Organization/123456","resource":{"resourceType":"Organization","id":"4d7da20f-8773-4347-8f6b-80adcdcee1f4","meta":{"profile":["http://hl7.org/fhir/us/qicore/StructureDefinition/qicore-organization"]},"identifier":[{"use":"temp","system":"urn:oid:2.16.840.1.113883.4.4","value":"21-3259825"}],"active":true,"type":[{"coding":[{"system":"http://terminology.hl7.org/CodeSystem/organization-type","code":"pay","display":"Payer"}]}],"name":"Blue Cross Blue Shield of Texas","telecom":[{"system":"phone","value":"(+1) 972-766-6900"}],"address":[{"use":"billing","type":"postal","line":["P.O. Box 660044"],"city":"Dallas","state":"TX","postalCode":"75266-0044","country":"USA"}]},"request":{"method":"PUT","url":"Organization/4d7da20f-8773-4347-8f6b-80adcdcee1f4"}},{"fullUrl":"https://madie.cms.gov/Practitioner/practitioner-123456","resource":{"resourceType":"Practitioner","id":"b3f49c68-00e7-4a7c-a338-8997df441db7","meta":{"profile":["http://hl7.org/fhir/us/qicore/StructureDefinition/qicore-practitioner"]},"identifier":[{"system":"http://hl7.org/fhir/sid/us-npi","value":"123456"}],"name":[{"family":"Evil","prefix":["Dr"]}]},"request":{"method":"PUT","url":"Practitioner/b3f49c68-00e7-4a7c-a338-8997df441db7"}},{"fullUrl":"https://madie.cms.gov/MeasureReport/663b6159-5eb4-45f3-944e-e6c7e3e10616","resource":{"resourceType":"MeasureReport","id":"663b6159-5eb4-45f3-944e-e6c7e3e10616","meta":{"profile":["http://hl7.org/fhir/us/cqfmeasures/StructureDefinition/test-case-cqfm"]},"contained":[{"resourceType":"Parameters","id":"e4ffcafb-03ae-41fd-ba74-0ec0b3a59ad3-parameters","parameter":[{"name":"subject","valueString":"66c60f6c-2a7b-4868-b9bd-5ede60b61463"}]}],"extension":[{"url":"http://hl7.org/fhir/us/cqfmeasures/StructureDefinition/cqfm-inputParameters","valueReference":{"reference":"#e4ffcafb-03ae-41fd-ba74-0ec0b3a59ad3-parameters"}},{"url":"http://hl7.org/fhir/us/cqfmeasures/StructureDefinition/cqfm-testCaseDescription","valueMarkdown":"Patient with cancer diagnosis that overlaps radiation treatment management during measurement period. Pain intensity assessment was performed after radiation treatment management encounter."}],"modifierExtension":[{"url":"http://hl7.org/fhir/us/cqfmeasures/StructureDefinition/cqfm-isTestCase","valueBoolean":true}],"status":"complete","type":"individual","measure":"https://madie.cms.gov/Measure/OncologyPainIntensityQuantifiedFHIR","period":{"start":"2025-01-01","end":"2025-12-31"},"group":[{"population":[{"code":{"coding":[{"system":"http://terminology.hl7.org/CodeSystem/measure-population","code":"initial-population","display":"Initial Population"}]},"count":0},{"code":{"coding":[{"system":"http://terminology.hl7.org/CodeSystem/measure-population","code":"denominator","display":"Denominator"}]},"count":0},{"code":{"coding":[{"system":"http://terminology.hl7.org/CodeSystem/measure-population","code":"numerator","display":"Numerator"}]},"count":0}]},{"population":[{"code":{"coding":[{"system":"http://terminology.hl7.org/CodeSystem/measure-population","code":"initial-population","display":"Initial Population"}]},"count":1},{"code":{"coding":[{"system":"http://terminology.hl7.org/CodeSystem/measure-population","code":"denominator","display":"Denominator"}]},"count":1},{"code":{"coding":[{"system":"http://terminology.hl7.org/CodeSystem/measure-population","code":"numerator","display":"Numerator"}]},"count":0}]}]},"request":{"method":"PUT","url":"MeasureReport/663b6159-5eb4-45f3-944e-e6c7e3e10616"}}]}