{"resourceType":"Bundle","id":"tests-b0729673-76ed-4c08-ae06-acd214ad203d-bundle","type":"transaction","entry":[{"fullUrl":"https://madie.cms.gov/Patient/b0729673-76ed-4c08-ae06-acd214ad203d","resource":{"resourceType":"Patient","id":"b0729673-76ed-4c08-ae06-acd214ad203d","meta":{"profile":["http://hl7.org/fhir/us/qicore/StructureDefinition/qicore-patient"]},"text":{"status":"generated","div":"<div xmlns=\"http://www.w3.org/1999/xhtml\"><div class=\"hapiHeaderText\">PainAssessDuringEnc<b>NUMERPassPop1</b></div><table class=\"hapiPropertyTable\"><tbody><tr><td>Date of birth</td><td><span>18 February 1970</span></td></tr></tbody></table></div>"},"extension":[{"url":"http://hl7.org/fhir/us/core/StructureDefinition/us-core-race","extension":[{"url":"ombCategory","valueCoding":{"system":"urn:oid:2.16.840.1.113883.6.238","code":"1002-5","display":"American Indian or Alaska Native","userSelected":true}},{"url":"text","valueString":"American Indian or Alaska Native"}]},{"url":"http://hl7.org/fhir/us/core/StructureDefinition/us-core-ethnicity","extension":[{"url":"ombCategory","valueCoding":{"system":"urn:oid:2.16.840.1.113883.6.238","code":"2135-2","display":"Hispanic or Latino","userSelected":true}},{"url":"text","valueString":"Hispanic or Latino"}]}],"identifier":[{"type":{"coding":[{"system":"http://terminology.hl7.org/CodeSystem/v2-0203","code":"MR"}]},"system":"https://bonnie-fhir.healthit.gov/","value":"62c880eb0111a60120dc21eb"}],"active":true,"name":[{"use":"usual","family":"NUMERPassPop1","given":["PainAssessDuringEnc"]}],"gender":"female","birthDate":"1970-02-18"},"request":{"method":"PUT","url":"Patient/b0729673-76ed-4c08-ae06-acd214ad203d"}},{"fullUrl":"https://madie.cms.gov/Condition/602703030df1fb00002a24b1","resource":{"resourceType":"Condition","id":"e68fed00-aaaa-4273-a3b2-746a9472eb56","meta":{"profile":["http://hl7.org/fhir/us/qicore/StructureDefinition/qicore-condition"]},"clinicalStatus":{"coding":[{"system":"http://terminology.hl7.org/CodeSystem/condition-clinical","code":"active","display":"active","userSelected":true}]},"verificationStatus":{"coding":[{"system":"http://terminology.hl7.org/CodeSystem/condition-ver-status","code":"confirmed","display":"Confirmed"}]},"category":[{"coding":[{"system":"http://terminology.hl7.org/CodeSystem/condition-category","code":"encounter-diagnosis","display":"Encounter Diagnosis"},{"system":"http://terminology.hl7.org/CodeSystem/condition-category","code":"problem-list-item","display":"Problem List Item"}]}],"code":{"coding":[{"system":"http://snomed.info/sct","code":"107691000119101"},{"system":"http://hl7.org/fhir/sid/icd-10-cm","code":"C48.0"}]},"subject":{"reference":"Patient/b0729673-76ed-4c08-ae06-acd214ad203d"},"onsetDateTime":"2023-11-01T08:00:00.000Z"},"request":{"method":"PUT","url":"Condition/e68fed00-aaaa-4273-a3b2-746a9472eb56"}},{"fullUrl":"https://madie.cms.gov/Encounter/6027038b0df1fb00002a252b","resource":{"resourceType":"Encounter","id":"cf8c0ffb-9081-4e85-ac5b-c4453003d825","meta":{"profile":["http://hl7.org/fhir/us/qicore/StructureDefinition/qicore-encounter"]},"status":"finished","class":{"system":"http://terminology.hl7.org/CodeSystem/v3-ActCode","code":"AMB","display":"ambulatory","userSelected":true},"type":[{"coding":[{"system":"http://snomed.info/sct","code":"185463005"}]}],"subject":{"reference":"Patient/b0729673-76ed-4c08-ae06-acd214ad203d"},"period":{"start":"2025-01-30T08:00:00.000Z","end":"2025-01-30T08:15:00.000Z"}},"request":{"method":"PUT","url":"Encounter/cf8c0ffb-9081-4e85-ac5b-c4453003d825"}},{"fullUrl":"https://madie.cms.gov/Encounter/602703cf0df1fb00002a25b9","resource":{"resourceType":"Encounter","id":"8310ed96-5f68-4eb6-a609-69c5471c9c82","meta":{"profile":["http://hl7.org/fhir/us/qicore/StructureDefinition/qicore-encounter"]},"status":"finished","class":{"system":"http://terminology.hl7.org/CodeSystem/v3-ActCode","code":"AMB","display":"ambulatory","userSelected":true},"type":[{"coding":[{"system":"http://snomed.info/sct","code":"185463005"}]}],"subject":{"reference":"Patient/b0729673-76ed-4c08-ae06-acd214ad203d"},"period":{"start":"2025-03-03T13:30:00.000Z","end":"2025-03-03T14:30:00.000Z"}},"request":{"method":"PUT","url":"Encounter/8310ed96-5f68-4eb6-a609-69c5471c9c82"}},{"fullUrl":"https://madie.cms.gov/Encounter/602703cf0df1fb00002a25c9","resource":{"resourceType":"Encounter","id":"763b5dbc-381a-4fc2-bb0c-971ed21d05ef","meta":{"profile":["http://hl7.org/fhir/us/qicore/StructureDefinition/qicore-encounter"]},"status":"finished","class":{"system":"http://terminology.hl7.org/CodeSystem/v3-ActCode","code":"AMB","display":"ambulatory","userSelected":true},"type":[{"coding":[{"system":"http://snomed.info/sct","code":"185463005"}]}],"subject":{"reference":"Patient/b0729673-76ed-4c08-ae06-acd214ad203d"},"period":{"start":"2025-05-30T08:00:00.000Z","end":"2025-05-30T08:15:00.000Z"}},"request":{"method":"PUT","url":"Encounter/763b5dbc-381a-4fc2-bb0c-971ed21d05ef"}},{"fullUrl":"https://madie.cms.gov/Encounter/602703cf0df1fb00002a25d9","resource":{"resourceType":"Encounter","id":"5fc3275c-4d9c-494d-aa76-7c4c624ee1f1","meta":{"profile":["http://hl7.org/fhir/us/qicore/StructureDefinition/qicore-encounter"]},"status":"finished","class":{"system":"http://terminology.hl7.org/CodeSystem/v3-ActCode","code":"AMB","display":"ambulatory","userSelected":true},"type":[{"coding":[{"system":"http://snomed.info/sct","code":"185463005"}]}],"subject":{"reference":"Patient/b0729673-76ed-4c08-ae06-acd214ad203d"},"period":{"start":"2025-07-03T08:00:00.000Z","end":"2025-07-03T08:15:00.000Z"}},"request":{"method":"PUT","url":"Encounter/5fc3275c-4d9c-494d-aa76-7c4c624ee1f1"}},{"fullUrl":"https://madie.cms.gov/Coverage/61043692a2f9161878c53ab1","resource":{"resourceType":"Coverage","id":"df98eca1-f385-406a-a0ea-8191f0b52020","meta":{"profile":["http://hl7.org/fhir/us/qicore/StructureDefinition/qicore-coverage"]},"status":"active","beneficiary":{"reference":"Patient/b0729673-76ed-4c08-ae06-acd214ad203d"},"period":{"start":"1970-02-18T08:00:00.000Z"},"payor":[{"reference":"Organization/f4907415-83c5-4eae-ab0b-cb63a840880d"}]},"request":{"method":"PUT","url":"Coverage/df98eca1-f385-406a-a0ea-8191f0b52020"}},{"fullUrl":"https://madie.cms.gov/Procedure/602703ac0df1fb00002a2563","resource":{"resourceType":"Procedure","id":"628d55b5-3cf6-4580-9d02-7ecefe8fe4d9","meta":{"profile":["http://hl7.org/fhir/us/qicore/StructureDefinition/qicore-procedure"]},"extension":[{"url":"http://hl7.org/fhir/us/qicore/StructureDefinition/qicore-recorded","valueDateTime":"2025-02-27T12:35:00.000Z"}],"status":"completed","code":{"coding":[{"system":"http://snomed.info/sct","code":"169396008"}]},"subject":{"reference":"Patient/b0729673-76ed-4c08-ae06-acd214ad203d"},"performedPeriod":{"start":"2025-02-27T08:00:00.000Z","end":"2025-02-27T08:15:00.000Z"}},"request":{"method":"PUT","url":"Procedure/628d55b5-3cf6-4580-9d02-7ecefe8fe4d9"}},{"fullUrl":"https://madie.cms.gov/Procedure/602703ba0df1fb00002a257b","resource":{"resourceType":"Procedure","id":"c1728fed-f2f8-400e-8813-d2429c5781ee","meta":{"profile":["http://hl7.org/fhir/us/qicore/StructureDefinition/qicore-procedure"]},"extension":[{"url":"http://hl7.org/fhir/us/qicore/StructureDefinition/qicore-recorded","valueDateTime":"2025-04-01T12:35:00.000Z"}],"status":"completed","code":{"coding":[{"system":"http://snomed.info/sct","code":"169396008"}]},"subject":{"reference":"Patient/b0729673-76ed-4c08-ae06-acd214ad203d"},"performedPeriod":{"start":"2025-04-01T08:00:00.000Z","end":"2025-04-01T08:15:00.000Z"}},"request":{"method":"PUT","url":"Procedure/c1728fed-f2f8-400e-8813-d2429c5781ee"}},{"fullUrl":"https://madie.cms.gov/Procedure/602703e10df1fb00002a25e2","resource":{"resourceType":"Procedure","id":"76fb904c-700a-4cc7-9455-2f174712965e","meta":{"profile":["http://hl7.org/fhir/us/qicore/StructureDefinition/qicore-procedure"]},"extension":[{"url":"http://hl7.org/fhir/us/qicore/StructureDefinition/qicore-recorded","valueDateTime":"2025-06-04T12:35:00.000Z"}],"status":"completed","code":{"coding":[{"system":"http://snomed.info/sct","code":"169396008"}]},"subject":{"reference":"Patient/b0729673-76ed-4c08-ae06-acd214ad203d"},"performedPeriod":{"start":"2025-06-04T08:00:00.000Z","end":"2025-06-04T08:15:00.000Z"}},"request":{"method":"PUT","url":"Procedure/76fb904c-700a-4cc7-9455-2f174712965e"}},{"fullUrl":"https://madie.cms.gov/Observation/5ca5260bb8484613a555a963","resource":{"resourceType":"Observation","id":"908777e3-5ac9-4d22-b62d-5356d8a6d4be","meta":{"profile":["http://hl7.org/fhir/us/qicore/StructureDefinition/qicore-observation"]},"status":"final","category":[{"coding":[{"system":"http://terminology.hl7.org/CodeSystem/observation-category","code":"survey","display":"Survey"}],"text":"Survey"}],"code":{"coding":[{"system":"http://loinc.org","code":"38208-5","display":"Pain severity - Reported"}],"text":"Pain severity - Reported"},"subject":{"reference":"Patient/b0729673-76ed-4c08-ae06-acd214ad203d"},"effectiveDateTime":"2025-03-03T14:00:00.000Z","valueInteger":10},"request":{"method":"PUT","url":"Observation/908777e3-5ac9-4d22-b62d-5356d8a6d4be"}},{"fullUrl":"https://madie.cms.gov/Observation/5ca5260bb8484613a555a964","resource":{"resourceType":"Observation","id":"caa0173c-725e-4b99-a072-ab29f45c4366","meta":{"profile":["http://hl7.org/fhir/us/qicore/StructureDefinition/qicore-observation"]},"status":"final","category":[{"coding":[{"system":"http://terminology.hl7.org/CodeSystem/observation-category","code":"survey","display":"Survey"}],"text":"Survey"}],"code":{"coding":[{"system":"http://loinc.org","code":"38208-5","display":"Pain severity - Reported"}],"text":"Pain severity - Reported"},"subject":{"reference":"Patient/b0729673-76ed-4c08-ae06-acd214ad203d"},"effectiveDateTime":"2025-05-22T08:00:00.000Z"},"request":{"method":"PUT","url":"Observation/caa0173c-725e-4b99-a072-ab29f45c4366"}},{"fullUrl":"https://madie.cms.gov/Observation/5ca5260bb8484613a555a965","resource":{"resourceType":"Observation","id":"ee3e98a8-34c0-47f1-a91c-2d2f61e51a8c","meta":{"profile":["http://hl7.org/fhir/us/qicore/StructureDefinition/qicore-observation"]},"status":"final","category":[{"coding":[{"system":"http://terminology.hl7.org/CodeSystem/observation-category","code":"survey","display":"Survey"}],"text":"Survey"}],"code":{"coding":[{"system":"http://loinc.org","code":"38208-5","display":"Pain severity - Reported"}],"text":"Pain severity - Reported"},"subject":{"reference":"Patient/b0729673-76ed-4c08-ae06-acd214ad203d"},"effectiveDateTime":"2025-06-01T11:30:00.000Z"},"request":{"method":"PUT","url":"Observation/ee3e98a8-34c0-47f1-a91c-2d2f61e51a8c"}},{"fullUrl":"https://madie.cms.gov/Organization/123456","resource":{"resourceType":"Organization","id":"f4907415-83c5-4eae-ab0b-cb63a840880d","meta":{"profile":["http://hl7.org/fhir/us/qicore/StructureDefinition/qicore-organization"]},"identifier":[{"use":"temp","system":"urn:oid:2.16.840.1.113883.4.4","value":"21-3259825"}],"active":true,"type":[{"coding":[{"system":"http://terminology.hl7.org/CodeSystem/organization-type","code":"pay","display":"Payer"}]}],"name":"Blue Cross Blue Shield of Texas","telecom":[{"system":"phone","value":"(+1) 972-766-6900"}],"address":[{"use":"billing","type":"postal","line":["P.O. Box 660044"],"city":"Dallas","state":"TX","postalCode":"75266-0044","country":"USA"}]},"request":{"method":"PUT","url":"Organization/f4907415-83c5-4eae-ab0b-cb63a840880d"}},{"fullUrl":"https://madie.cms.gov/MeasureReport/db05e022-9fea-4ec1-a2eb-cd9bb0587a56","resource":{"resourceType":"MeasureReport","id":"db05e022-9fea-4ec1-a2eb-cd9bb0587a56","meta":{"profile":["http://hl7.org/fhir/us/cqfmeasures/StructureDefinition/test-case-cqfm"]},"contained":[{"resourceType":"Parameters","id":"72452a3f-fcf3-4736-8438-292dc8c7c7ae-parameters","parameter":[{"name":"subject","valueString":"b0729673-76ed-4c08-ae06-acd214ad203d"}]}],"extension":[{"url":"http://hl7.org/fhir/us/cqfmeasures/StructureDefinition/cqfm-inputParameters","valueReference":{"reference":"#72452a3f-fcf3-4736-8438-292dc8c7c7ae-parameters"}},{"url":"http://hl7.org/fhir/us/cqfmeasures/StructureDefinition/cqfm-testCaseDescription","valueMarkdown":"Patient with cancer diagnosis overlaps the office visits during measurement period. Chemotherapy administered, and pain intensity assessment was performed during an office visit.   \n\n"}],"modifierExtension":[{"url":"http://hl7.org/fhir/us/cqfmeasures/StructureDefinition/cqfm-isTestCase","valueBoolean":true}],"status":"complete","type":"individual","measure":"https://madie.cms.gov/Measure/OncologyPainIntensityQuantifiedFHIR","period":{"start":"2025-01-01","end":"2025-12-31"},"group":[{"population":[{"code":{"coding":[{"system":"http://terminology.hl7.org/CodeSystem/measure-population","code":"initial-population","display":"Initial Population"}]},"count":1},{"code":{"coding":[{"system":"http://terminology.hl7.org/CodeSystem/measure-population","code":"denominator","display":"Denominator"}]},"count":1},{"code":{"coding":[{"system":"http://terminology.hl7.org/CodeSystem/measure-population","code":"numerator","display":"Numerator"}]},"count":1}]},{"population":[{"code":{"coding":[{"system":"http://terminology.hl7.org/CodeSystem/measure-population","code":"initial-population","display":"Initial Population"}]},"count":0},{"code":{"coding":[{"system":"http://terminology.hl7.org/CodeSystem/measure-population","code":"denominator","display":"Denominator"}]},"count":0},{"code":{"coding":[{"system":"http://terminology.hl7.org/CodeSystem/measure-population","code":"numerator","display":"Numerator"}]},"count":0}]}]},"request":{"method":"PUT","url":"MeasureReport/db05e022-9fea-4ec1-a2eb-cd9bb0587a56"}}]}