{"resourceType":"Bundle","id":"tests-18a871b4-b7d2-4fca-bd04-155b44965f4e-bundle","type":"transaction","entry":[{"fullUrl":"https://madie.cms.gov/Patient/18a871b4-b7d2-4fca-bd04-155b44965f4e","resource":{"resourceType":"Patient","id":"18a871b4-b7d2-4fca-bd04-155b44965f4e","meta":{"profile":["http://hl7.org/fhir/us/qicore/StructureDefinition/qicore-patient"]},"text":{"status":"generated","div":"<div xmlns=\"http://www.w3.org/1999/xhtml\"><div class=\"hapiHeaderText\">PainAssessDuringOVEncNotRadTx<b>NUMERFailPop2</b></div><table class=\"hapiPropertyTable\"><tbody><tr><td>Identifier</td><td>37f8133962bfd168fb6fc8902e0c030e</td></tr><tr><td>Date of birth</td><td><span>25 April 1981</span></td></tr></tbody></table></div>"},"extension":[{"url":"http://hl7.org/fhir/us/core/StructureDefinition/us-core-race","extension":[{"url":"ombCategory","valueCoding":{"system":"urn:oid:2.16.840.1.113883.6.238","code":"1002-5","display":"American Indian or Alaska Native","userSelected":true}},{"url":"text","valueString":"American Indian or Alaska Native"}]},{"url":"http://hl7.org/fhir/us/core/StructureDefinition/us-core-ethnicity","extension":[{"url":"ombCategory","valueCoding":{"system":"urn:oid:2.16.840.1.113883.6.238","code":"2135-2","display":"Hispanic or Latino","userSelected":true}},{"url":"text","valueString":"Hispanic or Latino"}]}],"identifier":[{"type":{"coding":[{"system":"http://terminology.hl7.org/CodeSystem/v2-0203","code":"MR"}]},"system":"https://bonnie-fhir.healthit.gov/","value":"62c880ed0111a60120dc221a"}],"active":true,"name":[{"use":"usual","family":"NUMERFailPop2","given":["PainAssessDuringOVEncNotRadTx"]}],"gender":"male","birthDate":"1981-04-25"},"request":{"method":"PUT","url":"Patient/18a871b4-b7d2-4fca-bd04-155b44965f4e"}},{"fullUrl":"https://madie.cms.gov/Observation/5ca52606b8484613a555a916","resource":{"resourceType":"Observation","id":"c5d678d3-b9c9-4161-8044-f4fd7743e85a","meta":{"profile":["http://hl7.org/fhir/us/qicore/StructureDefinition/qicore-observation"]},"status":"final","category":[{"coding":[{"system":"http://terminology.hl7.org/CodeSystem/observation-category","code":"survey","display":"Survey"}],"text":"Survey"}],"code":{"coding":[{"system":"http://loinc.org","code":"38208-5","display":"Pain severity - Reported"}],"text":"Pain severity - Reported"},"subject":{"reference":"Patient/18a871b4-b7d2-4fca-bd04-155b44965f4e"},"effectiveDateTime":"2025-01-06T12:45:00.000Z"},"request":{"method":"PUT","url":"Observation/c5d678d3-b9c9-4161-8044-f4fd7743e85a"}},{"fullUrl":"https://madie.cms.gov/Condition/5ca52606b8484613a555a913","resource":{"resourceType":"Condition","id":"12b016fc-3611-4013-97c9-98a335340489","meta":{"profile":["http://hl7.org/fhir/us/qicore/StructureDefinition/qicore-condition"]},"clinicalStatus":{"coding":[{"system":"http://terminology.hl7.org/CodeSystem/condition-clinical","code":"active","display":"active","userSelected":true}]},"verificationStatus":{"coding":[{"system":"http://terminology.hl7.org/CodeSystem/condition-ver-status","code":"confirmed","display":"Confirmed"}]},"category":[{"coding":[{"system":"http://terminology.hl7.org/CodeSystem/condition-category","code":"problem-list-item","display":"Problem List Item"}]}],"code":{"coding":[{"system":"http://snomed.info/sct","code":"107691000119101"}]},"subject":{"reference":"Patient/18a871b4-b7d2-4fca-bd04-155b44965f4e"},"onsetDateTime":"2021-01-06T12:45:00.000Z"},"request":{"method":"PUT","url":"Condition/12b016fc-3611-4013-97c9-98a335340489"}},{"fullUrl":"https://madie.cms.gov/Encounter/5ca52606b8484613a555a914","resource":{"resourceType":"Encounter","id":"7a40fed6-f5b8-4252-a6b8-925596ad5e80","meta":{"profile":["http://hl7.org/fhir/us/qicore/StructureDefinition/qicore-encounter"]},"status":"finished","class":{"system":"http://terminology.hl7.org/CodeSystem/v3-ActCode","code":"AMB","display":"ambulatory","userSelected":true},"type":[{"coding":[{"system":"http://www.ama-assn.org/go/cpt","code":"99202"}]}],"subject":{"reference":"Patient/18a871b4-b7d2-4fca-bd04-155b44965f4e"},"period":{"start":"2025-01-06T12:45:00.000Z","end":"2025-01-06T13:00:00.000Z"}},"request":{"method":"PUT","url":"Encounter/7a40fed6-f5b8-4252-a6b8-925596ad5e80"}},{"fullUrl":"https://madie.cms.gov/Coverage/60099ac71c76ba64612b0643","resource":{"resourceType":"Coverage","id":"50f8b4e0-5385-44a8-bdeb-92dd7864bf76","meta":{"profile":["http://hl7.org/fhir/us/qicore/StructureDefinition/qicore-coverage"]},"status":"active","beneficiary":{"reference":"Patient/18a871b4-b7d2-4fca-bd04-155b44965f4e"},"period":{"start":"1981-04-25T08:00:00.000Z"},"payor":[{"reference":"Organization/3e899f33-84eb-4634-a770-a5a0bd7a80e7"}]},"request":{"method":"PUT","url":"Coverage/50f8b4e0-5385-44a8-bdeb-92dd7864bf76"}},{"fullUrl":"https://madie.cms.gov/Encounter/radiation-treatment-management-2796","resource":{"resourceType":"Encounter","id":"8b659022-91b1-47c4-acc8-2a6c284a054e","meta":{"profile":["http://hl7.org/fhir/us/qicore/StructureDefinition/qicore-encounter"]},"status":"finished","class":{"system":"http://terminology.hl7.org/CodeSystem/v3-ActCode","code":"AMB","display":"ambulatory","userSelected":true},"type":[{"coding":[{"system":"http://www.ama-assn.org/go/cpt","version":"2023","code":"77427","display":"Radiation treatment management, 5 treatments","userSelected":true}]}],"subject":{"reference":"Patient/18a871b4-b7d2-4fca-bd04-155b44965f4e"},"period":{"start":"2025-11-01T13:30:00.000+00:00","end":"2025-11-01T13:30:00.000+00:00"}},"request":{"method":"PUT","url":"Encounter/8b659022-91b1-47c4-acc8-2a6c284a054e"}},{"fullUrl":"https://madie.cms.gov/Organization/123456","resource":{"resourceType":"Organization","id":"3e899f33-84eb-4634-a770-a5a0bd7a80e7","meta":{"profile":["http://hl7.org/fhir/us/qicore/StructureDefinition/qicore-organization"]},"identifier":[{"use":"temp","system":"urn:oid:2.16.840.1.113883.4.4","value":"21-3259825"}],"active":true,"type":[{"coding":[{"system":"http://terminology.hl7.org/CodeSystem/organization-type","code":"pay","display":"Payer"}]}],"name":"Blue Cross Blue Shield of Texas","telecom":[{"system":"phone","value":"(+1) 972-766-6900"}],"address":[{"use":"billing","type":"postal","line":["P.O. Box 660044"],"city":"Dallas","state":"TX","postalCode":"75266-0044","country":"USA"}]},"request":{"method":"PUT","url":"Organization/3e899f33-84eb-4634-a770-a5a0bd7a80e7"}},{"fullUrl":"https://madie.cms.gov/Practitioner/practitioner-123456","resource":{"resourceType":"Practitioner","id":"a1e3c93b-5129-4dab-b894-fba0785ea0b0","meta":{"profile":["http://hl7.org/fhir/us/qicore/StructureDefinition/qicore-practitioner"]},"identifier":[{"system":"http://hl7.org/fhir/sid/us-npi","value":"123456"}],"name":[{"family":"Evil","prefix":["Dr"]}]},"request":{"method":"PUT","url":"Practitioner/a1e3c93b-5129-4dab-b894-fba0785ea0b0"}},{"fullUrl":"https://madie.cms.gov/MeasureReport/82906538-3ec4-4723-a966-f1015efdba53","resource":{"resourceType":"MeasureReport","id":"82906538-3ec4-4723-a966-f1015efdba53","meta":{"profile":["http://hl7.org/fhir/us/cqfmeasures/StructureDefinition/test-case-cqfm"]},"contained":[{"resourceType":"Parameters","id":"d9acbd62-0033-4ae5-9108-3f960c045348-parameters","parameter":[{"name":"subject","valueString":"18a871b4-b7d2-4fca-bd04-155b44965f4e"}]}],"extension":[{"url":"http://hl7.org/fhir/us/cqfmeasures/StructureDefinition/cqfm-inputParameters","valueReference":{"reference":"#d9acbd62-0033-4ae5-9108-3f960c045348-parameters"}},{"url":"http://hl7.org/fhir/us/cqfmeasures/StructureDefinition/cqfm-testCaseDescription","valueMarkdown":"Patient with cancer diagnosis that overlaps radiation treatment management during measurement period. Pain intensity assessment was performed during office visit, not during radiation treatment management encounter.\n"}],"modifierExtension":[{"url":"http://hl7.org/fhir/us/cqfmeasures/StructureDefinition/cqfm-isTestCase","valueBoolean":true}],"status":"complete","type":"individual","measure":"https://madie.cms.gov/Measure/OncologyPainIntensityQuantifiedFHIR","period":{"start":"2025-01-01","end":"2025-12-31"},"group":[{"population":[{"code":{"coding":[{"system":"http://terminology.hl7.org/CodeSystem/measure-population","code":"initial-population","display":"Initial Population"}]},"count":0},{"code":{"coding":[{"system":"http://terminology.hl7.org/CodeSystem/measure-population","code":"denominator","display":"Denominator"}]},"count":0},{"code":{"coding":[{"system":"http://terminology.hl7.org/CodeSystem/measure-population","code":"numerator","display":"Numerator"}]},"count":0}]},{"population":[{"code":{"coding":[{"system":"http://terminology.hl7.org/CodeSystem/measure-population","code":"initial-population","display":"Initial Population"}]},"count":1},{"code":{"coding":[{"system":"http://terminology.hl7.org/CodeSystem/measure-population","code":"denominator","display":"Denominator"}]},"count":1},{"code":{"coding":[{"system":"http://terminology.hl7.org/CodeSystem/measure-population","code":"numerator","display":"Numerator"}]},"count":0}]}]},"request":{"method":"PUT","url":"MeasureReport/82906538-3ec4-4723-a966-f1015efdba53"}}]}