{"resourceType":"Bundle","id":"tests-233d84af-d725-4682-8253-d6c4e02da0d5-bundle","type":"transaction","entry":[{"fullUrl":"https://madie.cms.gov/Patient/233d84af-d725-4682-8253-d6c4e02da0d5","resource":{"resourceType":"Patient","id":"233d84af-d725-4682-8253-d6c4e02da0d5","meta":{"profile":["http://hl7.org/fhir/us/qicore/StructureDefinition/qicore-patient"]},"text":{"status":"generated","div":"<div xmlns=\"http://www.w3.org/1999/xhtml\"><div class=\"hapiHeaderText\">MultChemoEnc1PainAssess1<b>NUMERPassPop1</b></div><table class=\"hapiPropertyTable\"><tbody><tr><td>Identifier</td><td>bd3dcb6f693f9aa43abe34d0bb44084fd7b173fe3e3b3e703d6b4f8349676c26</td></tr><tr><td>Date of birth</td><td><span>14 June 1937</span></td></tr></tbody></table></div>"},"extension":[{"url":"http://hl7.org/fhir/us/core/StructureDefinition/us-core-race","extension":[{"url":"ombCategory","valueCoding":{"system":"urn:oid:2.16.840.1.113883.6.238","code":"1002-5","display":"American Indian or Alaska Native","userSelected":true}},{"url":"text","valueString":"American Indian or Alaska Native"}]},{"url":"http://hl7.org/fhir/us/core/StructureDefinition/us-core-ethnicity","extension":[{"url":"ombCategory","valueCoding":{"system":"urn:oid:2.16.840.1.113883.6.238","code":"2135-2","display":"Hispanic or Latino","userSelected":true}},{"url":"text","valueString":"Hispanic or Latino"}]}],"identifier":[{"type":{"coding":[{"system":"http://terminology.hl7.org/CodeSystem/v2-0203","code":"MR"}]},"system":"https://bonnie-fhir.healthit.gov/","value":"62c880ed0111a60120dc2216"}],"active":true,"name":[{"use":"usual","family":"NUMERPassPop1","given":["MultChemoEnc1PainAssess1"]}],"gender":"female","birthDate":"1937-06-14"},"request":{"method":"PUT","url":"Patient/233d84af-d725-4682-8253-d6c4e02da0d5"}},{"fullUrl":"https://madie.cms.gov/Observation/5ca5260bb8484613a555a963","resource":{"resourceType":"Observation","id":"75e545ed-c121-4479-a334-1a6d02d20628","meta":{"profile":["http://hl7.org/fhir/us/qicore/StructureDefinition/qicore-observation"]},"status":"final","category":[{"coding":[{"system":"http://terminology.hl7.org/CodeSystem/observation-category","code":"survey","display":"Survey"}],"text":"Survey"}],"code":{"coding":[{"system":"http://loinc.org","code":"38208-5","display":"Pain severity - Reported"}],"text":"Pain severity - Reported"},"subject":{"reference":"Patient/233d84af-d725-4682-8253-d6c4e02da0d5"},"effectiveDateTime":"2025-06-23T11:15:00.000+00:00","valueInteger":5},"request":{"method":"PUT","url":"Observation/75e545ed-c121-4479-a334-1a6d02d20628"}},{"fullUrl":"https://madie.cms.gov/Condition/5ca5260bb8484613a555a95a","resource":{"resourceType":"Condition","id":"7b1f490e-cf50-4e09-a0ac-5543f8b6b9fe","meta":{"profile":["http://hl7.org/fhir/us/qicore/StructureDefinition/qicore-condition"]},"clinicalStatus":{"coding":[{"system":"http://terminology.hl7.org/CodeSystem/condition-clinical","code":"active","display":"active","userSelected":true}]},"verificationStatus":{"coding":[{"system":"http://terminology.hl7.org/CodeSystem/condition-ver-status","code":"confirmed","display":"Confirmed"}]},"category":[{"coding":[{"system":"http://terminology.hl7.org/CodeSystem/condition-category","code":"problem-list-item","display":"Problem List Item"}]}],"code":{"coding":[{"system":"http://hl7.org/fhir/sid/icd-10-cm","code":"C18.6"}]},"subject":{"reference":"Patient/233d84af-d725-4682-8253-d6c4e02da0d5"},"onsetDateTime":"2020-02-21T13:30:00.000Z"},"request":{"method":"PUT","url":"Condition/7b1f490e-cf50-4e09-a0ac-5543f8b6b9fe"}},{"fullUrl":"https://madie.cms.gov/Encounter/5ca5260bb8484613a555a95b","resource":{"resourceType":"Encounter","id":"c159e0fd-7dc6-4e6b-ba63-e2dd61229a7c","meta":{"profile":["http://hl7.org/fhir/us/qicore/StructureDefinition/qicore-encounter"]},"status":"finished","class":{"system":"http://terminology.hl7.org/CodeSystem/v3-ActCode","code":"AMB","display":"ambulatory","userSelected":true},"type":[{"coding":[{"system":"http://www.ama-assn.org/go/cpt","code":"99202"}]}],"subject":{"reference":"Patient/233d84af-d725-4682-8253-d6c4e02da0d5"},"period":{"start":"2025-06-23T10:00:00.000Z","end":"2025-06-23T12:00:00.000Z"}},"request":{"method":"PUT","url":"Encounter/c159e0fd-7dc6-4e6b-ba63-e2dd61229a7c"}},{"fullUrl":"https://madie.cms.gov/Coverage/60099ac91c76ba64612b066a","resource":{"resourceType":"Coverage","id":"9ada195c-d689-4920-828b-003e61449d53","meta":{"profile":["http://hl7.org/fhir/us/qicore/StructureDefinition/qicore-coverage"]},"status":"active","beneficiary":{"reference":"Patient/233d84af-d725-4682-8253-d6c4e02da0d5"},"period":{"start":"1937-05-13T08:00:00.000Z"},"payor":[{"reference":"Organization/4d7da20f-8773-4347-8f6b-80adcdcee1f4"}]},"request":{"method":"PUT","url":"Coverage/9ada195c-d689-4920-828b-003e61449d53"}},{"fullUrl":"https://madie.cms.gov/Procedure/5ca5260bb8484613a555a95f1","resource":{"resourceType":"Procedure","id":"577c6cfc-5dfe-4df6-8a69-7a186389885d","meta":{"profile":["http://hl7.org/fhir/us/qicore/StructureDefinition/qicore-procedure"]},"extension":[{"url":"http://hl7.org/fhir/us/qicore/StructureDefinition/qicore-recorded","valueDateTime":"2025-05-24T14:55:00.000Z"}],"status":"completed","code":{"coding":[{"system":"http://www.ama-assn.org/go/cpt","code":"96409"}]},"subject":{"reference":"Patient/233d84af-d725-4682-8253-d6c4e02da0d5"},"performedPeriod":{"start":"2025-05-24T11:30:00.000Z","end":"2025-05-24T11:30:00.000Z"}},"request":{"method":"PUT","url":"Procedure/577c6cfc-5dfe-4df6-8a69-7a186389885d"}},{"fullUrl":"https://madie.cms.gov/Procedure/5ca5260bb8484613a555a95f","resource":{"resourceType":"Procedure","id":"636e1bd4-b3ec-4355-8687-9cb9bbc02aa6","meta":{"profile":["http://hl7.org/fhir/us/qicore/StructureDefinition/qicore-procedure"]},"extension":[{"url":"http://hl7.org/fhir/us/qicore/StructureDefinition/qicore-recorded","valueDateTime":"2025-06-23T12:35:00.000Z"}],"status":"completed","code":{"coding":[{"system":"http://www.ama-assn.org/go/cpt","code":"96409"}]},"subject":{"reference":"Patient/233d84af-d725-4682-8253-d6c4e02da0d5"},"performedPeriod":{"start":"2025-06-23T11:30:00.000Z","end":"2025-06-23T11:30:00.000Z"}},"request":{"method":"PUT","url":"Procedure/636e1bd4-b3ec-4355-8687-9cb9bbc02aa6"}},{"fullUrl":"https://madie.cms.gov/Procedure/5ca5260bb8484613a555a960","resource":{"resourceType":"Procedure","id":"1993a9ba-72ae-4668-9319-fed5f4aa2eb0","meta":{"profile":["http://hl7.org/fhir/us/qicore/StructureDefinition/qicore-procedure"]},"extension":[{"url":"http://hl7.org/fhir/us/qicore/StructureDefinition/qicore-recorded","valueDateTime":"2025-06-23T12:35:00.000Z"}],"status":"completed","code":{"coding":[{"system":"http://www.ama-assn.org/go/cpt","code":"96409"}]},"subject":{"reference":"Patient/233d84af-d725-4682-8253-d6c4e02da0d5"},"performedPeriod":{"start":"2025-06-23T12:30:00.000Z","end":"2025-06-23T12:30:00.000Z"}},"request":{"method":"PUT","url":"Procedure/1993a9ba-72ae-4668-9319-fed5f4aa2eb0"}},{"fullUrl":"https://madie.cms.gov/Procedure/5ca5260bb8484613a555a961","resource":{"resourceType":"Procedure","id":"492f128b-d5eb-4c9b-80c7-54002b5b86e3","meta":{"profile":["http://hl7.org/fhir/us/qicore/StructureDefinition/qicore-procedure"]},"extension":[{"url":"http://hl7.org/fhir/us/qicore/StructureDefinition/qicore-recorded","valueDateTime":"2025-07-23T12:35:00.000Z"}],"status":"completed","code":{"coding":[{"system":"http://www.ama-assn.org/go/cpt","code":"51720"}]},"subject":{"reference":"Patient/233d84af-d725-4682-8253-d6c4e02da0d5"},"performedPeriod":{"start":"2025-07-23T12:45:00.000Z","end":"2025-07-23T13:45:00.000Z"}},"request":{"method":"PUT","url":"Procedure/492f128b-d5eb-4c9b-80c7-54002b5b86e3"}},{"fullUrl":"https://madie.cms.gov/Organization/123456","resource":{"resourceType":"Organization","id":"4d7da20f-8773-4347-8f6b-80adcdcee1f4","meta":{"profile":["http://hl7.org/fhir/us/qicore/StructureDefinition/qicore-organization"]},"identifier":[{"use":"temp","system":"urn:oid:2.16.840.1.113883.4.4","value":"21-3259825"}],"active":true,"type":[{"coding":[{"system":"http://terminology.hl7.org/CodeSystem/organization-type","code":"pay","display":"Payer"}]}],"name":"Blue Cross Blue Shield of Texas","telecom":[{"system":"phone","value":"(+1) 972-766-6900"}],"address":[{"use":"billing","type":"postal","line":["P.O. Box 660044"],"city":"Dallas","state":"TX","postalCode":"75266-0044","country":"USA"}]},"request":{"method":"PUT","url":"Organization/4d7da20f-8773-4347-8f6b-80adcdcee1f4"}},{"fullUrl":"https://madie.cms.gov/Practitioner/practitioner-123456","resource":{"resourceType":"Practitioner","id":"7694da6d-eca1-415b-b69b-8d8f5c221719","meta":{"profile":["http://hl7.org/fhir/us/qicore/StructureDefinition/qicore-practitioner"]},"identifier":[{"system":"http://hl7.org/fhir/sid/us-npi","value":"123456"}],"name":[{"family":"Evil","prefix":["Dr"]}]},"request":{"method":"PUT","url":"Practitioner/7694da6d-eca1-415b-b69b-8d8f5c221719"}},{"fullUrl":"https://madie.cms.gov/MeasureReport/639c6bc6-d102-49cc-9412-3ea41ee92d46","resource":{"resourceType":"MeasureReport","id":"639c6bc6-d102-49cc-9412-3ea41ee92d46","meta":{"profile":["http://hl7.org/fhir/us/cqfmeasures/StructureDefinition/test-case-cqfm"]},"contained":[{"resourceType":"Parameters","id":"9445eacc-c821-40cd-8f71-aa4785ac9b65-parameters","parameter":[{"name":"subject","valueString":"233d84af-d725-4682-8253-d6c4e02da0d5"}]}],"extension":[{"url":"http://hl7.org/fhir/us/cqfmeasures/StructureDefinition/cqfm-inputParameters","valueReference":{"reference":"#9445eacc-c821-40cd-8f71-aa4785ac9b65-parameters"}},{"url":"http://hl7.org/fhir/us/cqfmeasures/StructureDefinition/cqfm-testCaseDescription","valueMarkdown":"Patient with cancer diagnosis overlaps the office visit during measurement period. Multiple chemotherapy administrations within 30 days prior and after office visit, and pain intensity assessment was performed during an office visit.  \n"}],"modifierExtension":[{"url":"http://hl7.org/fhir/us/cqfmeasures/StructureDefinition/cqfm-isTestCase","valueBoolean":true}],"status":"complete","type":"individual","measure":"https://madie.cms.gov/Measure/OncologyPainIntensityQuantifiedFHIR","period":{"start":"2025-01-01","end":"2025-12-31"},"group":[{"population":[{"code":{"coding":[{"system":"http://terminology.hl7.org/CodeSystem/measure-population","code":"initial-population","display":"Initial Population"}]},"count":1},{"code":{"coding":[{"system":"http://terminology.hl7.org/CodeSystem/measure-population","code":"denominator","display":"Denominator"}]},"count":1},{"code":{"coding":[{"system":"http://terminology.hl7.org/CodeSystem/measure-population","code":"numerator","display":"Numerator"}]},"count":1}]},{"population":[{"code":{"coding":[{"system":"http://terminology.hl7.org/CodeSystem/measure-population","code":"initial-population","display":"Initial Population"}]},"count":0},{"code":{"coding":[{"system":"http://terminology.hl7.org/CodeSystem/measure-population","code":"denominator","display":"Denominator"}]},"count":0},{"code":{"coding":[{"system":"http://terminology.hl7.org/CodeSystem/measure-population","code":"numerator","display":"Numerator"}]},"count":0}]}]},"request":{"method":"PUT","url":"MeasureReport/639c6bc6-d102-49cc-9412-3ea41ee92d46"}}]}