{"resourceType":"Bundle","id":"tests-da126090-7372-47c7-a703-8a06a0216fc0-bundle","type":"transaction","entry":[{"fullUrl":"https://madie.cms.gov/Patient/da126090-7372-47c7-a703-8a06a0216fc0","resource":{"resourceType":"Patient","id":"da126090-7372-47c7-a703-8a06a0216fc0","meta":{"profile":["http://hl7.org/fhir/us/qicore/StructureDefinition/qicore-patient"]},"text":{"status":"generated","div":"<div xmlns=\"http://www.w3.org/1999/xhtml\"><div class=\"hapiHeaderText\">Chemo31DaysAfterEnc<b>IPPFailPop1</b></div><table class=\"hapiPropertyTable\"><tbody><tr><td>Identifier</td><td>09c33a9a5b2609125bb8f430c38a15f0</td></tr><tr><td>Date of birth</td><td><span>19 October 1961</span></td></tr></tbody></table></div>"},"extension":[{"url":"http://hl7.org/fhir/us/core/StructureDefinition/us-core-race","extension":[{"url":"ombCategory","valueCoding":{"system":"urn:oid:2.16.840.1.113883.6.238","code":"2106-3","display":"White","userSelected":true}},{"url":"text","valueString":"White"}]},{"url":"http://hl7.org/fhir/us/core/StructureDefinition/us-core-ethnicity","extension":[{"url":"ombCategory","valueCoding":{"system":"urn:oid:2.16.840.1.113883.6.238","code":"2135-2","display":"Hispanic or Latino","userSelected":true}},{"url":"text","valueString":"Hispanic or Latino"}]}],"identifier":[{"type":{"coding":[{"system":"http://terminology.hl7.org/CodeSystem/v2-0203","code":"MR"}]},"system":"https://bonnie-fhir.healthit.gov/","value":"62c880ec0111a60120dc2204"}],"active":true,"name":[{"use":"usual","family":"IPPFailPop1","given":["Chemo31DaysAfterEnc"]}],"gender":"female","birthDate":"1961-10-19"},"request":{"method":"PUT","url":"Patient/da126090-7372-47c7-a703-8a06a0216fc0"}},{"fullUrl":"https://madie.cms.gov/Condition/5ca5260db8484613a555a98d","resource":{"resourceType":"Condition","id":"f79aaa74-894f-492e-9e70-8b6b417d96ab","meta":{"profile":["http://hl7.org/fhir/us/qicore/StructureDefinition/qicore-condition"]},"clinicalStatus":{"coding":[{"system":"http://terminology.hl7.org/CodeSystem/condition-clinical","code":"active","display":"active"}]},"verificationStatus":{"coding":[{"system":"http://terminology.hl7.org/CodeSystem/condition-ver-status","code":"confirmed","display":"Confirmed"}]},"category":[{"coding":[{"system":"http://terminology.hl7.org/CodeSystem/condition-category","code":"problem-list-item","display":"Problem List Item"}]}],"code":{"coding":[{"system":"http://snomed.info/sct","code":"80914001"}]},"subject":{"reference":"Patient/da126090-7372-47c7-a703-8a06a0216fc0"},"onsetDateTime":"2021-01-11T10:00:00.000Z"},"request":{"method":"PUT","url":"Condition/f79aaa74-894f-492e-9e70-8b6b417d96ab"}},{"fullUrl":"https://madie.cms.gov/Encounter/5ca5260db8484613a555a98e","resource":{"resourceType":"Encounter","id":"5b31eb04-03db-4900-ab30-02a5ca53785e","meta":{"profile":["http://hl7.org/fhir/us/qicore/StructureDefinition/qicore-encounter"]},"status":"finished","class":{"system":"http://terminology.hl7.org/CodeSystem/v3-ActCode","code":"AMB","display":"ambulatory","userSelected":true},"type":[{"coding":[{"system":"http://www.ama-assn.org/go/cpt","code":"99202"}]}],"subject":{"reference":"Patient/da126090-7372-47c7-a703-8a06a0216fc0"},"period":{"start":"2025-02-15T13:00:00.000Z","end":"2025-02-15T14:00:00.000Z"}},"request":{"method":"PUT","url":"Encounter/5b31eb04-03db-4900-ab30-02a5ca53785e"}},{"fullUrl":"https://madie.cms.gov/Coverage/60099ac61c76ba64612b062e","resource":{"resourceType":"Coverage","id":"e35c45c6-2015-4ed9-bc03-ffe51ea75046","meta":{"profile":["http://hl7.org/fhir/us/qicore/StructureDefinition/qicore-coverage"]},"status":"active","beneficiary":{"reference":"Patient/da126090-7372-47c7-a703-8a06a0216fc0"},"period":{"start":"1961-10-19T08:00:00.000Z"},"payor":[{"reference":"Organization/3e899f33-84eb-4634-a770-a5a0bd7a80e7"}]},"request":{"method":"PUT","url":"Coverage/e35c45c6-2015-4ed9-bc03-ffe51ea75046"}},{"fullUrl":"https://madie.cms.gov/Procedure/5ca5260db8484613a555a98f","resource":{"resourceType":"Procedure","id":"1856877a-4c50-4b3b-b240-5846a1e335cd","meta":{"profile":["http://hl7.org/fhir/us/qicore/StructureDefinition/qicore-procedure"]},"extension":[{"url":"http://hl7.org/fhir/us/qicore/StructureDefinition/qicore-recorded","valueDateTime":"2025-01-17T12:35:00.000Z"}],"status":"completed","code":{"coding":[{"system":"http://snomed.info/sct","code":"169396008"}]},"subject":{"reference":"Patient/da126090-7372-47c7-a703-8a06a0216fc0"},"performedPeriod":{"start":"2025-01-17T11:00:00.000Z","end":"2025-01-17T11:00:00.000Z"}},"request":{"method":"PUT","url":"Procedure/1856877a-4c50-4b3b-b240-5846a1e335cd"}},{"fullUrl":"https://madie.cms.gov/Procedure/5ca5260db8484613a555a991","resource":{"resourceType":"Procedure","id":"22ad1c66-e34f-4887-a152-40852ce4b07f","meta":{"profile":["http://hl7.org/fhir/us/qicore/StructureDefinition/qicore-procedure"]},"extension":[{"url":"http://hl7.org/fhir/us/qicore/StructureDefinition/qicore-recorded","valueDateTime":"2025-03-17T12:35:00.000Z"}],"status":"completed","code":{"coding":[{"system":"http://snomed.info/sct","code":"169396008"}]},"subject":{"reference":"Patient/da126090-7372-47c7-a703-8a06a0216fc0"},"performedPeriod":{"start":"2012-03-17T14:40:00.000Z","end":"2012-03-17T14:40:00.000Z"}},"request":{"method":"PUT","url":"Procedure/22ad1c66-e34f-4887-a152-40852ce4b07f"}},{"fullUrl":"https://madie.cms.gov/Organization/123456","resource":{"resourceType":"Organization","id":"3e899f33-84eb-4634-a770-a5a0bd7a80e7","meta":{"profile":["http://hl7.org/fhir/us/qicore/StructureDefinition/qicore-organization"]},"identifier":[{"use":"temp","system":"urn:oid:2.16.840.1.113883.4.4","value":"21-3259825"}],"active":true,"type":[{"coding":[{"system":"http://terminology.hl7.org/CodeSystem/organization-type","code":"pay","display":"Payer"}]}],"name":"Blue Cross Blue Shield of Texas","telecom":[{"system":"phone","value":"(+1) 972-766-6900"}],"address":[{"use":"billing","type":"postal","line":["P.O. Box 660044"],"city":"Dallas","state":"TX","postalCode":"75266-0044","country":"USA"}]},"request":{"method":"PUT","url":"Organization/3e899f33-84eb-4634-a770-a5a0bd7a80e7"}},{"fullUrl":"https://madie.cms.gov/Practitioner/practitioner-123456","resource":{"resourceType":"Practitioner","id":"a3f5838c-0ede-4fca-b819-f96a8ec1cb6f","meta":{"profile":["http://hl7.org/fhir/us/qicore/StructureDefinition/qicore-practitioner"]},"identifier":[{"system":"http://hl7.org/fhir/sid/us-npi","value":"123456"}],"name":[{"family":"Evil","prefix":["Dr"]}]},"request":{"method":"PUT","url":"Practitioner/a3f5838c-0ede-4fca-b819-f96a8ec1cb6f"}},{"fullUrl":"https://madie.cms.gov/MeasureReport/225172fe-9196-4930-b3a2-7d7b02f63edb","resource":{"resourceType":"MeasureReport","id":"225172fe-9196-4930-b3a2-7d7b02f63edb","meta":{"profile":["http://hl7.org/fhir/us/cqfmeasures/StructureDefinition/test-case-cqfm"]},"contained":[{"resourceType":"Parameters","id":"806ed15e-93d1-474a-8e0a-f97bb8875d0d-parameters","parameter":[{"name":"subject","valueString":"da126090-7372-47c7-a703-8a06a0216fc0"}]}],"extension":[{"url":"http://hl7.org/fhir/us/cqfmeasures/StructureDefinition/cqfm-inputParameters","valueReference":{"reference":"#806ed15e-93d1-474a-8e0a-f97bb8875d0d-parameters"}},{"url":"http://hl7.org/fhir/us/cqfmeasures/StructureDefinition/cqfm-testCaseDescription","valueMarkdown":"Patient with cancer diagnosis that overlaps the office visit during measurement period, but second chemo was administered 31 days after office visit.\n"}],"modifierExtension":[{"url":"http://hl7.org/fhir/us/cqfmeasures/StructureDefinition/cqfm-isTestCase","valueBoolean":true}],"status":"complete","type":"individual","measure":"https://madie.cms.gov/Measure/OncologyPainIntensityQuantifiedFHIR","period":{"start":"2025-01-01","end":"2025-12-31"},"group":[{"population":[{"code":{"coding":[{"system":"http://terminology.hl7.org/CodeSystem/measure-population","code":"initial-population","display":"Initial Population"}]},"count":0},{"code":{"coding":[{"system":"http://terminology.hl7.org/CodeSystem/measure-population","code":"denominator","display":"Denominator"}]},"count":0},{"code":{"coding":[{"system":"http://terminology.hl7.org/CodeSystem/measure-population","code":"numerator","display":"Numerator"}]},"count":0}]},{"population":[{"code":{"coding":[{"system":"http://terminology.hl7.org/CodeSystem/measure-population","code":"initial-population","display":"Initial Population"}]},"count":0},{"code":{"coding":[{"system":"http://terminology.hl7.org/CodeSystem/measure-population","code":"denominator","display":"Denominator"}]},"count":0},{"code":{"coding":[{"system":"http://terminology.hl7.org/CodeSystem/measure-population","code":"numerator","display":"Numerator"}]},"count":0}]}]},"request":{"method":"PUT","url":"MeasureReport/225172fe-9196-4930-b3a2-7d7b02f63edb"}}]}