{"resourceType":"Bundle","id":"tests-fe6ef07d-bff1-4e0e-9bf4-b0424a1d0ab4-bundle","type":"transaction","entry":[{"fullUrl":"https://madie.cms.gov/Patient/fe6ef07d-bff1-4e0e-9bf4-b0424a1d0ab4","resource":{"resourceType":"Patient","id":"fe6ef07d-bff1-4e0e-9bf4-b0424a1d0ab4","meta":{"profile":["http://hl7.org/fhir/us/qicore/StructureDefinition/qicore-patient"]},"text":{"status":"generated","div":"<div xmlns=\"http://www.w3.org/1999/xhtml\"><div class=\"hapiHeaderText\">ChemoSameDayofEncAnd30DaysB4Enc<b>IPPPassPop1</b></div><table class=\"hapiPropertyTable\"><tbody><tr><td>Identifier</td><td>60e349100edd633ca8f54b90369c7513</td></tr><tr><td>Date of birth</td><td><span>13 May 1937</span></td></tr></tbody></table></div>"},"extension":[{"url":"http://hl7.org/fhir/us/core/StructureDefinition/us-core-race","extension":[{"url":"ombCategory","valueCoding":{"system":"urn:oid:2.16.840.1.113883.6.238","code":"1002-5","display":"American Indian or Alaska Native","userSelected":true}},{"url":"text","valueString":"American Indian or Alaska Native"}]},{"url":"http://hl7.org/fhir/us/core/StructureDefinition/us-core-ethnicity","extension":[{"url":"ombCategory","valueCoding":{"system":"urn:oid:2.16.840.1.113883.6.238","code":"2135-2","display":"Hispanic or Latino","userSelected":true}},{"url":"text","valueString":"Hispanic or Latino"}]}],"identifier":[{"type":{"coding":[{"system":"http://terminology.hl7.org/CodeSystem/v2-0203","code":"MR"}]},"system":"https://bonnie-fhir.healthit.gov/","value":"62c880ec0111a60120dc21fb"}],"active":true,"name":[{"use":"usual","family":"IPPPassPop1","given":["ChemoSameDayofEncAnd30DaysB4Enc"]}],"gender":"female","birthDate":"1937-05-13"},"request":{"method":"PUT","url":"Patient/fe6ef07d-bff1-4e0e-9bf4-b0424a1d0ab4"}},{"fullUrl":"https://madie.cms.gov/Condition/5ca52605b8484613a555a8fc","resource":{"resourceType":"Condition","id":"cd2d97c8-12e7-451f-a3a9-b43b90ce1689","meta":{"profile":["http://hl7.org/fhir/us/qicore/StructureDefinition/qicore-condition"]},"clinicalStatus":{"coding":[{"system":"http://terminology.hl7.org/CodeSystem/condition-clinical","code":"active","display":"Active"}]},"verificationStatus":{"coding":[{"system":"http://terminology.hl7.org/CodeSystem/condition-ver-status","code":"confirmed","display":"Confirmed"}]},"category":[{"coding":[{"system":"http://terminology.hl7.org/CodeSystem/condition-category","code":"problem-list-item","display":"Problem List Item"}]}],"code":{"coding":[{"system":"http://hl7.org/fhir/sid/icd-10-cm","code":"C40.00"}]},"subject":{"reference":"Patient/fe6ef07d-bff1-4e0e-9bf4-b0424a1d0ab4"},"onsetDateTime":"2023-05-01T13:30:00.000Z"},"request":{"method":"PUT","url":"Condition/cd2d97c8-12e7-451f-a3a9-b43b90ce1689"}},{"fullUrl":"https://madie.cms.gov/Encounter/5ca52605b8484613a555a8fd","resource":{"resourceType":"Encounter","id":"9abd67e9-0bcb-4ae4-a610-a3ca7aa4d64d","meta":{"profile":["http://hl7.org/fhir/us/qicore/StructureDefinition/qicore-encounter"]},"status":"finished","class":{"system":"http://terminology.hl7.org/CodeSystem/v3-ActCode","code":"AMB","display":"ambulatory","userSelected":true},"type":[{"coding":[{"system":"http://www.ama-assn.org/go/cpt","code":"99203"}]}],"subject":{"reference":"Patient/fe6ef07d-bff1-4e0e-9bf4-b0424a1d0ab4"},"period":{"start":"2025-01-01T14:00:00.000Z","end":"2025-01-01T15:00:00.000Z"}},"request":{"method":"PUT","url":"Encounter/9abd67e9-0bcb-4ae4-a610-a3ca7aa4d64d"}},{"fullUrl":"https://madie.cms.gov/Coverage/60099acd1c76ba64612b06bb","resource":{"resourceType":"Coverage","id":"d75d4991-804a-40cf-92d1-39c06d6349a0","meta":{"profile":["http://hl7.org/fhir/us/qicore/StructureDefinition/qicore-coverage"]},"status":"active","beneficiary":{"reference":"Patient/fe6ef07d-bff1-4e0e-9bf4-b0424a1d0ab4"},"period":{"start":"1937-05-13T08:00:00.000Z"},"payor":[{"reference":"Organization/f7da4368-fb6d-4d73-a75b-f78024cbb18d"}]},"request":{"method":"PUT","url":"Coverage/d75d4991-804a-40cf-92d1-39c06d6349a0"}},{"fullUrl":"https://madie.cms.gov/Procedure/5fc8fa5fdb9b370000f5acca","resource":{"resourceType":"Procedure","id":"32f52310-b2ee-49b9-8601-84a0350f5d31","meta":{"profile":["http://hl7.org/fhir/us/qicore/StructureDefinition/qicore-procedure"]},"extension":[{"url":"http://hl7.org/fhir/us/qicore/StructureDefinition/qicore-recorded","valueDateTime":"2025-01-01T12:35:00.000Z"}],"status":"completed","code":{"coding":[{"system":"http://snomed.info/sct","code":"169396008"}]},"subject":{"reference":"Patient/fe6ef07d-bff1-4e0e-9bf4-b0424a1d0ab4"},"performedPeriod":{"start":"2025-01-01T08:00:00.000Z","end":"2025-01-01T08:15:00.000Z"}},"request":{"method":"PUT","url":"Procedure/32f52310-b2ee-49b9-8601-84a0350f5d31"}},{"fullUrl":"https://madie.cms.gov/Procedure/5fc8fb58db9b370000f5ae4c","resource":{"resourceType":"Procedure","id":"bafbdc74-92c9-46c9-8e30-35e10fccebf9","meta":{"profile":["http://hl7.org/fhir/us/qicore/StructureDefinition/qicore-procedure"]},"extension":[{"url":"http://hl7.org/fhir/us/qicore/StructureDefinition/qicore-recorded","valueDateTime":"2025-01-31T12:35:00.000Z"}],"status":"completed","code":{"coding":[{"system":"http://snomed.info/sct","code":"169396008"}]},"subject":{"reference":"Patient/fe6ef07d-bff1-4e0e-9bf4-b0424a1d0ab4"},"performedPeriod":{"start":"2024-12-02T08:00:00.000Z","end":"2024-12-02T08:15:00.000Z"}},"request":{"method":"PUT","url":"Procedure/bafbdc74-92c9-46c9-8e30-35e10fccebf9"}},{"fullUrl":"https://madie.cms.gov/Organization/123456","resource":{"resourceType":"Organization","id":"f7da4368-fb6d-4d73-a75b-f78024cbb18d","meta":{"profile":["http://hl7.org/fhir/us/qicore/StructureDefinition/qicore-organization"]},"identifier":[{"use":"temp","system":"urn:oid:2.16.840.1.113883.4.4","value":"21-3259825"}],"active":true,"type":[{"coding":[{"system":"http://terminology.hl7.org/CodeSystem/organization-type","code":"pay","display":"Payer"}]}],"name":"Blue Cross Blue Shield of Texas","telecom":[{"system":"phone","value":"(+1) 972-766-6900"}],"address":[{"use":"billing","type":"postal","line":["P.O. Box 660044"],"city":"Dallas","state":"TX","postalCode":"75266-0044","country":"USA"}]},"request":{"method":"PUT","url":"Organization/f7da4368-fb6d-4d73-a75b-f78024cbb18d"}},{"fullUrl":"https://madie.cms.gov/Practitioner/practitioner-123456","resource":{"resourceType":"Practitioner","id":"65de203a-6a1a-499f-9419-2ffd7ff36649","meta":{"profile":["http://hl7.org/fhir/us/qicore/StructureDefinition/qicore-practitioner"]},"identifier":[{"system":"http://hl7.org/fhir/sid/us-npi","value":"123456"}],"name":[{"family":"Evil","prefix":["Dr"]}]},"request":{"method":"PUT","url":"Practitioner/65de203a-6a1a-499f-9419-2ffd7ff36649"}},{"fullUrl":"https://madie.cms.gov/MeasureReport/1e0abfde-a1df-411c-97d1-5f252a0f2466","resource":{"resourceType":"MeasureReport","id":"1e0abfde-a1df-411c-97d1-5f252a0f2466","meta":{"profile":["http://hl7.org/fhir/us/cqfmeasures/StructureDefinition/test-case-cqfm"]},"contained":[{"resourceType":"Parameters","id":"701d1a59-4647-48a0-8eb1-09f55bd2364e-parameters","parameter":[{"name":"subject","valueString":"fe6ef07d-bff1-4e0e-9bf4-b0424a1d0ab4"}]}],"extension":[{"url":"http://hl7.org/fhir/us/cqfmeasures/StructureDefinition/cqfm-inputParameters","valueReference":{"reference":"#701d1a59-4647-48a0-8eb1-09f55bd2364e-parameters"}},{"url":"http://hl7.org/fhir/us/cqfmeasures/StructureDefinition/cqfm-testCaseDescription","valueMarkdown":"Patient with cancer diagnosis that overlaps the office visit during measurement period. Received chemo 30 days before the office visit and another chemo on the same day of office visit."}],"modifierExtension":[{"url":"http://hl7.org/fhir/us/cqfmeasures/StructureDefinition/cqfm-isTestCase","valueBoolean":true}],"status":"complete","type":"individual","measure":"https://madie.cms.gov/Measure/OncologyPainIntensityQuantifiedFHIR","period":{"start":"2025-01-01","end":"2025-12-31"},"group":[{"population":[{"code":{"coding":[{"system":"http://terminology.hl7.org/CodeSystem/measure-population","code":"initial-population","display":"Initial Population"}]},"count":1},{"code":{"coding":[{"system":"http://terminology.hl7.org/CodeSystem/measure-population","code":"denominator","display":"Denominator"}]},"count":1},{"code":{"coding":[{"system":"http://terminology.hl7.org/CodeSystem/measure-population","code":"numerator","display":"Numerator"}]},"count":0}]},{"population":[{"code":{"coding":[{"system":"http://terminology.hl7.org/CodeSystem/measure-population","code":"initial-population","display":"Initial Population"}]},"count":0},{"code":{"coding":[{"system":"http://terminology.hl7.org/CodeSystem/measure-population","code":"denominator","display":"Denominator"}]},"count":0},{"code":{"coding":[{"system":"http://terminology.hl7.org/CodeSystem/measure-population","code":"numerator","display":"Numerator"}]},"count":0}]}]},"request":{"method":"PUT","url":"MeasureReport/1e0abfde-a1df-411c-97d1-5f252a0f2466"}}]}