{"resourceType":"Bundle","id":"tests-0cadffba-143c-4a8f-9260-fcd45aa2c9c1-bundle","type":"transaction","entry":[{"fullUrl":"https://madie.cms.gov/Patient/0cadffba-143c-4a8f-9260-fcd45aa2c9c1","resource":{"resourceType":"Patient","id":"0cadffba-143c-4a8f-9260-fcd45aa2c9c1","meta":{"profile":["http://hl7.org/fhir/us/qicore/StructureDefinition/qicore-patient"]},"text":{"status":"generated","div":"<div xmlns=\"http://www.w3.org/1999/xhtml\"><div class=\"hapiHeaderText\">PainAssess1DayAfterRadTx<b>NUMERFailPop2</b></div><table class=\"hapiPropertyTable\"><tbody><tr><td>Identifier</td><td>5bf13d9f68257ca8bfe6d3b34a3d7b01</td></tr><tr><td>Date of birth</td><td><span>25 April 1975</span></td></tr></tbody></table></div>"},"extension":[{"url":"http://hl7.org/fhir/us/core/StructureDefinition/us-core-race","extension":[{"url":"ombCategory","valueCoding":{"system":"urn:oid:2.16.840.1.113883.6.238","code":"1002-5","display":"American Indian or Alaska Native","userSelected":true}},{"url":"text","valueString":"American Indian or Alaska Native"}]},{"url":"http://hl7.org/fhir/us/core/StructureDefinition/us-core-ethnicity","extension":[{"url":"ombCategory","valueCoding":{"system":"urn:oid:2.16.840.1.113883.6.238","code":"2135-2","display":"Hispanic or Latino","userSelected":true}},{"url":"text","valueString":"Hispanic or Latino"}]}],"identifier":[{"type":{"coding":[{"system":"http://terminology.hl7.org/CodeSystem/v2-0203","code":"MR"}]},"system":"https://bonnie-fhir.healthit.gov/","value":"62c880ec0111a60120dc21f8"}],"active":true,"name":[{"use":"usual","family":"NUMERFailPop2","given":["PainAssess1DayAfterRadTx"]}],"gender":"male","birthDate":"1975-04-25"},"request":{"method":"PUT","url":"Patient/0cadffba-143c-4a8f-9260-fcd45aa2c9c1"}},{"fullUrl":"https://madie.cms.gov/Observation/5ca5260ab8484613a555a951","resource":{"resourceType":"Observation","id":"8bd288c5-b466-44f5-a8fa-45299227df8d","meta":{"profile":["http://hl7.org/fhir/us/qicore/StructureDefinition/qicore-observation"]},"status":"final","category":[{"coding":[{"system":"http://terminology.hl7.org/CodeSystem/observation-category","code":"survey","display":"Survey"}],"text":"Survey"}],"code":{"coding":[{"system":"http://loinc.org","code":"38208-5","display":"Pain severity - Reported"}],"text":"Pain severity - Reported"},"subject":{"reference":"Patient/0cadffba-143c-4a8f-9260-fcd45aa2c9c1"},"effectiveDateTime":"2025-05-07T12:45:00.000+00:00","valueInteger":5},"request":{"method":"PUT","url":"Observation/8bd288c5-b466-44f5-a8fa-45299227df8d"}},{"fullUrl":"https://madie.cms.gov/Condition/5ca5260ab8484613a555a94e","resource":{"resourceType":"Condition","id":"e93f9cf4-13e4-40e9-9ed3-45875d1208e3","meta":{"profile":["http://hl7.org/fhir/us/qicore/StructureDefinition/qicore-condition"]},"clinicalStatus":{"coding":[{"system":"http://terminology.hl7.org/CodeSystem/condition-clinical","code":"active","display":"active","userSelected":true}]},"verificationStatus":{"coding":[{"system":"http://terminology.hl7.org/CodeSystem/condition-ver-status","code":"confirmed","display":"Confirmed"}]},"category":[{"coding":[{"system":"http://terminology.hl7.org/CodeSystem/condition-category","code":"problem-list-item","display":"Problem List Item"}]}],"code":{"coding":[{"system":"http://snomed.info/sct","code":"107691000119101"}]},"subject":{"reference":"Patient/0cadffba-143c-4a8f-9260-fcd45aa2c9c1"},"onsetDateTime":"2024-11-01T12:45:00.000Z"},"request":{"method":"PUT","url":"Condition/e93f9cf4-13e4-40e9-9ed3-45875d1208e3"}},{"fullUrl":"https://madie.cms.gov/Coverage/60099ac81c76ba64612b065e","resource":{"resourceType":"Coverage","id":"43289ea4-a3a8-46b4-9bd9-6f3ab872d4a2","meta":{"profile":["http://hl7.org/fhir/us/qicore/StructureDefinition/qicore-coverage"]},"status":"active","beneficiary":{"reference":"Patient/0cadffba-143c-4a8f-9260-fcd45aa2c9c1"},"period":{"start":"1975-04-25T08:00:00.000Z"},"payor":[{"reference":"Organization/aeb2c6be-6577-4bba-a6b6-6eab95111f1b"}]},"request":{"method":"PUT","url":"Coverage/43289ea4-a3a8-46b4-9bd9-6f3ab872d4a2"}},{"fullUrl":"https://madie.cms.gov/Encounter/radiation-treatment-management-7c18","resource":{"resourceType":"Encounter","id":"96a44973-b58d-42cb-84e6-79e9550e2ab2","meta":{"profile":["http://hl7.org/fhir/us/qicore/StructureDefinition/qicore-encounter"]},"status":"finished","class":{"system":"http://terminology.hl7.org/CodeSystem/v3-ActCode","code":"AMB","display":"ambulatory","userSelected":true},"type":[{"coding":[{"system":"http://snomed.info/sct","version":"2023-09","code":"84755001","display":"Radiation therapy treatment management (procedure)","userSelected":true}]}],"subject":{"reference":"Patient/0cadffba-143c-4a8f-9260-fcd45aa2c9c1"},"period":{"start":"2025-05-06T12:45:00.000+00:00","end":"2025-05-06T13:00:00.000+00:00"}},"request":{"method":"PUT","url":"Encounter/96a44973-b58d-42cb-84e6-79e9550e2ab2"}},{"fullUrl":"https://madie.cms.gov/Organization/123456","resource":{"resourceType":"Organization","id":"aeb2c6be-6577-4bba-a6b6-6eab95111f1b","meta":{"profile":["http://hl7.org/fhir/us/qicore/StructureDefinition/qicore-organization"]},"identifier":[{"use":"temp","system":"urn:oid:2.16.840.1.113883.4.4","value":"21-3259825"}],"active":true,"type":[{"coding":[{"system":"http://terminology.hl7.org/CodeSystem/organization-type","code":"pay","display":"Payer"}]}],"name":"Blue Cross Blue Shield of Texas","telecom":[{"system":"phone","value":"(+1) 972-766-6900"}],"address":[{"use":"billing","type":"postal","line":["P.O. Box 660044"],"city":"Dallas","state":"TX","postalCode":"75266-0044","country":"USA"}]},"request":{"method":"PUT","url":"Organization/aeb2c6be-6577-4bba-a6b6-6eab95111f1b"}},{"fullUrl":"https://madie.cms.gov/Practitioner/practitioner-123456","resource":{"resourceType":"Practitioner","id":"7d389d4b-5c50-4488-b4fc-8c47c8c947f0","meta":{"profile":["http://hl7.org/fhir/us/qicore/StructureDefinition/qicore-practitioner"]},"identifier":[{"system":"http://hl7.org/fhir/sid/us-npi","value":"123456"}],"name":[{"family":"Evil","prefix":["Dr"]}]},"request":{"method":"PUT","url":"Practitioner/7d389d4b-5c50-4488-b4fc-8c47c8c947f0"}},{"fullUrl":"https://madie.cms.gov/MeasureReport/1ad375bd-106e-4a87-9bf9-063ee46f8276","resource":{"resourceType":"MeasureReport","id":"1ad375bd-106e-4a87-9bf9-063ee46f8276","meta":{"profile":["http://hl7.org/fhir/us/cqfmeasures/StructureDefinition/test-case-cqfm"]},"contained":[{"resourceType":"Parameters","id":"c403da69-b8bc-4308-b3f1-5b95e7fd5a79-parameters","parameter":[{"name":"subject","valueString":"0cadffba-143c-4a8f-9260-fcd45aa2c9c1"}]}],"extension":[{"url":"http://hl7.org/fhir/us/cqfmeasures/StructureDefinition/cqfm-inputParameters","valueReference":{"reference":"#c403da69-b8bc-4308-b3f1-5b95e7fd5a79-parameters"}},{"url":"http://hl7.org/fhir/us/cqfmeasures/StructureDefinition/cqfm-testCaseDescription","valueMarkdown":"Patient with cancer diagnosis that overlaps radiation treatment management during measurement period. Pain intensity assessment was performed 1 day after radiation treatment management.\n"}],"modifierExtension":[{"url":"http://hl7.org/fhir/us/cqfmeasures/StructureDefinition/cqfm-isTestCase","valueBoolean":true}],"status":"complete","type":"individual","measure":"https://madie.cms.gov/Measure/OncologyPainIntensityQuantifiedFHIR","period":{"start":"2025-01-01","end":"2025-12-31"},"group":[{"population":[{"code":{"coding":[{"system":"http://terminology.hl7.org/CodeSystem/measure-population","code":"initial-population","display":"Initial Population"}]},"count":0},{"code":{"coding":[{"system":"http://terminology.hl7.org/CodeSystem/measure-population","code":"denominator","display":"Denominator"}]},"count":0},{"code":{"coding":[{"system":"http://terminology.hl7.org/CodeSystem/measure-population","code":"numerator","display":"Numerator"}]},"count":0}]},{"population":[{"code":{"coding":[{"system":"http://terminology.hl7.org/CodeSystem/measure-population","code":"initial-population","display":"Initial Population"}]},"count":1},{"code":{"coding":[{"system":"http://terminology.hl7.org/CodeSystem/measure-population","code":"denominator","display":"Denominator"}]},"count":1},{"code":{"coding":[{"system":"http://terminology.hl7.org/CodeSystem/measure-population","code":"numerator","display":"Numerator"}]},"count":0}]}]},"request":{"method":"PUT","url":"MeasureReport/1ad375bd-106e-4a87-9bf9-063ee46f8276"}}]}