{"resourceType":"Bundle","id":"tests-28f57404-e619-4b1e-905f-5d89fffeffcd-bundle","type":"transaction","entry":[{"fullUrl":"https://madie.cms.gov/Patient/28f57404-e619-4b1e-905f-5d89fffeffcd","resource":{"resourceType":"Patient","id":"28f57404-e619-4b1e-905f-5d89fffeffcd","meta":{"profile":["http://hl7.org/fhir/us/qicore/StructureDefinition/qicore-patient"]},"text":{"status":"generated","div":"<div xmlns=\"http://www.w3.org/1999/xhtml\"><div class=\"hapiHeaderText\">TwiceDailyChemo<b>DENOMPASSPOP1</b></div><table class=\"hapiPropertyTable\"><tbody><tr><td>Date of birth</td><td><span>12 February 1978</span></td></tr></tbody></table></div>"},"extension":[{"url":"http://hl7.org/fhir/us/core/StructureDefinition/us-core-race","extension":[{"url":"ombCategory","valueCoding":{"system":"urn:oid:2.16.840.1.113883.6.238","code":"1002-5","display":"American Indian or Alaska Native","userSelected":true}},{"url":"text","valueString":"American Indian or Alaska Native"}]},{"url":"http://hl7.org/fhir/us/core/StructureDefinition/us-core-ethnicity","extension":[{"url":"ombCategory","valueCoding":{"system":"urn:oid:2.16.840.1.113883.6.238","code":"2135-2","display":"Hispanic or Latino","userSelected":true}},{"url":"text","valueString":"Hispanic or Latino"}]}],"identifier":[{"type":{"coding":[{"system":"http://terminology.hl7.org/CodeSystem/v2-0203","code":"MR"}]},"system":"https://bonnie-fhir.healthit.gov/","value":"62c880ec0111a60120dc220d"}],"active":true,"name":[{"use":"usual","family":"DENOMFailPop1","given":["TwiceDailyChemo"]}],"gender":"female","birthDate":"1978-02-12"},"request":{"method":"PUT","url":"Patient/28f57404-e619-4b1e-905f-5d89fffeffcd"}},{"fullUrl":"https://madie.cms.gov/Condition/602707c30df1fb00002a2a82","resource":{"resourceType":"Condition","id":"7f7b1820-01fc-470b-bccd-5eff0418d192","meta":{"profile":["http://hl7.org/fhir/us/qicore/StructureDefinition/qicore-condition"]},"clinicalStatus":{"coding":[{"system":"http://terminology.hl7.org/CodeSystem/condition-clinical","code":"active","display":"active","userSelected":true}]},"category":[{"coding":[{"system":"http://terminology.hl7.org/CodeSystem/condition-category","code":"problem-list-item","display":"Problem List Item"}]}],"code":{"coding":[{"system":"http://snomed.info/sct","code":"107691000119101"}]},"subject":{"reference":"Patient/28f57404-e619-4b1e-905f-5d89fffeffcd"},"onsetDateTime":"2025-01-31T08:00:00.000Z"},"request":{"method":"PUT","url":"Condition/7f7b1820-01fc-470b-bccd-5eff0418d192"}},{"fullUrl":"https://madie.cms.gov/Encounter/602707d20df1fb00002a2aa4","resource":{"resourceType":"Encounter","id":"82928660-230a-492b-bf48-3c3358d2af21","meta":{"profile":["http://hl7.org/fhir/us/qicore/StructureDefinition/qicore-encounter"]},"status":"finished","class":{"system":"http://terminology.hl7.org/CodeSystem/v3-ActCode","code":"AMB","display":"ambulatory","userSelected":true},"type":[{"coding":[{"system":"http://snomed.info/sct","code":"185463005"}]}],"subject":{"reference":"Patient/28f57404-e619-4b1e-905f-5d89fffeffcd"},"period":{"start":"2025-01-31T08:00:00.000Z","end":"2025-01-31T08:15:00.000Z"}},"request":{"method":"PUT","url":"Encounter/82928660-230a-492b-bf48-3c3358d2af21"}},{"fullUrl":"https://madie.cms.gov/Encounter/602707e10df1fb00002a2ac1","resource":{"resourceType":"Encounter","id":"619ae815-7ea8-4d37-9a6e-1334ba1a8caf","meta":{"profile":["http://hl7.org/fhir/us/qicore/StructureDefinition/qicore-encounter"]},"status":"finished","class":{"system":"http://terminology.hl7.org/CodeSystem/v3-ActCode","code":"AMB","display":"ambulatory","userSelected":true},"type":[{"coding":[{"system":"http://snomed.info/sct","code":"185463005"}]}],"subject":{"reference":"Patient/28f57404-e619-4b1e-905f-5d89fffeffcd"},"period":{"start":"2025-02-09T08:00:00.000Z","end":"2025-02-09T08:15:00.000Z"}},"request":{"method":"PUT","url":"Encounter/619ae815-7ea8-4d37-9a6e-1334ba1a8caf"}},{"fullUrl":"https://madie.cms.gov/Coverage/61043692a2f9161878c53ab7","resource":{"resourceType":"Coverage","id":"fa2aa1a8-8ab1-4a4b-996b-120e6375ccdd","meta":{"profile":["http://hl7.org/fhir/us/qicore/StructureDefinition/qicore-coverage"]},"status":"active","beneficiary":{"reference":"Patient/28f57404-e619-4b1e-905f-5d89fffeffcd"},"period":{"start":"1978-02-12T08:00:00.000Z"},"payor":[{"reference":"Organization/f4907415-83c5-4eae-ab0b-cb63a840880d"}]},"request":{"method":"PUT","url":"Coverage/fa2aa1a8-8ab1-4a4b-996b-120e6375ccdd"}},{"fullUrl":"https://madie.cms.gov/Procedure/602707fa0df1fb00002a2aeb","resource":{"resourceType":"Procedure","id":"6462dc04-1c42-469e-850f-324e698a94ea","meta":{"profile":["http://hl7.org/fhir/us/qicore/StructureDefinition/qicore-procedure"]},"extension":[{"url":"http://hl7.org/fhir/us/qicore/StructureDefinition/qicore-recorded","valueDateTime":"2025-02-09T12:35:00.000Z"}],"status":"completed","code":{"coding":[{"system":"http://snomed.info/sct","code":"169396008"}]},"subject":{"reference":"Patient/28f57404-e619-4b1e-905f-5d89fffeffcd"},"performedPeriod":{"start":"2025-02-09T08:00:00.000Z","end":"2025-02-09T08:15:00.000Z"}},"request":{"method":"PUT","url":"Procedure/6462dc04-1c42-469e-850f-324e698a94ea"}},{"fullUrl":"https://madie.cms.gov/Procedure/602707ff0df1fb00002a2b05","resource":{"resourceType":"Procedure","id":"068e7583-095c-4a99-b708-ab10e4f6c8b6","meta":{"profile":["http://hl7.org/fhir/us/qicore/StructureDefinition/qicore-procedure"]},"extension":[{"url":"http://hl7.org/fhir/us/qicore/StructureDefinition/qicore-recorded","valueDateTime":"2025-02-09T12:35:00.000Z"}],"status":"completed","code":{"coding":[{"system":"http://snomed.info/sct","code":"169396008"}]},"subject":{"reference":"Patient/28f57404-e619-4b1e-905f-5d89fffeffcd"},"performedPeriod":{"start":"2025-02-09T08:00:00.000Z","end":"2025-02-09T08:15:00.000Z"}},"request":{"method":"PUT","url":"Procedure/068e7583-095c-4a99-b708-ab10e4f6c8b6"}},{"fullUrl":"https://madie.cms.gov/Organization/123456","resource":{"resourceType":"Organization","id":"f4907415-83c5-4eae-ab0b-cb63a840880d","meta":{"profile":["http://hl7.org/fhir/us/qicore/StructureDefinition/qicore-organization"]},"identifier":[{"use":"temp","system":"urn:oid:2.16.840.1.113883.4.4","value":"21-3259825"}],"active":true,"type":[{"coding":[{"system":"http://terminology.hl7.org/CodeSystem/organization-type","code":"pay","display":"Payer"}]}],"name":"Blue Cross Blue Shield of Texas","telecom":[{"system":"phone","value":"(+1) 972-766-6900"}],"address":[{"use":"billing","type":"postal","line":["P.O. Box 660044"],"city":"Dallas","state":"TX","postalCode":"75266-0044","country":"USA"}]},"request":{"method":"PUT","url":"Organization/f4907415-83c5-4eae-ab0b-cb63a840880d"}},{"fullUrl":"https://madie.cms.gov/Practitioner/practitioner-123456","resource":{"resourceType":"Practitioner","id":"c87f7de0-fc65-408e-ab7e-7ee501b46bd2","meta":{"profile":["http://hl7.org/fhir/us/qicore/StructureDefinition/qicore-practitioner"]},"identifier":[{"system":"http://hl7.org/fhir/sid/us-npi","value":"123456"}],"name":[{"family":"Evil","prefix":["Dr"]}]},"request":{"method":"PUT","url":"Practitioner/c87f7de0-fc65-408e-ab7e-7ee501b46bd2"}},{"fullUrl":"https://madie.cms.gov/MeasureReport/f00b0d4e-d2f9-4aac-85a5-685e307f46a6","resource":{"resourceType":"MeasureReport","id":"f00b0d4e-d2f9-4aac-85a5-685e307f46a6","meta":{"profile":["http://hl7.org/fhir/us/cqfmeasures/StructureDefinition/test-case-cqfm"]},"contained":[{"resourceType":"Parameters","id":"ef83c21f-1f6e-49a4-ae37-64ed5d65dc57-parameters","parameter":[{"name":"subject","valueString":"28f57404-e619-4b1e-905f-5d89fffeffcd"}]}],"extension":[{"url":"http://hl7.org/fhir/us/cqfmeasures/StructureDefinition/cqfm-inputParameters","valueReference":{"reference":"#ef83c21f-1f6e-49a4-ae37-64ed5d65dc57-parameters"}},{"url":"http://hl7.org/fhir/us/cqfmeasures/StructureDefinition/cqfm-testCaseDescription","valueMarkdown":"Patient with cancer diagnosis that overlaps the office visits during measurement period. Patient received twice daily chemotherapy. \n"}],"modifierExtension":[{"url":"http://hl7.org/fhir/us/cqfmeasures/StructureDefinition/cqfm-isTestCase","valueBoolean":true}],"status":"complete","type":"individual","measure":"https://madie.cms.gov/Measure/OncologyPainIntensityQuantifiedFHIR","period":{"start":"2025-01-01","end":"2025-12-31"},"group":[{"population":[{"code":{"coding":[{"system":"http://terminology.hl7.org/CodeSystem/measure-population","code":"initial-population","display":"Initial Population"}]},"count":0},{"code":{"coding":[{"system":"http://terminology.hl7.org/CodeSystem/measure-population","code":"denominator","display":"Denominator"}]},"count":0},{"code":{"coding":[{"system":"http://terminology.hl7.org/CodeSystem/measure-population","code":"numerator","display":"Numerator"}]},"count":0}]},{"population":[{"code":{"coding":[{"system":"http://terminology.hl7.org/CodeSystem/measure-population","code":"initial-population","display":"Initial Population"}]},"count":0},{"code":{"coding":[{"system":"http://terminology.hl7.org/CodeSystem/measure-population","code":"denominator","display":"Denominator"}]},"count":0},{"code":{"coding":[{"system":"http://terminology.hl7.org/CodeSystem/measure-population","code":"numerator","display":"Numerator"}]},"count":0}]}]},"request":{"method":"PUT","url":"MeasureReport/f00b0d4e-d2f9-4aac-85a5-685e307f46a6"}}]}