{"resourceType":"Bundle","id":"tests-33bdb226-a5fb-4c20-a429-8dac3875b722-bundle","type":"transaction","entry":[{"fullUrl":"https://madie.cms.gov/Patient/33bdb226-a5fb-4c20-a429-8dac3875b722","resource":{"resourceType":"Patient","id":"33bdb226-a5fb-4c20-a429-8dac3875b722","meta":{"profile":["http://hl7.org/fhir/us/qicore/StructureDefinition/qicore-patient"]},"text":{"status":"generated","div":"<div xmlns=\"http://www.w3.org/1999/xhtml\"><div class=\"hapiHeaderText\">RadTxInvalidCode<b>IPPFailPop2</b></div><table class=\"hapiPropertyTable\"><tbody><tr><td>Identifier</td><td>d1b8aaec1bc687c93a6007331530738b</td></tr><tr><td>Date of birth</td><td><span>25 April 1981</span></td></tr></tbody></table></div>"},"extension":[{"url":"http://hl7.org/fhir/us/core/StructureDefinition/us-core-race","extension":[{"url":"ombCategory","valueCoding":{"system":"urn:oid:2.16.840.1.113883.6.238","code":"1002-5","display":"American Indian or Alaska Native","userSelected":true}},{"url":"text","valueString":"American Indian or Alaska Native"}]},{"url":"http://hl7.org/fhir/us/core/StructureDefinition/us-core-ethnicity","extension":[{"url":"ombCategory","valueCoding":{"system":"urn:oid:2.16.840.1.113883.6.238","code":"2135-2","display":"Hispanic or Latino","userSelected":true}},{"url":"text","valueString":"Hispanic or Latino"}]}],"identifier":[{"type":{"coding":[{"system":"http://terminology.hl7.org/CodeSystem/v2-0203","code":"MR"}]},"system":"https://bonnie-fhir.healthit.gov/","value":"62c880ec0111a60120dc21ff"}],"active":true,"name":[{"use":"usual","family":"IPPFailPop2","given":["RadTxInvalidCode"]}],"gender":"male","birthDate":"1981-04-25"},"request":{"method":"PUT","url":"Patient/33bdb226-a5fb-4c20-a429-8dac3875b722"}},{"fullUrl":"https://madie.cms.gov/Condition/5ca5260cb8484613a555a982","resource":{"resourceType":"Condition","id":"e840a87e-ca15-4da4-9618-d129ac40a88c","meta":{"profile":["http://hl7.org/fhir/us/qicore/StructureDefinition/qicore-condition"]},"clinicalStatus":{"coding":[{"system":"http://terminology.hl7.org/CodeSystem/condition-clinical","code":"active","display":"Active"}]},"verificationStatus":{"coding":[{"system":"http://terminology.hl7.org/CodeSystem/condition-ver-status","code":"confirmed","display":"Confirmed"}]},"category":[{"coding":[{"system":"http://terminology.hl7.org/CodeSystem/condition-category","code":"problem-list-item","display":"Problem List Item"}]}],"code":{"coding":[{"system":"http://hl7.org/fhir/sid/icd-10-cm","code":"C00.0"}]},"subject":{"reference":"Patient/33bdb226-a5fb-4c20-a429-8dac3875b722"},"onsetDateTime":"2021-01-06T12:45:00.000Z"},"request":{"method":"PUT","url":"Condition/e840a87e-ca15-4da4-9618-d129ac40a88c"}},{"fullUrl":"https://madie.cms.gov/Encounter/5ca5260cb8484613a555a983","resource":{"resourceType":"Encounter","id":"d90a92f6-d8ea-4584-8d01-b5ee3dca25ab","meta":{"profile":["http://hl7.org/fhir/us/qicore/StructureDefinition/qicore-encounter"]},"status":"finished","class":{"system":"http://terminology.hl7.org/CodeSystem/v3-ActCode","code":"AMB","display":"ambulatory","userSelected":true},"type":[{"coding":[{"system":"http://snomed.info/sct","code":"185463005"},{"system":"http://www.ama-assn.org/go/cpt","code":"99202"}]}],"subject":{"reference":"Patient/33bdb226-a5fb-4c20-a429-8dac3875b722"},"period":{"start":"2025-05-06T12:45:00.000Z","end":"2025-05-06T13:00:00.000Z"}},"request":{"method":"PUT","url":"Encounter/d90a92f6-d8ea-4584-8d01-b5ee3dca25ab"}},{"fullUrl":"https://madie.cms.gov/Coverage/60099ac81c76ba64612b065b","resource":{"resourceType":"Coverage","id":"197bb087-ffd7-400a-a544-04eb458ec3b8","meta":{"profile":["http://hl7.org/fhir/us/qicore/StructureDefinition/qicore-coverage"]},"status":"active","beneficiary":{"reference":"Patient/33bdb226-a5fb-4c20-a429-8dac3875b722"},"period":{"start":"1981-04-25T08:00:00.000Z"},"payor":[{"reference":"Organization/9e9b3f13-a353-4173-b29b-947d6f1f2031"}]},"request":{"method":"PUT","url":"Coverage/197bb087-ffd7-400a-a544-04eb458ec3b8"}},{"fullUrl":"https://madie.cms.gov/Encounter/5ca5260cb8484613a555a984","resource":{"resourceType":"Encounter","id":"0c752d15-e8b0-4859-8cd3-1849b4c323bc","meta":{"profile":["http://hl7.org/fhir/us/qicore/StructureDefinition/qicore-encounter"]},"status":"finished","class":{"system":"http://terminology.hl7.org/CodeSystem/v3-ActCode","code":"AMB","display":"ambulatory","userSelected":true},"type":[{"coding":[{"system":"http://www.ama-assn.org/go/cpt","code":"00000"}]}],"subject":{"reference":"Patient/33bdb226-a5fb-4c20-a429-8dac3875b722"},"period":{"start":"2025-05-06T13:30:00.000Z","end":"2025-05-06T16:30:00.000Z"}},"request":{"method":"PUT","url":"Encounter/0c752d15-e8b0-4859-8cd3-1849b4c323bc"}},{"fullUrl":"https://madie.cms.gov/Organization/123456","resource":{"resourceType":"Organization","id":"9e9b3f13-a353-4173-b29b-947d6f1f2031","meta":{"profile":["http://hl7.org/fhir/us/qicore/StructureDefinition/qicore-organization"]},"identifier":[{"use":"temp","system":"urn:oid:2.16.840.1.113883.4.4","value":"21-3259825"}],"active":true,"type":[{"coding":[{"system":"http://terminology.hl7.org/CodeSystem/organization-type","code":"pay","display":"Payer"}]}],"name":"Blue Cross Blue Shield of Texas","telecom":[{"system":"phone","value":"(+1) 972-766-6900"}],"address":[{"use":"billing","type":"postal","line":["P.O. Box 660044"],"city":"Dallas","state":"TX","postalCode":"75266-0044","country":"USA"}]},"request":{"method":"PUT","url":"Organization/9e9b3f13-a353-4173-b29b-947d6f1f2031"}},{"fullUrl":"https://madie.cms.gov/Practitioner/practitioner-123456","resource":{"resourceType":"Practitioner","id":"48f227d2-d758-4b8e-9bdb-ed8ab1bc468b","meta":{"profile":["http://hl7.org/fhir/us/qicore/StructureDefinition/qicore-practitioner"]},"identifier":[{"system":"http://hl7.org/fhir/sid/us-npi","value":"123456"}],"name":[{"family":"Evil","prefix":["Dr"]}]},"request":{"method":"PUT","url":"Practitioner/48f227d2-d758-4b8e-9bdb-ed8ab1bc468b"}},{"fullUrl":"https://madie.cms.gov/MeasureReport/af4c12a9-36ab-465e-a8d6-83e5285aabe3","resource":{"resourceType":"MeasureReport","id":"af4c12a9-36ab-465e-a8d6-83e5285aabe3","meta":{"profile":["http://hl7.org/fhir/us/cqfmeasures/StructureDefinition/test-case-cqfm"]},"contained":[{"resourceType":"Parameters","id":"0013ba1f-ffe3-4154-bcd2-24d30741302d-parameters","parameter":[{"name":"subject","valueString":"33bdb226-a5fb-4c20-a429-8dac3875b722"}]}],"extension":[{"url":"http://hl7.org/fhir/us/cqfmeasures/StructureDefinition/cqfm-inputParameters","valueReference":{"reference":"#0013ba1f-ffe3-4154-bcd2-24d30741302d-parameters"}},{"url":"http://hl7.org/fhir/us/cqfmeasures/StructureDefinition/cqfm-testCaseDescription","valueMarkdown":"Patient with cancer diagnosis that overlaps radiation treatment management during measurement period, but radiation treatment management contains invalid code.\n"}],"modifierExtension":[{"url":"http://hl7.org/fhir/us/cqfmeasures/StructureDefinition/cqfm-isTestCase","valueBoolean":true}],"status":"complete","type":"individual","measure":"https://madie.cms.gov/Measure/OncologyPainIntensityQuantifiedFHIR","period":{"start":"2025-01-01","end":"2025-12-31"},"group":[{"population":[{"code":{"coding":[{"system":"http://terminology.hl7.org/CodeSystem/measure-population","code":"initial-population","display":"Initial Population"}]},"count":0},{"code":{"coding":[{"system":"http://terminology.hl7.org/CodeSystem/measure-population","code":"denominator","display":"Denominator"}]},"count":0},{"code":{"coding":[{"system":"http://terminology.hl7.org/CodeSystem/measure-population","code":"numerator","display":"Numerator"}]},"count":0}]},{"population":[{"code":{"coding":[{"system":"http://terminology.hl7.org/CodeSystem/measure-population","code":"initial-population","display":"Initial Population"}]},"count":0},{"code":{"coding":[{"system":"http://terminology.hl7.org/CodeSystem/measure-population","code":"denominator","display":"Denominator"}]},"count":0},{"code":{"coding":[{"system":"http://terminology.hl7.org/CodeSystem/measure-population","code":"numerator","display":"Numerator"}]},"count":0}]}]},"request":{"method":"PUT","url":"MeasureReport/af4c12a9-36ab-465e-a8d6-83e5285aabe3"}}]}