{"resourceType":"Bundle","id":"tests-5327f324-e0f7-4e95-92ea-a534864a978b-bundle","type":"transaction","entry":[{"fullUrl":"https://madie.cms.gov/Patient/5327f324-e0f7-4e95-92ea-a534864a978b","resource":{"resourceType":"Patient","id":"5327f324-e0f7-4e95-92ea-a534864a978b","meta":{"profile":["http://hl7.org/fhir/us/qicore/StructureDefinition/qicore-patient"]},"text":{"status":"generated","div":"<div xmlns=\"http://www.w3.org/1999/xhtml\"><div class=\"hapiHeaderText\">MultEncChemo30DaysAfterAndWithinMP<b>DENOMPassPOP1</b></div><table class=\"hapiPropertyTable\"><tbody><tr><td>Date of birth</td><td><span>18 February 1970</span></td></tr></tbody></table></div>"},"extension":[{"url":"http://hl7.org/fhir/us/core/StructureDefinition/us-core-race","extension":[{"url":"ombCategory","valueCoding":{"system":"urn:oid:2.16.840.1.113883.6.238","code":"1002-5","display":"American Indian or Alaska Native","userSelected":true}},{"url":"text","valueString":"American Indian or Alaska Native"}]},{"url":"http://hl7.org/fhir/us/core/StructureDefinition/us-core-ethnicity","extension":[{"url":"ombCategory","valueCoding":{"system":"urn:oid:2.16.840.1.113883.6.238","code":"2135-2","display":"Hispanic or Latino","userSelected":true}},{"url":"text","valueString":"Hispanic or Latino"}]}],"identifier":[{"type":{"coding":[{"system":"http://terminology.hl7.org/CodeSystem/v2-0203","code":"MR"}]},"system":"https://bonnie-fhir.healthit.gov/","value":"62c880eb0111a60120dc21eb"}],"active":true,"name":[{"use":"usual","family":"DENOMPassPop1","given":["MultEncChemo30DaysAfterAndWithinMP"]}],"gender":"female","birthDate":"1970-02-18"},"request":{"method":"PUT","url":"Patient/5327f324-e0f7-4e95-92ea-a534864a978b"}},{"fullUrl":"https://madie.cms.gov/Condition/602703030df1fb00002a24b1","resource":{"resourceType":"Condition","id":"d8efd61f-4b9e-4fcf-8b3f-f9c610f4617a","meta":{"profile":["http://hl7.org/fhir/us/qicore/StructureDefinition/qicore-condition"]},"clinicalStatus":{"coding":[{"system":"http://terminology.hl7.org/CodeSystem/condition-clinical","code":"active","display":"active","userSelected":true}]},"verificationStatus":{"coding":[{"system":"http://terminology.hl7.org/CodeSystem/condition-ver-status","code":"confirmed","display":"Confirmed"}]},"category":[{"coding":[{"system":"http://terminology.hl7.org/CodeSystem/condition-category","code":"encounter-diagnosis","display":"Encounter Diagnosis"},{"system":"http://terminology.hl7.org/CodeSystem/condition-category","code":"problem-list-item","display":"Problem List Item"}]}],"code":{"coding":[{"system":"http://snomed.info/sct","code":"107691000119101"},{"system":"http://hl7.org/fhir/sid/icd-10-cm","code":"C48.0"}]},"subject":{"reference":"Patient/5327f324-e0f7-4e95-92ea-a534864a978b"},"onsetDateTime":"2025-11-01T08:00:00.000Z"},"request":{"method":"PUT","url":"Condition/d8efd61f-4b9e-4fcf-8b3f-f9c610f4617a"}},{"fullUrl":"https://madie.cms.gov/Encounter/6027038b0df1fb00002a252b","resource":{"resourceType":"Encounter","id":"416c0154-4b83-4f7b-bf57-57b87fd8ebcb","meta":{"profile":["http://hl7.org/fhir/us/qicore/StructureDefinition/qicore-encounter"]},"status":"finished","class":{"system":"http://terminology.hl7.org/CodeSystem/v3-ActCode","code":"AMB","display":"ambulatory","userSelected":true},"type":[{"coding":[{"system":"http://snomed.info/sct","code":"185463005"}]}],"subject":{"reference":"Patient/5327f324-e0f7-4e95-92ea-a534864a978b"},"period":{"start":"2025-12-06T08:00:00.000Z","end":"2025-12-06T08:15:00.000Z"}},"request":{"method":"PUT","url":"Encounter/416c0154-4b83-4f7b-bf57-57b87fd8ebcb"}},{"fullUrl":"https://madie.cms.gov/Encounter/602703cf0df1fb00002a25b9","resource":{"resourceType":"Encounter","id":"8672e7a5-de5c-4197-b96c-33bef8e39cdf","meta":{"profile":["http://hl7.org/fhir/us/qicore/StructureDefinition/qicore-encounter"]},"status":"finished","class":{"system":"http://terminology.hl7.org/CodeSystem/v3-ActCode","code":"AMB","display":"ambulatory","userSelected":true},"type":[{"coding":[{"system":"http://snomed.info/sct","code":"185463005"}]}],"subject":{"reference":"Patient/5327f324-e0f7-4e95-92ea-a534864a978b"},"period":{"start":"2025-01-02T08:00:00.000Z","end":"2025-01-02T08:15:00.000Z"}},"request":{"method":"PUT","url":"Encounter/8672e7a5-de5c-4197-b96c-33bef8e39cdf"}},{"fullUrl":"https://madie.cms.gov/Coverage/61043692a2f9161878c53ab1","resource":{"resourceType":"Coverage","id":"9d105345-0a96-49dc-a468-d334f043ccaf","meta":{"profile":["http://hl7.org/fhir/us/qicore/StructureDefinition/qicore-coverage"]},"status":"active","beneficiary":{"reference":"Patient/5327f324-e0f7-4e95-92ea-a534864a978b"},"period":{"start":"1970-02-18T08:00:00.000Z"},"payor":[{"reference":"Organization/9e9b3f13-a353-4173-b29b-947d6f1f2031"}]},"request":{"method":"PUT","url":"Coverage/9d105345-0a96-49dc-a468-d334f043ccaf"}},{"fullUrl":"https://madie.cms.gov/Procedure/602703ac0df1fb00002a2563","resource":{"resourceType":"Procedure","id":"24369228-844b-43f9-b23b-370f2037836b","meta":{"profile":["http://hl7.org/fhir/us/qicore/StructureDefinition/qicore-procedure"]},"extension":[{"url":"http://hl7.org/fhir/us/qicore/StructureDefinition/qicore-recorded","valueDateTime":"2025-12-06T12:35:00.000Z"}],"status":"completed","code":{"coding":[{"system":"http://snomed.info/sct","code":"169396008"}]},"subject":{"reference":"Patient/5327f324-e0f7-4e95-92ea-a534864a978b"},"performedPeriod":{"start":"2025-12-06T08:00:00.000Z","end":"2025-12-06T08:15:00.000Z"}},"request":{"method":"PUT","url":"Procedure/24369228-844b-43f9-b23b-370f2037836b"}},{"fullUrl":"https://madie.cms.gov/Procedure/602703ba0df1fb00002a257b","resource":{"resourceType":"Procedure","id":"8e6ae6e9-5e20-4848-b3b5-59569645a29d","meta":{"profile":["http://hl7.org/fhir/us/qicore/StructureDefinition/qicore-procedure"]},"extension":[{"url":"http://hl7.org/fhir/us/qicore/StructureDefinition/qicore-recorded","valueDateTime":"2025-12-31T08:35:00.000Z"}],"status":"completed","code":{"coding":[{"system":"http://snomed.info/sct","code":"169396008"}]},"subject":{"reference":"Patient/5327f324-e0f7-4e95-92ea-a534864a978b"},"performedPeriod":{"start":"2025-12-31T08:00:00.000Z","end":"2025-12-31T08:15:00.000Z"}},"request":{"method":"PUT","url":"Procedure/8e6ae6e9-5e20-4848-b3b5-59569645a29d"}},{"fullUrl":"https://madie.cms.gov/Procedure/602703e10df1fb00002a25e2","resource":{"resourceType":"Procedure","id":"eb0408be-e9c7-4885-ab75-caf491ab9c0f","meta":{"profile":["http://hl7.org/fhir/us/qicore/StructureDefinition/qicore-procedure"]},"extension":[{"url":"http://hl7.org/fhir/us/qicore/StructureDefinition/qicore-recorded","valueDateTime":"2025-01-02T12:35:00.000Z"}],"status":"completed","code":{"coding":[{"system":"http://snomed.info/sct","code":"169396008"}]},"subject":{"reference":"Patient/5327f324-e0f7-4e95-92ea-a534864a978b"},"performedPeriod":{"start":"2025-01-02T08:00:00.000Z","end":"2025-01-02T08:15:00.000Z"}},"request":{"method":"PUT","url":"Procedure/eb0408be-e9c7-4885-ab75-caf491ab9c0f"}},{"fullUrl":"https://madie.cms.gov/Procedure/602703f50df1fb00002a261c","resource":{"resourceType":"Procedure","id":"7719c5ac-6d04-43ae-92dc-bebed9fe14a1","meta":{"profile":["http://hl7.org/fhir/us/qicore/StructureDefinition/qicore-procedure"]},"extension":[{"url":"http://hl7.org/fhir/us/qicore/StructureDefinition/qicore-recorded","valueDateTime":"2025-01-09T12:35:00.000Z"}],"status":"completed","code":{"coding":[{"system":"http://snomed.info/sct","code":"169396008"}]},"subject":{"reference":"Patient/5327f324-e0f7-4e95-92ea-a534864a978b"},"performedPeriod":{"start":"2025-01-09T08:00:00.000Z","end":"2025-01-09T08:15:00.000Z"}},"request":{"method":"PUT","url":"Procedure/7719c5ac-6d04-43ae-92dc-bebed9fe14a1"}},{"fullUrl":"https://madie.cms.gov/Procedure/602704110df1fb00002a264b","resource":{"resourceType":"Procedure","id":"eecc7043-5778-4b45-932b-1f97f2db66b3","meta":{"profile":["http://hl7.org/fhir/us/qicore/StructureDefinition/qicore-procedure"]},"extension":[{"url":"http://hl7.org/fhir/us/qicore/StructureDefinition/qicore-recorded","valueDateTime":"2025-01-16T12:35:00.000Z"}],"status":"completed","code":{"coding":[{"system":"http://snomed.info/sct","code":"169396008"}]},"subject":{"reference":"Patient/5327f324-e0f7-4e95-92ea-a534864a978b"},"performedPeriod":{"start":"2025-01-16T08:00:00.000Z","end":"2025-01-16T08:15:00.000Z"}},"request":{"method":"PUT","url":"Procedure/eecc7043-5778-4b45-932b-1f97f2db66b3"}},{"fullUrl":"https://madie.cms.gov/Procedure/602704540df1fb00002a26a0","resource":{"resourceType":"Procedure","id":"77510c48-9dd7-466e-94ba-59dd7a0c7d11","meta":{"profile":["http://hl7.org/fhir/us/qicore/StructureDefinition/qicore-procedure"]},"extension":[{"url":"http://hl7.org/fhir/us/qicore/StructureDefinition/qicore-recorded","valueDateTime":"2025-01-23T12:35:00.000Z"}],"status":"completed","code":{"coding":[{"system":"http://snomed.info/sct","code":"169396008"}]},"subject":{"reference":"Patient/5327f324-e0f7-4e95-92ea-a534864a978b"},"performedPeriod":{"start":"2025-01-23T08:00:00.000Z","end":"2025-01-23T08:15:00.000Z"}},"request":{"method":"PUT","url":"Procedure/77510c48-9dd7-466e-94ba-59dd7a0c7d11"}},{"fullUrl":"https://madie.cms.gov/Organization/123456","resource":{"resourceType":"Organization","id":"9e9b3f13-a353-4173-b29b-947d6f1f2031","meta":{"profile":["http://hl7.org/fhir/us/qicore/StructureDefinition/qicore-organization"]},"identifier":[{"use":"temp","system":"urn:oid:2.16.840.1.113883.4.4","value":"21-3259825"}],"active":true,"type":[{"coding":[{"system":"http://terminology.hl7.org/CodeSystem/organization-type","code":"pay","display":"Payer"}]}],"name":"Blue Cross Blue Shield of Texas","telecom":[{"system":"phone","value":"(+1) 972-766-6900"}],"address":[{"use":"billing","type":"postal","line":["P.O. Box 660044"],"city":"Dallas","state":"TX","postalCode":"75266-0044","country":"USA"}]},"request":{"method":"PUT","url":"Organization/9e9b3f13-a353-4173-b29b-947d6f1f2031"}},{"fullUrl":"https://madie.cms.gov/MeasureReport/66b9bc81-7d88-49bb-89ce-32f790c3a926","resource":{"resourceType":"MeasureReport","id":"66b9bc81-7d88-49bb-89ce-32f790c3a926","meta":{"profile":["http://hl7.org/fhir/us/cqfmeasures/StructureDefinition/test-case-cqfm"]},"contained":[{"resourceType":"Parameters","id":"1469a2fe-6244-44d0-b82a-71ea489c4076-parameters","parameter":[{"name":"subject","valueString":"5327f324-e0f7-4e95-92ea-a534864a978b"}]}],"extension":[{"url":"http://hl7.org/fhir/us/cqfmeasures/StructureDefinition/cqfm-inputParameters","valueReference":{"reference":"#1469a2fe-6244-44d0-b82a-71ea489c4076-parameters"}},{"url":"http://hl7.org/fhir/us/cqfmeasures/StructureDefinition/cqfm-testCaseDescription","valueMarkdown":"Patient encounter and chemo within 30 days after the measurement period, and has encounter and treatment during measurement period. "}],"modifierExtension":[{"url":"http://hl7.org/fhir/us/cqfmeasures/StructureDefinition/cqfm-isTestCase","valueBoolean":true}],"status":"complete","type":"individual","measure":"https://madie.cms.gov/Measure/OncologyPainIntensityQuantifiedFHIR","period":{"start":"2025-01-01","end":"2025-12-31"},"group":[{"population":[{"code":{"coding":[{"system":"http://terminology.hl7.org/CodeSystem/measure-population","code":"initial-population","display":"Initial Population"}]},"count":1},{"code":{"coding":[{"system":"http://terminology.hl7.org/CodeSystem/measure-population","code":"denominator","display":"Denominator"}]},"count":1},{"code":{"coding":[{"system":"http://terminology.hl7.org/CodeSystem/measure-population","code":"numerator","display":"Numerator"}]},"count":0}]},{"population":[{"code":{"coding":[{"system":"http://terminology.hl7.org/CodeSystem/measure-population","code":"initial-population","display":"Initial Population"}]},"count":0},{"code":{"coding":[{"system":"http://terminology.hl7.org/CodeSystem/measure-population","code":"denominator","display":"Denominator"}]},"count":0},{"code":{"coding":[{"system":"http://terminology.hl7.org/CodeSystem/measure-population","code":"numerator","display":"Numerator"}]},"count":0}]}]},"request":{"method":"PUT","url":"MeasureReport/66b9bc81-7d88-49bb-89ce-32f790c3a926"}}]}