{
  "resourceType": "Bundle",
  "id": "6179e726ad1a790b7af75248",
  "type": "transaction",
  "entry": [ {
    "fullUrl": "https://madie.cms.gov/Patient/c485da91-d480-4bb6-b24d-0280bda7c512",
    "resource": {
      "resourceType": "Patient",
      "id": "c485da91-d480-4bb6-b24d-0280bda7c512",
      "meta": {
        "profile": [ "http://hl7.org/fhir/us/qicore/StructureDefinition/qicore-patient" ]
      },
      "extension": [ {
        "url": "http://hl7.org/fhir/us/core/StructureDefinition/us-core-race",
        "extension": [ {
          "url": "ombCategory",
          "valueCoding": {
            "system": "urn:oid:2.16.840.1.113883.6.238",
            "code": "2076-8",
            "display": "Native Hawaiian or Other Pacific Islander",
            "userSelected": true
          }
        }, {
          "url": "text",
          "valueString": "Native Hawaiian or Other Pacific Islander"
        } ]
      }, {
        "url": "http://hl7.org/fhir/us/core/StructureDefinition/us-core-ethnicity",
        "extension": [ {
          "url": "ombCategory",
          "valueCoding": {
            "system": "urn:oid:2.16.840.1.113883.6.238",
            "code": "2186-5",
            "display": "Not Hispanic or Latino",
            "userSelected": true
          }
        }, {
          "url": "text",
          "valueString": "Not Hispanic or Latino"
        } ]
      } ],
      "identifier": [ {
        "type": {
          "coding": [ {
            "system": "http://terminology.hl7.org/CodeSystem/v2-0203",
            "code": "MR"
          } ]
        },
        "system": "https://bonnie-fhir.healthit.gov/",
        "value": "6179e726ad1a790b7af75248"
      } ],
      "name": [ {
        "family": "DenExcl1Pass",
        "given": [ "DxExclStartsDuringEndsAfterED" ]
      } ],
      "gender": "female",
      "birthDate": "1985-12-02"
    },
    "request": {
      "method": "PUT",
      "url": "Patient/c485da91-d480-4bb6-b24d-0280bda7c512"
    }
  }, {
    "fullUrl": "https://madie.cms.gov/Encounter/b27e290d-1f76-44f3-a54a-f6b5517aa101",
    "resource": {
      "resourceType": "Encounter",
      "id": "b27e290d-1f76-44f3-a54a-f6b5517aa101",
      "meta": {
        "profile": [ "http://hl7.org/fhir/us/qicore/StructureDefinition/qicore-encounter" ]
      },
      "status": "finished",
      "class": {
        "system": "http://terminology.hl7.org/CodeSystem/v3-ActCode",
        "code": "EMER",
        "display": "emergency",
        "userSelected": true
      },
      "type": [ {
        "coding": [ {
          "system": "http://snomed.info/sct",
          "version": "2020-09",
          "code": "4525004",
          "display": "Emergency department patient visit (procedure)",
          "userSelected": true
        } ]
      } ],
      "subject": {
        "reference": "Patient/c485da91-d480-4bb6-b24d-0280bda7c512"
      },
      "period": {
        "start": "2026-10-09T08:05:00.000+00:00",
        "end": "2026-10-10T07:15:00.000+00:00"
      }
    },
    "request": {
      "method": "PUT",
      "url": "Encounter/b27e290d-1f76-44f3-a54a-f6b5517aa101"
    }
  }, {
    "fullUrl": "https://madie.cms.gov/Condition/a9b2dcc7-f4dd-4f3e-ac4d-2c508aeeb52d",
    "resource": {
      "resourceType": "Condition",
      "id": "a9b2dcc7-f4dd-4f3e-ac4d-2c508aeeb52d",
      "meta": {
        "profile": [ "http://hl7.org/fhir/us/qicore/StructureDefinition/qicore-condition" ]
      },
      "clinicalStatus": {
        "coding": [ {
          "system": "http://terminology.hl7.org/CodeSystem/condition-clinical",
          "code": "active",
          "display": "active",
          "userSelected": true
        } ]
      },
      "category": [ {
        "coding": [ {
          "system": "http://terminology.hl7.org/CodeSystem/condition-category",
          "code": "encounter-diagnosis",
          "display": "Encounter Diagnosis",
          "userSelected": true
        } ]
      } ],
      "code": {
        "coding": [ {
          "system": "http://snomed.info/sct",
          "version": "2020-09",
          "code": "401303003",
          "display": "Acute ST segment elevation myocardial infarction (disorder)",
          "userSelected": true
        } ]
      },
      "subject": {
        "reference": "Patient/c485da91-d480-4bb6-b24d-0280bda7c512"
      },
      "onsetDateTime": "2026-10-09T08:30:00.000+00:00"
    },
    "request": {
      "method": "PUT",
      "url": "Condition/a9b2dcc7-f4dd-4f3e-ac4d-2c508aeeb52d"
    }
  }, {
    "fullUrl": "https://madie.cms.gov/Condition/eda52ebc-875f-478d-bbf3-8d4b7f98e009",
    "resource": {
      "resourceType": "Condition",
      "id": "eda52ebc-875f-478d-bbf3-8d4b7f98e009",
      "meta": {
        "profile": [ "http://hl7.org/fhir/us/qicore/StructureDefinition/qicore-condition" ]
      },
      "clinicalStatus": {
        "coding": [ {
          "system": "http://terminology.hl7.org/CodeSystem/condition-clinical",
          "version": "4.0.1",
          "code": "inactive",
          "display": "Inactive",
          "userSelected": true
        } ]
      },
      "category": [ {
        "coding": [ {
          "system": "http://terminology.hl7.org/CodeSystem/condition-category",
          "code": "encounter-diagnosis",
          "display": "Encounter Diagnosis",
          "userSelected": true
        } ]
      } ],
      "code": {
        "coding": [ {
          "system": "http://snomed.info/sct",
          "version": "2020-09",
          "code": "14336007",
          "display": "Ruptured abdominal aortic aneurysm (disorder)",
          "userSelected": true
        } ]
      },
      "subject": {
        "reference": "Patient/c485da91-d480-4bb6-b24d-0280bda7c512"
      },
      "onsetDateTime": "2026-10-09T13:00:00.000+00:00",
      "abatementDateTime": "2026-11-07T09:15:00.000+00:00"
    },
    "request": {
      "method": "PUT",
      "url": "Condition/eda52ebc-875f-478d-bbf3-8d4b7f98e009"
    }
  }, {
    "fullUrl": "https://madie.cms.gov/MeasureReport/ffa2eedf-4e28-4c38-bb0d-35036c0a6dc4",
    "resource": {
      "resourceType": "MeasureReport",
      "id": "ffa2eedf-4e28-4c38-bb0d-35036c0a6dc4",
      "meta": {
        "profile": [ "http://hl7.org/fhir/us/cqfmeasures/StructureDefinition/test-case-cqfm" ]
      },
      "contained": [ {
        "resourceType": "Parameters",
        "id": "f289a839-0281-4914-862f-198f6da52e96-parameters",
        "parameter": [ {
          "name": "subject",
          "valueString": "c485da91-d480-4bb6-b24d-0280bda7c512"
        } ]
      } ],
      "extension": [ {
        "url": "http://hl7.org/fhir/us/cqfmeasures/StructureDefinition/cqfm-inputParameters",
        "valueReference": {
          "reference": "#f289a839-0281-4914-862f-198f6da52e96-parameters"
        }
      }, {
        "url": "http://hl7.org/fhir/us/cqfmeasures/StructureDefinition/cqfm-testCaseDescription",
        "valueMarkdown": "Patient has aortic dissection (exclusion diagnosis) that starts during and ends after the ED encounter"
      } ],
      "modifierExtension": [ {
        "url": "http://hl7.org/fhir/us/cqfmeasures/StructureDefinition/cqfm-isTestCase",
        "valueBoolean": true
      } ],
      "status": "complete",
      "type": "individual",
      "measure": "https://madie.cms.gov/Measure/CMS996FHIRAptTxforSTEMI",
      "period": {
        "start": "2026-01-01",
        "end": "2026-12-31"
      },
      "group": [ {
        "population": [ {
          "code": {
            "coding": [ {
              "system": "http://terminology.hl7.org/CodeSystem/measure-population",
              "code": "initial-population",
              "display": "Initial Population"
            } ]
          },
          "count": 1
        }, {
          "code": {
            "coding": [ {
              "system": "http://terminology.hl7.org/CodeSystem/measure-population",
              "code": "denominator",
              "display": "Denominator"
            } ]
          },
          "count": 1
        }, {
          "code": {
            "coding": [ {
              "system": "http://terminology.hl7.org/CodeSystem/measure-population",
              "code": "denominator-exclusion",
              "display": "Denominator Exclusion"
            } ]
          },
          "count": 1
        }, {
          "code": {
            "coding": [ {
              "system": "http://terminology.hl7.org/CodeSystem/measure-population",
              "code": "numerator",
              "display": "Numerator"
            } ]
          },
          "count": 0
        }, {
          "code": {
            "coding": [ {
              "system": "http://terminology.hl7.org/CodeSystem/measure-population",
              "code": "denominator-exception",
              "display": "Denominator Exception"
            } ]
          },
          "count": 0
        } ]
      } ],
      "evaluatedResource": [ {
        "reference": "Patient/c485da91-d480-4bb6-b24d-0280bda7c512"
      }, {
        "reference": "Encounter/b27e290d-1f76-44f3-a54a-f6b5517aa101"
      }, {
        "reference": "Condition/a9b2dcc7-f4dd-4f3e-ac4d-2c508aeeb52d"
      }, {
        "reference": "Condition/eda52ebc-875f-478d-bbf3-8d4b7f98e009"
      } ]
    },
    "request": {
      "method": "PUT",
      "url": "MeasureReport/ffa2eedf-4e28-4c38-bb0d-35036c0a6dc4"
    }
  } ]
}