{
  "resourceType": "Bundle",
  "id": "6129131a02c62a011f2e5ba9",
  "type": "transaction",
  "entry": [ {
    "fullUrl": "https://madie.cms.gov/Patient/7b1ac1a8-b7be-41ec-a77f-db545af22263",
    "resource": {
      "resourceType": "Patient",
      "id": "7b1ac1a8-b7be-41ec-a77f-db545af22263",
      "meta": {
        "profile": [ "http://hl7.org/fhir/us/qicore/StructureDefinition/qicore-patient" ]
      },
      "text": {
        "status": "generated",
        "div": "<div xmlns=\"http://www.w3.org/1999/xhtml\"><div class=\"hapiHeaderText\">MedDscPatRsnDTimeEQEncStopTime <b>DENEXCEPPASS </b></div><table class=\"hapiPropertyTable\"><tbody><tr><td>Identifier</td><td>f27996c6545ea958dc5266f6c01bdf6c</td></tr><tr><td>Date of birth</td><td><span>21 August 1994</span></td></tr></tbody></table></div>"
      },
      "extension": [ {
        "url": "http://hl7.org/fhir/us/core/StructureDefinition/us-core-race",
        "extension": [ {
          "url": "ombCategory",
          "valueCoding": {
            "system": "urn:oid:2.16.840.1.113883.6.238",
            "code": "1002-5",
            "display": "American Indian or Alaska Native",
            "userSelected": true
          }
        }, {
          "url": "text",
          "valueString": "American Indian or Alaska Native"
        } ]
      }, {
        "url": "http://hl7.org/fhir/us/core/StructureDefinition/us-core-ethnicity",
        "extension": [ {
          "url": "ombCategory",
          "valueCoding": {
            "system": "urn:oid:2.16.840.1.113883.6.238",
            "code": "2135-2",
            "display": "Hispanic or Latino",
            "userSelected": true
          }
        }, {
          "url": "text",
          "valueString": "Hispanic or Latino"
        } ]
      } ],
      "identifier": [ {
        "type": {
          "coding": [ {
            "system": "http://terminology.hl7.org/CodeSystem/v2-0203",
            "code": "MR"
          } ]
        },
        "system": "https://bonnie-fhir.healthit.gov/",
        "value": "6129131a02c62a011f2e5ba9"
      } ],
      "active": true,
      "name": [ {
        "use": "usual",
        "family": "DENEXCEPPass",
        "given": [ "MedDscPatRsnDTimeEQEncStopTime" ]
      } ],
      "gender": "male",
      "birthDate": "1995-08-21"
    },
    "request": {
      "method": "PUT",
      "url": "Patient/7b1ac1a8-b7be-41ec-a77f-db545af22263"
    }
  }, {
    "fullUrl": "https://madie.cms.gov/Encounter/e6ac2313-12fc-466d-b341-0542c00b4dcc",
    "resource": {
      "resourceType": "Encounter",
      "id": "e6ac2313-12fc-466d-b341-0542c00b4dcc",
      "meta": {
        "profile": [ "http://hl7.org/fhir/us/qicore/StructureDefinition/qicore-encounter" ]
      },
      "status": "finished",
      "class": {
        "system": "http://terminology.hl7.org/CodeSystem/v3-ActCode",
        "code": "IMP",
        "display": "inpatient encounter",
        "userSelected": true
      },
      "type": [ {
        "coding": [ {
          "system": "http://snomed.info/sct",
          "code": "32485007"
        } ]
      } ],
      "subject": {
        "reference": "Patient/7b1ac1a8-b7be-41ec-a77f-db545af22263"
      },
      "period": {
        "start": "2026-10-10T09:30:00.000+00:00",
        "end": "2026-10-12T10:30:00.000+00:00"
      },
      "length": {
        "value": 2,
        "unit": "days"
      },
      "diagnosis": [ {
        "condition": {
          "reference": "Condition/24f556a7-4f81-4fca-845d-f793362790bf"
        },
        "use": {
          "coding": [ {
            "system": "http://terminology.hl7.org/CodeSystem/diagnosis-role",
            "code": "billing",
            "display": "Billing"
          } ]
        },
        "rank": 1
      } ]
    },
    "request": {
      "method": "PUT",
      "url": "Encounter/e6ac2313-12fc-466d-b341-0542c00b4dcc"
    }
  }, {
    "fullUrl": "https://madie.cms.gov/MedicationRequest/10128be6-05d6-49b1-b2ee-7030995dcd16",
    "resource": {
      "resourceType": "MedicationRequest",
      "id": "10128be6-05d6-49b1-b2ee-7030995dcd16",
      "meta": {
        "profile": [ "http://hl7.org/fhir/us/qicore/StructureDefinition/qicore-mednotrequested" ]
      },
      "status": "completed",
      "intent": "order",
      "category": [ {
        "coding": [ {
          "system": "http://terminology.hl7.org/CodeSystem/medicationrequest-category",
          "code": "community"
        } ]
      } ],
      "doNotPerform": true,
      "medicationCodeableConcept": {
        "coding": [ {
          "system": "http://www.nlm.nih.gov/research/umls/rxnorm",
          "code": "1037045"
        } ]
      },
      "subject": {
        "reference": "Patient/7b1ac1a8-b7be-41ec-a77f-db545af22263"
      },
      "authoredOn": "2026-10-12T10:30:00.000+00:00",
      "requester": {
        "reference": "Practitioner/example"
      },
      "reasonCode": [ {
        "coding": [ {
          "system": "http://snomed.info/sct",
          "code": "443390004",
          "display": "Refused"
        } ]
      } ]
    },
    "request": {
      "method": "PUT",
      "url": "MedicationRequest/10128be6-05d6-49b1-b2ee-7030995dcd16"
    }
  }, {
    "fullUrl": "https://madie.cms.gov/Condition/24f556a7-4f81-4fca-845d-f793362790bf",
    "resource": {
      "resourceType": "Condition",
      "id": "24f556a7-4f81-4fca-845d-f793362790bf",
      "meta": {
        "profile": [ "http://hl7.org/fhir/us/qicore/StructureDefinition/qicore-condition" ]
      },
      "clinicalStatus": {
        "coding": [ {
          "system": "http://terminology.hl7.org/CodeSystem/condition-clinical",
          "code": "active"
        } ]
      },
      "verificationStatus": {
        "coding": [ {
          "system": "http://terminology.hl7.org/CodeSystem/condition-ver-status",
          "code": "confirmed"
        } ]
      },
      "category": [ {
        "coding": [ {
          "system": "http://terminology.hl7.org/CodeSystem/condition-category",
          "code": "encounter-diagnosis",
          "display": "Encounter Diagnosis"
        } ]
      } ],
      "code": {
        "coding": [ {
          "system": "http://snomed.info/sct",
          "version": "2020-09",
          "code": "111297002",
          "display": "Nonparalytic stroke (disorder)",
          "userSelected": true
        } ]
      },
      "subject": {
        "reference": "Patient/7b1ac1a8-b7be-41ec-a77f-db545af22263"
      },
      "recordedDate": "2026-07-14T08:00:00.000+00:00"
    },
    "request": {
      "method": "PUT",
      "url": "Condition/24f556a7-4f81-4fca-845d-f793362790bf"
    }
  }, {
    "fullUrl": "https://madie.cms.gov/Coverage/35a1db08-cd7d-4aec-8106-47f55bde6119",
    "resource": {
      "resourceType": "Coverage",
      "id": "35a1db08-cd7d-4aec-8106-47f55bde6119",
      "meta": {
        "profile": [ "http://hl7.org/fhir/us/qicore/StructureDefinition/qicore-coverage" ]
      },
      "status": "active",
      "beneficiary": {
        "reference": "Patient/7b1ac1a8-b7be-41ec-a77f-db545af22263"
      },
      "payor": [ {
        "reference": "Organization/9bcf5094-3639-4105-ae91-fb04208152cd"
      } ]
    },
    "request": {
      "method": "PUT",
      "url": "Coverage/35a1db08-cd7d-4aec-8106-47f55bde6119"
    }
  }, {
    "fullUrl": "https://madie.cms.gov/Organization/9bcf5094-3639-4105-ae91-fb04208152cd",
    "resource": {
      "resourceType": "Organization",
      "id": "9bcf5094-3639-4105-ae91-fb04208152cd",
      "meta": {
        "profile": [ "http://hl7.org/fhir/us/qicore/StructureDefinition/qicore-organization" ]
      },
      "identifier": [ {
        "use": "temp",
        "system": "urn:oid:2.16.840.1.113883.4.4",
        "value": "21-3259825"
      } ],
      "active": true,
      "type": [ {
        "coding": [ {
          "system": "http://terminology.hl7.org/CodeSystem/organization-type",
          "code": "pay",
          "display": "Payer"
        } ]
      } ],
      "name": "Blue Cross Blue Shield of Texas",
      "telecom": [ {
        "system": "phone",
        "value": "(+1) 972-766-6900"
      } ],
      "address": [ {
        "use": "billing",
        "type": "postal",
        "line": [ "P.O. Box 660044" ],
        "city": "Dallas",
        "state": "TX",
        "postalCode": "75266-0044",
        "country": "USA"
      } ]
    },
    "request": {
      "method": "PUT",
      "url": "Organization/9bcf5094-3639-4105-ae91-fb04208152cd"
    }
  }, {
    "fullUrl": "https://madie.cms.gov/MeasureReport/5bb87d41-1abb-4df0-a29a-6d959af98c45",
    "resource": {
      "resourceType": "MeasureReport",
      "id": "5bb87d41-1abb-4df0-a29a-6d959af98c45",
      "meta": {
        "profile": [ "http://hl7.org/fhir/us/cqfmeasures/StructureDefinition/test-case-cqfm" ]
      },
      "contained": [ {
        "resourceType": "Parameters",
        "id": "1df68352-8aaf-4803-be31-78d5d6ba533e-parameters",
        "parameter": [ {
          "name": "subject",
          "valueString": "7b1ac1a8-b7be-41ec-a77f-db545af22263"
        } ]
      } ],
      "extension": [ {
        "url": "http://hl7.org/fhir/us/cqfmeasures/StructureDefinition/cqfm-inputParameters",
        "valueReference": {
          "reference": "#1df68352-8aaf-4803-be31-78d5d6ba533e-parameters"
        }
      }, {
        "url": "http://hl7.org/fhir/us/cqfmeasures/StructureDefinition/cqfm-testCaseDescription",
        "valueMarkdown": "Patient does not get antithrombotic medication due to patient refusal during IP encounter. This case tests the timing boundary for den exception criteria, refusal at end of encounter. "
      } ],
      "modifierExtension": [ {
        "url": "http://hl7.org/fhir/us/cqfmeasures/StructureDefinition/cqfm-isTestCase",
        "valueBoolean": true
      } ],
      "status": "complete",
      "type": "individual",
      "measure": "https://madie.cms.gov/Measure/CMS104FHIRSTKDCAntithrombotic",
      "period": {
        "start": "2026-01-01",
        "end": "2026-12-31"
      },
      "group": [ {
        "population": [ {
          "code": {
            "coding": [ {
              "system": "http://terminology.hl7.org/CodeSystem/measure-population",
              "code": "initial-population",
              "display": "Initial Population"
            } ]
          },
          "count": 1
        }, {
          "code": {
            "coding": [ {
              "system": "http://terminology.hl7.org/CodeSystem/measure-population",
              "code": "denominator",
              "display": "Denominator"
            } ]
          },
          "count": 1
        }, {
          "code": {
            "coding": [ {
              "system": "http://terminology.hl7.org/CodeSystem/measure-population",
              "code": "denominator-exclusion",
              "display": "Denominator Exclusion"
            } ]
          },
          "count": 0
        }, {
          "code": {
            "coding": [ {
              "system": "http://terminology.hl7.org/CodeSystem/measure-population",
              "code": "numerator",
              "display": "Numerator"
            } ]
          },
          "count": 0
        }, {
          "code": {
            "coding": [ {
              "system": "http://terminology.hl7.org/CodeSystem/measure-population",
              "code": "denominator-exception",
              "display": "Denominator Exception"
            } ]
          },
          "count": 1
        } ]
      } ],
      "evaluatedResource": [ {
        "reference": "Patient/7b1ac1a8-b7be-41ec-a77f-db545af22263"
      }, {
        "reference": "Encounter/e6ac2313-12fc-466d-b341-0542c00b4dcc"
      }, {
        "reference": "MedicationRequest/10128be6-05d6-49b1-b2ee-7030995dcd16"
      }, {
        "reference": "Condition/24f556a7-4f81-4fca-845d-f793362790bf"
      }, {
        "reference": "Coverage/35a1db08-cd7d-4aec-8106-47f55bde6119"
      }, {
        "reference": "Organization/9bcf5094-3639-4105-ae91-fb04208152cd"
      } ]
    },
    "request": {
      "method": "PUT",
      "url": "MeasureReport/5bb87d41-1abb-4df0-a29a-6d959af98c45"
    }
  } ]
}