{
  "resourceType": "Bundle",
  "id": "63594c7a6aee9629c82981df",
  "type": "transaction",
  "entry": [ {
    "fullUrl": "https://madie.cms.gov/Patient/9f456dd6-ec6a-4e0d-a977-123c24f7538a",
    "resource": {
      "resourceType": "Patient",
      "id": "9f456dd6-ec6a-4e0d-a977-123c24f7538a",
      "meta": {
        "profile": [ "http://hl7.org/fhir/us/qicore/StructureDefinition/qicore-patient" ]
      },
      "text": {
        "status": "generated",
        "div": "<div xmlns=\"http://www.w3.org/1999/xhtml\"><div class=\"hapiHeaderText\">Risk_SeverePreEclampsia <b>RISKPass </b></div><table class=\"hapiPropertyTable\"><tbody><tr><td>Date of birth</td><td><span>01 February 2004</span></td></tr></tbody></table></div>"
      },
      "extension": [ {
        "url": "http://hl7.org/fhir/us/core/StructureDefinition/us-core-race",
        "extension": [ {
          "url": "ombCategory",
          "valueCoding": {
            "system": "urn:oid:2.16.840.1.113883.6.238",
            "code": "1002-5",
            "display": "American Indian or Alaska Native",
            "userSelected": true
          }
        }, {
          "url": "text",
          "valueString": "American Indian or Alaska Native"
        } ]
      }, {
        "url": "http://hl7.org/fhir/us/core/StructureDefinition/us-core-ethnicity",
        "extension": [ {
          "url": "ombCategory",
          "valueCoding": {
            "system": "urn:oid:2.16.840.1.113883.6.238",
            "code": "2135-2",
            "display": "Hispanic or Latino",
            "userSelected": true
          }
        }, {
          "url": "text",
          "valueString": "Hispanic or Latino"
        } ]
      } ],
      "identifier": [ {
        "type": {
          "coding": [ {
            "system": "http://terminology.hl7.org/CodeSystem/v2-0203",
            "code": "MR"
          } ]
        },
        "system": "https://bonnie-fhir.healthit.gov/",
        "value": "63594c7a6aee9629c82981df"
      } ],
      "active": true,
      "name": [ {
        "use": "usual",
        "family": "RiskPass",
        "given": [ "Risk_SeverePreEclampsia" ]
      } ],
      "gender": "female",
      "birthDate": "2004-02-01"
    },
    "request": {
      "method": "PUT",
      "url": "Patient/9f456dd6-ec6a-4e0d-a977-123c24f7538a"
    }
  }, {
    "fullUrl": "https://madie.cms.gov/Observation/d7cd7437-f792-488f-a52e-8bf22d4a3802",
    "resource": {
      "resourceType": "Observation",
      "id": "d7cd7437-f792-488f-a52e-8bf22d4a3802",
      "meta": {
        "profile": [ "http://hl7.org/fhir/us/qicore/StructureDefinition/qicore-observation" ]
      },
      "status": "final",
      "category": [ {
        "coding": [ {
          "system": "http://terminology.hl7.org/CodeSystem/observation-category",
          "code": "exam",
          "display": "exam",
          "userSelected": true
        } ]
      } ],
      "code": {
        "coding": [ {
          "system": "http://loinc.org",
          "code": "93857-1"
        } ]
      },
      "subject": {
        "reference": "Patient/9f456dd6-ec6a-4e0d-a977-123c24f7538a"
      },
      "effectiveDateTime": "2025-02-01T08:00:00.000+00:00",
      "valueDateTime": "2025-02-01T08:00:00+00:00"
    },
    "request": {
      "method": "PUT",
      "url": "Observation/d7cd7437-f792-488f-a52e-8bf22d4a3802"
    }
  }, {
    "fullUrl": "https://madie.cms.gov/Observation/61aea20c-8cc9-486e-b9f3-7567fd4e48d6",
    "resource": {
      "resourceType": "Observation",
      "id": "61aea20c-8cc9-486e-b9f3-7567fd4e48d6",
      "meta": {
        "profile": [ "http://hl7.org/fhir/us/qicore/StructureDefinition/qicore-observation" ]
      },
      "status": "final",
      "category": [ {
        "coding": [ {
          "system": "http://terminology.hl7.org/CodeSystem/observation-category",
          "code": "exam",
          "display": "exam",
          "userSelected": true
        } ]
      } ],
      "code": {
        "coding": [ {
          "system": "http://loinc.org",
          "code": "11778-8"
        } ]
      },
      "subject": {
        "reference": "Patient/9f456dd6-ec6a-4e0d-a977-123c24f7538a"
      },
      "effectiveDateTime": "2025-02-01T08:00:00.000+00:00",
      "valueDateTime": "2025-02-01T00:00:00.000+00:00"
    },
    "request": {
      "method": "PUT",
      "url": "Observation/61aea20c-8cc9-486e-b9f3-7567fd4e48d6"
    }
  }, {
    "fullUrl": "https://madie.cms.gov/Encounter/ec216444-59da-4db8-9046-2e6db3732669",
    "resource": {
      "resourceType": "Encounter",
      "id": "ec216444-59da-4db8-9046-2e6db3732669",
      "meta": {
        "profile": [ "http://hl7.org/fhir/us/qicore/StructureDefinition/qicore-encounter" ]
      },
      "status": "finished",
      "class": {
        "system": "http://terminology.hl7.org/CodeSystem/v3-ActCode",
        "code": "IMP",
        "display": "inpatient encounter"
      },
      "type": [ {
        "coding": [ {
          "system": "http://snomed.info/sct",
          "code": "183452005"
        } ]
      } ],
      "subject": {
        "reference": "Patient/9f456dd6-ec6a-4e0d-a977-123c24f7538a"
      },
      "period": {
        "start": "2025-02-01T08:00:00.000Z",
        "end": "2025-02-05T08:15:00.000Z"
      },
      "diagnosis": [ {
        "extension": [ {
          "url": "http://hl7.org/fhir/us/qicore/StructureDefinition/qicore-encounter-diagnosisPresentOnAdmission",
          "valueCodeableConcept": {
            "coding": [ {
              "system": "https://www.cms.gov/Medicare/Medicare-Fee-for-Service-Payment/HospitalAcqCond/Coding",
              "code": "Y"
            } ]
          }
        } ],
        "condition": {
          "reference": "Condition/6f06f703-7ded-4e09-8a7d-b7d6a9734957"
        }
      }, {
        "extension": [ {
          "url": "http://hl7.org/fhir/us/qicore/StructureDefinition/qicore-encounter-diagnosisPresentOnAdmission",
          "valueCodeableConcept": {
            "coding": [ {
              "system": "https://www.cms.gov/Medicare/Medicare-Fee-for-Service-Payment/HospitalAcqCond/Coding",
              "code": "N"
            } ]
          }
        } ],
        "condition": {
          "reference": "Condition/7b7b634b-655c-4505-b185-101f5b95dd92"
        }
      } ]
    },
    "request": {
      "method": "PUT",
      "url": "Encounter/ec216444-59da-4db8-9046-2e6db3732669"
    }
  }, {
    "fullUrl": "https://madie.cms.gov/Procedure/43b49acd-2c7d-407d-bdf9-a861bd5a90de",
    "resource": {
      "resourceType": "Procedure",
      "id": "43b49acd-2c7d-407d-bdf9-a861bd5a90de",
      "meta": {
        "profile": [ "http://hl7.org/fhir/us/qicore/StructureDefinition/qicore-procedure" ]
      },
      "extension": [ {
        "url": "http://hl7.org/fhir/us/qicore/StructureDefinition/qicore-recorded",
        "valueDateTime": "2013-04-05T09:35:00-04:00"
      } ],
      "status": "completed",
      "code": {
        "coding": [ {
          "system": "http://snomed.info/sct",
          "code": "10745001"
        } ]
      },
      "subject": {
        "reference": "Patient/9f456dd6-ec6a-4e0d-a977-123c24f7538a"
      },
      "performedDateTime": "2025-02-01T08:00:00.000+00:00"
    },
    "request": {
      "method": "PUT",
      "url": "Procedure/43b49acd-2c7d-407d-bdf9-a861bd5a90de"
    }
  }, {
    "fullUrl": "https://madie.cms.gov/Condition/7b7b634b-655c-4505-b185-101f5b95dd92",
    "resource": {
      "resourceType": "Condition",
      "id": "7b7b634b-655c-4505-b185-101f5b95dd92",
      "meta": {
        "profile": [ "http://hl7.org/fhir/us/qicore/StructureDefinition/qicore-condition" ]
      },
      "category": [ {
        "coding": [ {
          "system": "http://terminology.hl7.org/CodeSystem/condition-category",
          "code": "encounter-diagnosis",
          "display": "Encounter Diagnosis"
        } ]
      } ],
      "code": {
        "coding": [ {
          "system": "http://hl7.org/fhir/sid/icd-10-cm",
          "version": "2023",
          "code": "A32.7",
          "display": "Listerial sepsis",
          "userSelected": true
        } ]
      },
      "subject": {
        "reference": "Patient/9f456dd6-ec6a-4e0d-a977-123c24f7538a"
      },
      "recordedDate": "2025-10-26T08:00:00.000+00:00"
    },
    "request": {
      "method": "PUT",
      "url": "Condition/7b7b634b-655c-4505-b185-101f5b95dd92"
    }
  }, {
    "fullUrl": "https://madie.cms.gov/Condition/6f06f703-7ded-4e09-8a7d-b7d6a9734957",
    "resource": {
      "resourceType": "Condition",
      "id": "6f06f703-7ded-4e09-8a7d-b7d6a9734957",
      "meta": {
        "profile": [ "http://hl7.org/fhir/us/qicore/StructureDefinition/qicore-condition" ]
      },
      "category": [ {
        "coding": [ {
          "system": "http://terminology.hl7.org/CodeSystem/condition-category",
          "code": "encounter-diagnosis",
          "display": "Encounter Diagnosis"
        } ]
      } ],
      "code": {
        "coding": [ {
          "system": "http://hl7.org/fhir/sid/icd-10-cm",
          "version": "2023",
          "code": "O11.1",
          "display": "Severe PreEclampsia",
          "userSelected": true
        } ]
      },
      "subject": {
        "reference": "Patient/9f456dd6-ec6a-4e0d-a977-123c24f7538a"
      },
      "recordedDate": "2025-10-26T08:00:00.000+00:00"
    },
    "request": {
      "method": "PUT",
      "url": "Condition/6f06f703-7ded-4e09-8a7d-b7d6a9734957"
    }
  }, {
    "fullUrl": "https://madie.cms.gov/MeasureReport/9eeac987-a4b3-401c-8995-50f046362c26",
    "resource": {
      "resourceType": "MeasureReport",
      "id": "9eeac987-a4b3-401c-8995-50f046362c26",
      "meta": {
        "profile": [ "http://hl7.org/fhir/us/cqfmeasures/StructureDefinition/test-case-cqfm" ]
      },
      "contained": [ {
        "resourceType": "Parameters",
        "id": "42c50e08-1cc3-4036-bb81-173163349b13-parameters",
        "parameter": [ {
          "name": "subject",
          "valueString": "9f456dd6-ec6a-4e0d-a977-123c24f7538a"
        } ]
      } ],
      "extension": [ {
        "url": "http://hl7.org/fhir/us/cqfmeasures/StructureDefinition/cqfm-inputParameters",
        "valueReference": {
          "reference": "#42c50e08-1cc3-4036-bb81-173163349b13-parameters"
        }
      }, {
        "url": "http://hl7.org/fhir/us/cqfmeasures/StructureDefinition/cqfm-testCaseDescription",
        "valueMarkdown": "Risk variable of severe pre-eclampsia.\n\n"
      } ],
      "modifierExtension": [ {
        "url": "http://hl7.org/fhir/us/cqfmeasures/StructureDefinition/cqfm-isTestCase",
        "valueBoolean": true
      } ],
      "status": "complete",
      "type": "individual",
      "measure": "https://madie.cms.gov/Measure/CMS1028FHIRPCSevereOBComps",
      "period": {
        "start": "2025-01-01",
        "end": "2025-12-31"
      },
      "group": [ {
        "population": [ {
          "code": {
            "coding": [ {
              "system": "http://terminology.hl7.org/CodeSystem/measure-population",
              "code": "initial-population",
              "display": "Initial Population"
            } ]
          },
          "count": 1
        }, {
          "code": {
            "coding": [ {
              "system": "http://terminology.hl7.org/CodeSystem/measure-population",
              "code": "denominator",
              "display": "Denominator"
            } ]
          },
          "count": 1
        }, {
          "code": {
            "coding": [ {
              "system": "http://terminology.hl7.org/CodeSystem/measure-population",
              "code": "numerator",
              "display": "Numerator"
            } ]
          },
          "count": 1
        }, {
          "code": {
            "coding": [ {
              "system": "http://terminology.hl7.org/CodeSystem/measure-population",
              "code": "numerator-exclusion",
              "display": "Numerator Exclusion"
            } ]
          },
          "count": 0
        } ]
      }, {
        "population": [ {
          "code": {
            "coding": [ {
              "system": "http://terminology.hl7.org/CodeSystem/measure-population",
              "code": "initial-population",
              "display": "Initial Population"
            } ]
          },
          "count": 1
        }, {
          "code": {
            "coding": [ {
              "system": "http://terminology.hl7.org/CodeSystem/measure-population",
              "code": "denominator",
              "display": "Denominator"
            } ]
          },
          "count": 1
        }, {
          "code": {
            "coding": [ {
              "system": "http://terminology.hl7.org/CodeSystem/measure-population",
              "code": "numerator",
              "display": "Numerator"
            } ]
          },
          "count": 1
        }, {
          "code": {
            "coding": [ {
              "system": "http://terminology.hl7.org/CodeSystem/measure-population",
              "code": "numerator-exclusion",
              "display": "Numerator Exclusion"
            } ]
          },
          "count": 0
        } ]
      } ],
      "evaluatedResource": [ {
        "reference": "Patient/9f456dd6-ec6a-4e0d-a977-123c24f7538a"
      }, {
        "reference": "Observation/d7cd7437-f792-488f-a52e-8bf22d4a3802"
      }, {
        "reference": "Observation/61aea20c-8cc9-486e-b9f3-7567fd4e48d6"
      }, {
        "reference": "Encounter/ec216444-59da-4db8-9046-2e6db3732669"
      }, {
        "reference": "Procedure/43b49acd-2c7d-407d-bdf9-a861bd5a90de"
      }, {
        "reference": "Condition/7b7b634b-655c-4505-b185-101f5b95dd92"
      }, {
        "reference": "Condition/6f06f703-7ded-4e09-8a7d-b7d6a9734957"
      } ]
    },
    "request": {
      "method": "PUT",
      "url": "MeasureReport/9eeac987-a4b3-401c-8995-50f046362c26"
    }
  } ]
}