{"resourceType":"Bundle","id":"tests-62f61668-6b4e-4d0a-be44-16a83dfec00e-bundle","type":"transaction","entry":[{"fullUrl":"https://madie.cms.gov/Patient/62f61668-6b4e-4d0a-be44-16a83dfec00e","resource":{"resourceType":"Patient","id":"62f61668-6b4e-4d0a-be44-16a83dfec00e","meta":{"profile":["http://hl7.org/fhir/us/qicore/StructureDefinition/qicore-patient"]},"extension":[{"url":"http://hl7.org/fhir/us/core/StructureDefinition/us-core-race","extension":[{"url":"ombCategory","valueCoding":{"system":"urn:oid:2.16.840.1.113883.6.238","code":"2106-3","display":"White"}},{"url":"text","valueString":"White"}]},{"url":"http://hl7.org/fhir/us/core/StructureDefinition/us-core-ethnicity","extension":[{"url":"ombCategory","valueCoding":{"system":"urn:oid:2.16.840.1.113883.6.238","code":"2135-2","display":"Hispanic or Latino"}},{"url":"text","valueString":"Hispanic or Latino"}]}],"identifier":[{"system":"http://hospital.smarthealthit.org","value":"999999999"}],"name":[{"family":"Example","given":["Patient"]}],"gender":"male","birthDate":"1956-01-01"},"request":{"method":"PUT","url":"Patient/62f61668-6b4e-4d0a-be44-16a83dfec00e"}},{"fullUrl":"https://madie.cms.gov/Encounter/40a08ff1-d366-4bd9-a01b-13d8f0b5c01b","resource":{"resourceType":"Encounter","id":"40a08ff1-d366-4bd9-a01b-13d8f0b5c01b","meta":{"profile":["http://hl7.org/fhir/us/qicore/StructureDefinition/qicore-encounter"]},"status":"finished","class":{"system":"http://terminology.hl7.org/CodeSystem/v3-ActCode","code":"IMP","display":"inpatient encounter"},"type":[{"coding":[{"system":"http://snomed.info/sct","code":"183452005"}]}],"subject":{"reference":"Patient/62f61668-6b4e-4d0a-be44-16a83dfec00e"},"period":{"start":"2026-04-07T08:00:00.000Z","end":"2026-04-11T08:15:00.000Z"}},"request":{"method":"PUT","url":"Encounter/40a08ff1-d366-4bd9-a01b-13d8f0b5c01b"}},{"fullUrl":"https://madie.cms.gov/Observation/78e3ffeb-7782-4a17-b3f7-34384e2dffb8","resource":{"resourceType":"Observation","id":"78e3ffeb-7782-4a17-b3f7-34384e2dffb8","meta":{"profile":["http://hl7.org/fhir/us/qicore/StructureDefinition/qicore-observation"]},"status":"final","category":[{"coding":[{"system":"http://terminology.hl7.org/CodeSystem/observation-category","code":"laboratory","display":"Laboratory"}]}],"code":{"coding":[{"system":"http://loinc.org","version":"2.72","code":"1556-0","display":"Fasting glucose [Mass/volume] in Capillary blood","userSelected":true}]},"subject":{"reference":"Patient/62f61668-6b4e-4d0a-be44-16a83dfec00e"},"effectiveDateTime":"2026-04-07T08:00:00.000+00:00","valueQuantity":{"value":1001,"unit":"mg/dL"}},"request":{"method":"PUT","url":"Observation/78e3ffeb-7782-4a17-b3f7-34384e2dffb8"}},{"fullUrl":"https://madie.cms.gov/MeasureReport/90759291-99a4-4d8e-936b-59cfbd64cb8a","resource":{"resourceType":"MeasureReport","id":"90759291-99a4-4d8e-936b-59cfbd64cb8a","meta":{"profile":["http://hl7.org/fhir/us/cqfmeasures/StructureDefinition/test-case-cqfm"]},"contained":[{"resourceType":"Parameters","id":"7e04980d-3725-4584-add5-6ad50d27d9c4-parameters","parameter":[{"name":"subject","valueString":"62f61668-6b4e-4d0a-be44-16a83dfec00e"}]}],"extension":[{"url":"http://hl7.org/fhir/us/cqfmeasures/StructureDefinition/cqfm-inputParameters","valueReference":{"reference":"#7e04980d-3725-4584-add5-6ad50d27d9c4-parameters"}},{"url":"http://hl7.org/fhir/us/cqfmeasures/StructureDefinition/cqfm-testCaseDescription","valueMarkdown":"IP encounter where glucose level >1000 mg/dL during interval (1 hour prior to admission to 6 hours after admission). Meets exclusion."}],"modifierExtension":[{"url":"http://hl7.org/fhir/us/cqfmeasures/StructureDefinition/cqfm-isTestCase","valueBoolean":true}],"status":"complete","type":"individual","measure":"https://madie.cms.gov/Measure/HospitalHarmHyperglycemiainHospitalizedPatientsFHIR","period":{"start":"2026-01-01","end":"2026-12-31"},"group":[{"population":[{"code":{"coding":[{"system":"http://terminology.hl7.org/CodeSystem/measure-population","code":"initial-population","display":"Initial Population"}]},"count":1},{"code":{"coding":[{"system":"http://terminology.hl7.org/CodeSystem/measure-population","code":"denominator","display":"Denominator"}]},"count":1},{"code":{"coding":[{"system":"http://terminology.hl7.org/CodeSystem/measure-population","code":"denominator-exclusion","display":"Denominator Exclusion"}]},"count":1},{"code":{"coding":[{"system":"http://terminology.hl7.org/CodeSystem/measure-population","code":"numerator","display":"Numerator"}]},"count":0}]}]},"request":{"method":"PUT","url":"MeasureReport/90759291-99a4-4d8e-936b-59cfbd64cb8a"}}]}