{"resourceType":"Bundle","id":"tests-c8962a58-a56f-4c43-b54d-937ccbb488d0-bundle","type":"transaction","entry":[{"fullUrl":"https://madie.cms.gov/Patient/c8962a58-a56f-4c43-b54d-937ccbb488d0","resource":{"resourceType":"Patient","id":"c8962a58-a56f-4c43-b54d-937ccbb488d0","meta":{"profile":["http://hl7.org/fhir/us/qicore/StructureDefinition/qicore-patient"]},"extension":[{"url":"http://hl7.org/fhir/us/core/StructureDefinition/us-core-race","extension":[{"url":"ombCategory","valueCoding":{"system":"urn:oid:2.16.840.1.113883.6.238","code":"2106-3","display":"White"}},{"url":"text","valueString":"White"}]},{"url":"http://hl7.org/fhir/us/core/StructureDefinition/us-core-ethnicity","extension":[{"url":"ombCategory","valueCoding":{"system":"urn:oid:2.16.840.1.113883.6.238","code":"2135-2","display":"Hispanic or Latino"}},{"url":"text","valueString":"Hispanic or Latino"}]}],"identifier":[{"system":"http://hospital.smarthealthit.org","value":"999999999"}],"name":[{"family":"Example","given":["Patient"]}],"gender":"female","birthDate":"1971-01-01"},"request":{"method":"PUT","url":"Patient/c8962a58-a56f-4c43-b54d-937ccbb488d0"}},{"fullUrl":"https://madie.cms.gov/Coverage/074fc593-546e-4221-80ca-833d0c918041","resource":{"resourceType":"Coverage","id":"074fc593-546e-4221-80ca-833d0c918041","meta":{"profile":["http://hl7.org/fhir/us/qicore/StructureDefinition/qicore-coverage"]},"identifier":[{"system":"http://benefitsinc.com/certificate","value":"12345"}],"status":"active","type":{"coding":[{"system":"https://nahdo.org/sopt","code":"59","display":"Other Private Insurance"}]},"policyHolder":{"reference":"Patient/c8962a58-a56f-4c43-b54d-937ccbb488d0"},"subscriber":{"reference":"Patient/c8962a58-a56f-4c43-b54d-937ccbb488d0"},"beneficiary":{"reference":"Patient/c8962a58-a56f-4c43-b54d-937ccbb488d0"},"dependent":"0","relationship":{"coding":[{"system":"http://terminology.hl7.org/CodeSystem/subscriber-relationship","code":"self"}]},"period":{"start":"2026-01-01T06:00:00.000Z","end":"2026-12-31T11:06:01.000Z"},"payor":[{"reference":"Organization/024e2731-b045-43bf-80d2-684774c5b51c"}],"order":9},"request":{"method":"PUT","url":"Coverage/074fc593-546e-4221-80ca-833d0c918041"}},{"fullUrl":"https://madie.cms.gov/Encounter/03b8078c-7704-42b7-a943-163ef9733577","resource":{"resourceType":"Encounter","id":"03b8078c-7704-42b7-a943-163ef9733577","meta":{"profile":["http://hl7.org/fhir/us/qicore/StructureDefinition/qicore-encounter"]},"status":"finished","class":{"system":"http://terminology.hl7.org/CodeSystem/v3-ActCode","code":"IMP","display":"inpatient encounter"},"type":[{"coding":[{"system":"http://snomed.info/sct","code":"183452005"}]}],"subject":{"reference":"Patient/c8962a58-a56f-4c43-b54d-937ccbb488d0"},"period":{"start":"2026-04-07T08:00:00.000Z","end":"2026-04-11T08:15:00.000Z"}},"request":{"method":"PUT","url":"Encounter/03b8078c-7704-42b7-a943-163ef9733577"}},{"fullUrl":"https://madie.cms.gov/MeasureReport/eb296a2c-2817-4d05-b099-cc3b45c5a192","resource":{"resourceType":"MeasureReport","id":"eb296a2c-2817-4d05-b099-cc3b45c5a192","meta":{"profile":["http://hl7.org/fhir/us/cqfmeasures/StructureDefinition/test-case-cqfm"]},"contained":[{"resourceType":"Parameters","id":"9f8d08bb-a121-437c-995d-27c4c2548001-parameters","parameter":[{"name":"subject","valueString":"c8962a58-a56f-4c43-b54d-937ccbb488d0"}]}],"extension":[{"url":"http://hl7.org/fhir/us/cqfmeasures/StructureDefinition/cqfm-inputParameters","valueReference":{"reference":"#9f8d08bb-a121-437c-995d-27c4c2548001-parameters"}},{"url":"http://hl7.org/fhir/us/cqfmeasures/StructureDefinition/cqfm-testCaseDescription","valueMarkdown":"Inpatient hospitalization for patient >=18 but no diabetes diagnosis, no hypoglycemic medication, and no glucose lab >40 mg/dL. Must meet at least one to meet IPP. IPP fails"}],"modifierExtension":[{"url":"http://hl7.org/fhir/us/cqfmeasures/StructureDefinition/cqfm-isTestCase","valueBoolean":true}],"status":"complete","type":"individual","measure":"https://madie.cms.gov/Measure/HospitalHarmHyperglycemiainHospitalizedPatientsFHIR","period":{"start":"2026-01-01","end":"2026-12-31"},"group":[{"population":[{"code":{"coding":[{"system":"http://terminology.hl7.org/CodeSystem/measure-population","code":"initial-population","display":"Initial Population"}]},"count":0},{"code":{"coding":[{"system":"http://terminology.hl7.org/CodeSystem/measure-population","code":"denominator","display":"Denominator"}]},"count":0},{"code":{"coding":[{"system":"http://terminology.hl7.org/CodeSystem/measure-population","code":"denominator-exclusion","display":"Denominator Exclusion"}]},"count":0},{"code":{"coding":[{"system":"http://terminology.hl7.org/CodeSystem/measure-population","code":"numerator","display":"Numerator"}]},"count":0}]}]},"request":{"method":"PUT","url":"MeasureReport/eb296a2c-2817-4d05-b099-cc3b45c5a192"}}]}