{"resourceType":"Bundle","id":"tests-c85ad9d3-e24d-47a2-a4ab-8a9b6d3bb9af-bundle","type":"transaction","entry":[{"fullUrl":"https://madie.cms.gov/Patient/c85ad9d3-e24d-47a2-a4ab-8a9b6d3bb9af","resource":{"resourceType":"Patient","id":"c85ad9d3-e24d-47a2-a4ab-8a9b6d3bb9af","meta":{"profile":["http://hl7.org/fhir/us/qicore/StructureDefinition/qicore-patient"]},"extension":[{"url":"http://hl7.org/fhir/us/core/StructureDefinition/us-core-race","extension":[{"url":"ombCategory","valueCoding":{"system":"urn:oid:2.16.840.1.113883.6.238","code":"2106-3","display":"White"}},{"url":"text","valueString":"White"}]},{"url":"http://hl7.org/fhir/us/core/StructureDefinition/us-core-ethnicity","extension":[{"url":"ombCategory","valueCoding":{"system":"urn:oid:2.16.840.1.113883.6.238","code":"2135-2","display":"Hispanic or Latino"}},{"url":"text","valueString":"Hispanic or Latino"}]}],"identifier":[{"system":"http://hospital.smarthealthit.org","value":"999999999"}],"name":[{"family":"Example","given":["Patient"]}],"gender":"male","birthDate":"1956-01-01"},"request":{"method":"PUT","url":"Patient/c85ad9d3-e24d-47a2-a4ab-8a9b6d3bb9af"}},{"fullUrl":"https://madie.cms.gov/Encounter/1761a357-7b3b-4be3-ba91-4dc633979dbf","resource":{"resourceType":"Encounter","id":"1761a357-7b3b-4be3-ba91-4dc633979dbf","meta":{"profile":["http://hl7.org/fhir/us/qicore/StructureDefinition/qicore-encounter"]},"status":"finished","class":{"system":"http://terminology.hl7.org/CodeSystem/v3-ActCode","code":"IMP","display":"inpatient encounter"},"type":[{"coding":[{"system":"http://snomed.info/sct","code":"183452005"}]}],"subject":{"reference":"Patient/c85ad9d3-e24d-47a2-a4ab-8a9b6d3bb9af"},"period":{"start":"2026-04-07T08:00:00.000Z","end":"2026-04-11T08:15:00.000Z"}},"request":{"method":"PUT","url":"Encounter/1761a357-7b3b-4be3-ba91-4dc633979dbf"}},{"fullUrl":"https://madie.cms.gov/Condition/b912c07f-8581-4b70-aad4-8fd24ae4ef51","resource":{"resourceType":"Condition","id":"b912c07f-8581-4b70-aad4-8fd24ae4ef51","meta":{"profile":["http://hl7.org/fhir/us/qicore/StructureDefinition/qicore-condition"]},"clinicalStatus":{"coding":[{"system":"http://terminology.hl7.org/CodeSystem/condition-clinical","code":"active"}]},"category":[{"coding":[{"system":"http://terminology.hl7.org/CodeSystem/condition-category","code":"encounter-diagnosis","display":"Encounter Diagnosis"}]}],"code":{"coding":[{"system":"http://hl7.org/fhir/sid/icd-10-cm","code":"E10.21","display":"Type 1 diabetes mellitus with diabetic nephropathy"}]},"subject":{"reference":"Patient/c85ad9d3-e24d-47a2-a4ab-8a9b6d3bb9af"},"onsetDateTime":"2011-01-02"},"request":{"method":"PUT","url":"Condition/b912c07f-8581-4b70-aad4-8fd24ae4ef51"}},{"fullUrl":"https://madie.cms.gov/MeasureReport/769992bd-9de1-4898-9778-6a21b1f9a9df","resource":{"resourceType":"MeasureReport","id":"769992bd-9de1-4898-9778-6a21b1f9a9df","meta":{"profile":["http://hl7.org/fhir/us/cqfmeasures/StructureDefinition/test-case-cqfm"]},"contained":[{"resourceType":"Parameters","id":"62287591-0e30-4068-8edb-06a4f1354878-parameters","parameter":[{"name":"subject","valueString":"c85ad9d3-e24d-47a2-a4ab-8a9b6d3bb9af"}]}],"extension":[{"url":"http://hl7.org/fhir/us/cqfmeasures/StructureDefinition/cqfm-inputParameters","valueReference":{"reference":"#62287591-0e30-4068-8edb-06a4f1354878-parameters"}},{"url":"http://hl7.org/fhir/us/cqfmeasures/StructureDefinition/cqfm-testCaseDescription","valueMarkdown":"IP encounter with diagnosis of diabetes onset date before admission, no abatement date. Meets denominator criteria."}],"modifierExtension":[{"url":"http://hl7.org/fhir/us/cqfmeasures/StructureDefinition/cqfm-isTestCase","valueBoolean":true}],"status":"complete","type":"individual","measure":"https://madie.cms.gov/Measure/HospitalHarmHyperglycemiainHospitalizedPatientsFHIR","period":{"start":"2026-01-01","end":"2026-12-31"},"group":[{"population":[{"code":{"coding":[{"system":"http://terminology.hl7.org/CodeSystem/measure-population","code":"initial-population","display":"Initial Population"}]},"count":1},{"code":{"coding":[{"system":"http://terminology.hl7.org/CodeSystem/measure-population","code":"denominator","display":"Denominator"}]},"count":1},{"code":{"coding":[{"system":"http://terminology.hl7.org/CodeSystem/measure-population","code":"denominator-exclusion","display":"Denominator Exclusion"}]},"count":0},{"code":{"coding":[{"system":"http://terminology.hl7.org/CodeSystem/measure-population","code":"numerator","display":"Numerator"}]},"count":0},{"code":{"coding":[{"system":"http://terminology.hl7.org/CodeSystem/measure-population","code":"denominator-observation","display":"DenominatorObservation"}]},"count":3}]}]},"request":{"method":"PUT","url":"MeasureReport/769992bd-9de1-4898-9778-6a21b1f9a9df"}}]}