{
  "resourceType": "Bundle",
  "id": "DENOMPass-RVOpioidActive",
  "type": "transaction",
  "entry": [ {
    "fullUrl": "https://madie.cms.gov/Encounter/7f1c1da3-a39e-412a-b91b-e7235315c9b5",
    "resource": {
      "resourceType": "Encounter",
      "id": "7f1c1da3-a39e-412a-b91b-e7235315c9b5",
      "meta": {
        "profile": [ "http://hl7.org/fhir/us/qicore/StructureDefinition/qicore-encounter" ]
      },
      "status": "finished",
      "class": {
        "system": "http://terminology.hl7.org/CodeSystem/v3-ActCode",
        "code": "IMP",
        "display": "inpatient encounter"
      },
      "type": [ {
        "coding": [ {
          "system": "http://snomed.info/sct",
          "code": "183452005"
        } ]
      } ],
      "subject": {
        "reference": "Patient/0653f9dc-8461-484e-a901-f17709f04776"
      },
      "period": {
        "start": "2026-11-12T08:00:00+00:00",
        "end": "2026-11-18T08:01:00+00:00"
      },
      "diagnosis": [ {
        "extension": [ {
          "url": "http://hl7.org/fhir/us/qicore/StructureDefinition/qicore-encounter-diagnosisPresentOnAdmission",
          "valueCodeableConcept": {
            "coding": [ {
              "system": "https://www.cms.gov/Medicare/Medicare-Fee-for-Service-Payment/HospitalAcqCond/Coding",
              "code": "Y"
            } ]
          }
        } ],
        "condition": {
          "reference": "Condition/47c9d16a-f62a-43dc-874e-ab0ece7753c0"
        }
      }, {
        "extension": [ {
          "url": "http://hl7.org/fhir/us/qicore/StructureDefinition/qicore-encounter-diagnosisPresentOnAdmission",
          "valueCodeableConcept": {
            "coding": [ {
              "system": "https://www.cms.gov/Medicare/Medicare-Fee-for-Service-Payment/HospitalAcqCond/Coding",
              "code": "Y"
            } ]
          }
        } ],
        "condition": {
          "reference": "Condition/167282ee-df55-48bd-bc5c-85ff9b5e6a91"
        }
      } ]
    },
    "request": {
      "method": "PUT",
      "url": "Encounter/7f1c1da3-a39e-412a-b91b-e7235315c9b5"
    }
  }, {
    "fullUrl": "https://madie.cms.gov/Condition/167282ee-df55-48bd-bc5c-85ff9b5e6a91",
    "resource": {
      "resourceType": "Condition",
      "id": "167282ee-df55-48bd-bc5c-85ff9b5e6a91",
      "meta": {
        "profile": [ "http://hl7.org/fhir/us/qicore/StructureDefinition/qicore-condition" ]
      },
      "clinicalStatus": {
        "coding": [ {
          "system": "http://terminology.hl7.org/CodeSystem/condition-clinical",
          "code": "active"
        } ]
      },
      "verificationStatus": {
        "coding": [ {
          "system": "http://terminology.hl7.org/CodeSystem/condition-ver-status",
          "code": "confirmed"
        } ]
      },
      "category": [ {
        "coding": [ {
          "system": "http://terminology.hl7.org/CodeSystem/condition-category",
          "code": "encounter-diagnosis",
          "display": "Encounter Diagnosis"
        } ]
      } ],
      "code": {
        "coding": [ {
          "system": "http://hl7.org/fhir/sid/icd-10-cm",
          "code": "F06.34"
        } ]
      },
      "subject": {
        "reference": "Patient/0653f9dc-8461-484e-a901-f17709f04776"
      },
      "encounter": {
        "reference": "Encounter/7f1c1da3-a39e-412a-b91b-e7235315c9b5"
      }
    },
    "request": {
      "method": "PUT",
      "url": "Condition/167282ee-df55-48bd-bc5c-85ff9b5e6a91"
    }
  }, {
    "fullUrl": "https://madie.cms.gov/Condition/47c9d16a-f62a-43dc-874e-ab0ece7753c0",
    "resource": {
      "resourceType": "Condition",
      "id": "47c9d16a-f62a-43dc-874e-ab0ece7753c0",
      "meta": {
        "profile": [ "http://hl7.org/fhir/us/qicore/StructureDefinition/qicore-condition" ]
      },
      "clinicalStatus": {
        "coding": [ {
          "system": "http://terminology.hl7.org/CodeSystem/condition-clinical",
          "code": "active"
        } ]
      },
      "verificationStatus": {
        "coding": [ {
          "system": "http://terminology.hl7.org/CodeSystem/condition-ver-status",
          "code": "confirmed"
        } ]
      },
      "category": [ {
        "coding": [ {
          "system": "http://terminology.hl7.org/CodeSystem/condition-category",
          "code": "encounter-diagnosis",
          "display": "Encounter Diagnosis"
        } ]
      } ],
      "code": {
        "coding": [ {
          "system": "http://hl7.org/fhir/sid/icd-10-cm",
          "code": "D61.09"
        } ]
      },
      "subject": {
        "reference": "Patient/0653f9dc-8461-484e-a901-f17709f04776"
      },
      "encounter": {
        "reference": "Encounter/7f1c1da3-a39e-412a-b91b-e7235315c9b5"
      }
    },
    "request": {
      "method": "PUT",
      "url": "Condition/47c9d16a-f62a-43dc-874e-ab0ece7753c0"
    }
  }, {
    "fullUrl": "https://madie.cms.gov/Patient/0653f9dc-8461-484e-a901-f17709f04776",
    "resource": {
      "resourceType": "Patient",
      "id": "0653f9dc-8461-484e-a901-f17709f04776",
      "meta": {
        "profile": [ "http://hl7.org/fhir/us/qicore/StructureDefinition/qicore-patient" ]
      },
      "extension": [ {
        "url": "http://hl7.org/fhir/us/core/StructureDefinition/us-core-race",
        "extension": [ {
          "url": "ombCategory",
          "valueCoding": {
            "system": "urn:oid:2.16.840.1.113883.6.238",
            "code": "2054-5",
            "display": "Black or African American",
            "userSelected": true
          }
        }, {
          "url": "text",
          "valueString": "Black or African American"
        } ]
      }, {
        "url": "http://hl7.org/fhir/us/core/StructureDefinition/us-core-ethnicity",
        "extension": [ {
          "url": "ombCategory",
          "valueCoding": {
            "system": "urn:oid:2.16.840.1.113883.6.238",
            "code": "2186-5",
            "display": "Not Hispanic or Latino",
            "userSelected": true
          }
        }, {
          "url": "text",
          "valueString": "Not Hispanic or Latino"
        } ]
      } ],
      "identifier": [ {
        "type": {
          "coding": [ {
            "system": "http://terminology.hl7.org/CodeSystem/v2-0203",
            "code": "MR"
          } ]
        },
        "system": "https://bonnie-fhir.healthit.gov/",
        "value": "61152a3b98086b7a79cbd7c1"
      } ],
      "active": true,
      "name": [ {
        "use": "usual",
        "family": "DENEXPass",
        "given": [ "RVOpioidActive" ]
      } ],
      "gender": "male",
      "birthDate": "1964-12-11"
    },
    "request": {
      "method": "PUT",
      "url": "Patient/0653f9dc-8461-484e-a901-f17709f04776"
    }
  }, {
    "fullUrl": "https://madie.cms.gov/MedicationRequest/e7057f83-5f1f-4e17-a1d7-5ab507718697",
    "resource": {
      "resourceType": "MedicationRequest",
      "id": "e7057f83-5f1f-4e17-a1d7-5ab507718697",
      "meta": {
        "profile": [ "http://hl7.org/fhir/us/qicore/StructureDefinition/qicore-medicationrequest" ]
      },
      "status": "active",
      "intent": "order",
      "medicationCodeableConcept": {
        "coding": [ {
          "system": "http://www.nlm.nih.gov/research/umls/rxnorm",
          "code": "1010600"
        } ]
      },
      "subject": {
        "reference": "Patient/0653f9dc-8461-484e-a901-f17709f04776"
      },
      "authoredOn": "2026-11-12T08:00:00+00:00",
      "requester": {
        "reference": "Patient/0653f9dc-8461-484e-a901-f17709f04776"
      }
    },
    "request": {
      "method": "PUT",
      "url": "MedicationRequest/e7057f83-5f1f-4e17-a1d7-5ab507718697"
    }
  }, {
    "fullUrl": "https://madie.cms.gov/MeasureReport/084be9ba-f08c-431f-977b-c726c414632d",
    "resource": {
      "resourceType": "MeasureReport",
      "id": "084be9ba-f08c-431f-977b-c726c414632d",
      "meta": {
        "profile": [ "http://hl7.org/fhir/us/cqfmeasures/StructureDefinition/test-case-cqfm" ]
      },
      "contained": [ {
        "resourceType": "Parameters",
        "id": "2893c5b2-4cfc-4644-8149-8271ca2d0dc4-parameters",
        "parameter": [ {
          "name": "subject",
          "valueString": "0653f9dc-8461-484e-a901-f17709f04776"
        } ]
      } ],
      "extension": [ {
        "url": "http://hl7.org/fhir/us/cqfmeasures/StructureDefinition/cqfm-inputParameters",
        "valueReference": {
          "reference": "#2893c5b2-4cfc-4644-8149-8271ca2d0dc4-parameters"
        }
      }, {
        "url": "http://hl7.org/fhir/us/cqfmeasures/StructureDefinition/cqfm-testCaseDescription",
        "valueMarkdown": "Encounter with Opioid active on admission (relevant datetime is same as start of encounter relevant period. Meets RV logic. "
      } ],
      "modifierExtension": [ {
        "url": "http://hl7.org/fhir/us/cqfmeasures/StructureDefinition/cqfm-isTestCase",
        "valueBoolean": true
      } ],
      "status": "complete",
      "type": "individual",
      "measure": "https://madie.cms.gov/Measure/FallsWithInjuryFHIR",
      "period": {
        "start": "2026-01-01",
        "end": "2026-12-31"
      },
      "group": [ {
        "population": [ {
          "code": {
            "coding": [ {
              "system": "http://terminology.hl7.org/CodeSystem/measure-population",
              "code": "initial-population",
              "display": "Initial Population"
            } ]
          },
          "count": 1
        }, {
          "code": {
            "coding": [ {
              "system": "http://terminology.hl7.org/CodeSystem/measure-population",
              "code": "denominator",
              "display": "Denominator"
            } ]
          },
          "count": 1
        }, {
          "code": {
            "coding": [ {
              "system": "http://terminology.hl7.org/CodeSystem/measure-population",
              "code": "denominator-exclusion",
              "display": "Denominator Exclusion"
            } ]
          },
          "count": 0
        }, {
          "code": {
            "coding": [ {
              "system": "http://terminology.hl7.org/CodeSystem/measure-population",
              "code": "numerator",
              "display": "Numerator"
            } ]
          },
          "count": 0
        }, {
          "code": {
            "coding": [ {
              "system": "http://terminology.hl7.org/CodeSystem/measure-population",
              "code": "numerator-exclusion",
              "display": "Numerator Exclusion"
            } ]
          },
          "count": 0
        }, {
          "code": {
            "coding": [ {
              "system": "http://terminology.hl7.org/CodeSystem/measure-population",
              "code": "denominator-observation",
              "display": "DenominatorObservation"
            } ]
          },
          "count": 6
        } ]
      } ],
      "evaluatedResource": [ {
        "reference": "Encounter/7f1c1da3-a39e-412a-b91b-e7235315c9b5"
      }, {
        "reference": "Condition/167282ee-df55-48bd-bc5c-85ff9b5e6a91"
      }, {
        "reference": "Condition/47c9d16a-f62a-43dc-874e-ab0ece7753c0"
      }, {
        "reference": "Patient/0653f9dc-8461-484e-a901-f17709f04776"
      }, {
        "reference": "MedicationRequest/e7057f83-5f1f-4e17-a1d7-5ab507718697"
      } ]
    },
    "request": {
      "method": "PUT",
      "url": "MeasureReport/084be9ba-f08c-431f-977b-c726c414632d"
    }
  } ]
}