{
  "resourceType": "Bundle",
  "id": "617be6441619a529957d62b3",
  "type": "transaction",
  "entry": [ {
    "fullUrl": "https://madie.cms.gov/Patient/9d98b629-9e2a-46f2-8f62-7d6208ee32a9",
    "resource": {
      "resourceType": "Patient",
      "id": "9d98b629-9e2a-46f2-8f62-7d6208ee32a9",
      "meta": {
        "profile": [ "http://hl7.org/fhir/us/qicore/StructureDefinition/qicore-patient" ]
      },
      "extension": [ {
        "url": "http://hl7.org/fhir/us/core/StructureDefinition/us-core-race",
        "extension": [ {
          "url": "ombCategory",
          "valueCoding": {
            "system": "urn:oid:2.16.840.1.113883.6.238",
            "code": "2028-9",
            "display": "Asian",
            "userSelected": true
          }
        }, {
          "url": "text",
          "valueString": "Asian"
        } ]
      }, {
        "url": "http://hl7.org/fhir/us/core/StructureDefinition/us-core-ethnicity",
        "extension": [ {
          "url": "ombCategory",
          "valueCoding": {
            "system": "urn:oid:2.16.840.1.113883.6.238",
            "code": "2186-5",
            "display": "Not Hispanic or Latino",
            "userSelected": true
          }
        }, {
          "url": "text",
          "valueString": "Not Hispanic or Latino"
        } ]
      } ],
      "identifier": [ {
        "type": {
          "coding": [ {
            "system": "http://terminology.hl7.org/CodeSystem/v2-0203",
            "code": "MR"
          } ]
        },
        "system": "https://bonnie-fhir.healthit.gov/",
        "value": "617be6441619a529957d62b3"
      } ],
      "name": [ {
        "family": "DenExcl6Pass",
        "given": [ "MedStartsOnDayofED" ]
      } ],
      "gender": "female",
      "birthDate": "1985-12-02"
    },
    "request": {
      "method": "PUT",
      "url": "Patient/9d98b629-9e2a-46f2-8f62-7d6208ee32a9"
    }
  }, {
    "fullUrl": "https://madie.cms.gov/Encounter/f916e7ef-5d6e-471e-8c4b-ca26e2388b0e",
    "resource": {
      "resourceType": "Encounter",
      "id": "f916e7ef-5d6e-471e-8c4b-ca26e2388b0e",
      "meta": {
        "profile": [ "http://hl7.org/fhir/us/qicore/StructureDefinition/qicore-encounter" ]
      },
      "status": "finished",
      "class": {
        "system": "http://terminology.hl7.org/CodeSystem/v3-ActCode",
        "code": "EMER",
        "display": "emergency",
        "userSelected": true
      },
      "type": [ {
        "coding": [ {
          "system": "http://snomed.info/sct",
          "version": "2020-09",
          "code": "4525004",
          "display": "Emergency department patient visit (procedure)",
          "userSelected": true
        } ]
      } ],
      "subject": {
        "reference": "Patient/9d98b629-9e2a-46f2-8f62-7d6208ee32a9"
      },
      "period": {
        "start": "2026-10-09T08:05:00.000+00:00",
        "end": "2026-10-10T07:15:00.000+00:00"
      },
      "reasonCode": [ {
        "coding": [ {
          "system": "http://hl7.org/fhir/sid/icd-10-cm",
          "version": "2021",
          "code": "I21.02",
          "display": "ST elevation (STEMI) myocardial infarction involving left anterior descending coronary artery",
          "userSelected": true
        } ]
      } ]
    },
    "request": {
      "method": "PUT",
      "url": "Encounter/f916e7ef-5d6e-471e-8c4b-ca26e2388b0e"
    }
  }, {
    "fullUrl": "https://madie.cms.gov/MedicationRequest/2e39ba9a-5288-40d9-ae57-07d70bfaee6b",
    "resource": {
      "resourceType": "MedicationRequest",
      "id": "2e39ba9a-5288-40d9-ae57-07d70bfaee6b",
      "meta": {
        "profile": [ "http://hl7.org/fhir/us/qicore/StructureDefinition/qicore-medicationrequest" ]
      },
      "status": "active",
      "intent": "order",
      "category": [ {
        "coding": [ {
          "system": "http://terminology.hl7.org/CodeSystem/medicationrequest-category",
          "code": "inpatient",
          "display": "Inpatient",
          "userSelected": true
        } ]
      } ],
      "medicationCodeableConcept": {
        "coding": [ {
          "system": "http://www.nlm.nih.gov/research/umls/rxnorm",
          "version": "2021-01",
          "code": "2059015",
          "display": "rivaroxaban 2.5 MG Oral Tablet",
          "userSelected": true
        } ]
      },
      "subject": {
        "reference": "Patient/9d98b629-9e2a-46f2-8f62-7d6208ee32a9"
      },
      "authoredOn": "2026-10-09T08:03:00.000+00:00",
      "requester": {
        "reference": "Practitioner/c8b31165-f789-4518-be30-edaa0fe28e26"
      }
    },
    "request": {
      "method": "PUT",
      "url": "MedicationRequest/2e39ba9a-5288-40d9-ae57-07d70bfaee6b"
    }
  }, {
    "fullUrl": "https://madie.cms.gov/Practitioner/c8b31165-f789-4518-be30-edaa0fe28e26",
    "resource": {
      "resourceType": "Practitioner",
      "id": "c8b31165-f789-4518-be30-edaa0fe28e26",
      "meta": {
        "profile": [ "http://hl7.org/fhir/us/qicore/StructureDefinition/qicore-practitioner" ]
      },
      "identifier": [ {
        "system": "http://hl7.org/fhir/sid/us-npi",
        "value": "123456"
      } ],
      "name": [ {
        "family": "Evil",
        "prefix": [ "Dr" ]
      } ]
    },
    "request": {
      "method": "PUT",
      "url": "Practitioner/c8b31165-f789-4518-be30-edaa0fe28e26"
    }
  }, {
    "fullUrl": "https://madie.cms.gov/MeasureReport/2e00fefe-66d2-4e05-a855-4f66a3391962",
    "resource": {
      "resourceType": "MeasureReport",
      "id": "2e00fefe-66d2-4e05-a855-4f66a3391962",
      "meta": {
        "profile": [ "http://hl7.org/fhir/us/cqfmeasures/StructureDefinition/test-case-cqfm" ]
      },
      "contained": [ {
        "resourceType": "Parameters",
        "id": "26988655-989f-4ef0-b8f2-ec072f33d97c-parameters",
        "parameter": [ {
          "name": "subject",
          "valueString": "9d98b629-9e2a-46f2-8f62-7d6208ee32a9"
        } ]
      } ],
      "extension": [ {
        "url": "http://hl7.org/fhir/us/cqfmeasures/StructureDefinition/cqfm-inputParameters",
        "valueReference": {
          "reference": "#26988655-989f-4ef0-b8f2-ec072f33d97c-parameters"
        }
      }, {
        "url": "http://hl7.org/fhir/us/cqfmeasures/StructureDefinition/cqfm-testCaseDescription",
        "valueMarkdown": "Patient has anticoagulant medication starts on day of ED"
      } ],
      "modifierExtension": [ {
        "url": "http://hl7.org/fhir/us/cqfmeasures/StructureDefinition/cqfm-isTestCase",
        "valueBoolean": true
      } ],
      "status": "complete",
      "type": "individual",
      "measure": "https://madie.cms.gov/Measure/CMS996FHIRAptTxforSTEMI",
      "period": {
        "start": "2026-01-01",
        "end": "2026-12-31"
      },
      "group": [ {
        "population": [ {
          "code": {
            "coding": [ {
              "system": "http://terminology.hl7.org/CodeSystem/measure-population",
              "code": "initial-population",
              "display": "Initial Population"
            } ]
          },
          "count": 1
        }, {
          "code": {
            "coding": [ {
              "system": "http://terminology.hl7.org/CodeSystem/measure-population",
              "code": "denominator",
              "display": "Denominator"
            } ]
          },
          "count": 1
        }, {
          "code": {
            "coding": [ {
              "system": "http://terminology.hl7.org/CodeSystem/measure-population",
              "code": "denominator-exclusion",
              "display": "Denominator Exclusion"
            } ]
          },
          "count": 1
        }, {
          "code": {
            "coding": [ {
              "system": "http://terminology.hl7.org/CodeSystem/measure-population",
              "code": "numerator",
              "display": "Numerator"
            } ]
          },
          "count": 0
        }, {
          "code": {
            "coding": [ {
              "system": "http://terminology.hl7.org/CodeSystem/measure-population",
              "code": "denominator-exception",
              "display": "Denominator Exception"
            } ]
          },
          "count": 0
        } ]
      } ],
      "evaluatedResource": [ {
        "reference": "Patient/9d98b629-9e2a-46f2-8f62-7d6208ee32a9"
      }, {
        "reference": "Encounter/f916e7ef-5d6e-471e-8c4b-ca26e2388b0e"
      }, {
        "reference": "MedicationRequest/2e39ba9a-5288-40d9-ae57-07d70bfaee6b"
      }, {
        "reference": "Practitioner/c8b31165-f789-4518-be30-edaa0fe28e26"
      } ]
    },
    "request": {
      "method": "PUT",
      "url": "MeasureReport/2e00fefe-66d2-4e05-a855-4f66a3391962"
    }
  } ]
}