{
  "resourceType": "Bundle",
  "id": "63487c300968f801225401ba",
  "type": "transaction",
  "entry": [ {
    "fullUrl": "https://madie.cms.gov/Patient/24466f7b-b722-4c54-9315-6116c81c3dd4",
    "resource": {
      "resourceType": "Patient",
      "id": "24466f7b-b722-4c54-9315-6116c81c3dd4",
      "meta": {
        "profile": [ "http://hl7.org/fhir/us/qicore/StructureDefinition/qicore-patient" ]
      },
      "text": {
        "status": "generated",
        "div": "<div xmlns=\"http://www.w3.org/1999/xhtml\"><div class=\"hapiHeaderText\">AssessLastGresultMissing <b>DENPASS </b></div><table class=\"hapiPropertyTable\"><tbody><tr><td>Identifier</td><td>a71c730e90531277040df227a6edf32e5d1d845b7af7c742588090b545382c72</td></tr><tr><td>Date of birth</td><td><span>14 February 1985</span></td></tr></tbody></table></div>"
      },
      "extension": [ {
        "url": "http://hl7.org/fhir/us/core/StructureDefinition/us-core-race",
        "extension": [ {
          "url": "ombCategory",
          "valueCoding": {
            "system": "urn:oid:2.16.840.1.113883.6.238",
            "code": "1002-5",
            "display": "American Indian or Alaska Native",
            "userSelected": true
          }
        }, {
          "url": "text",
          "valueString": "American Indian or Alaska Native"
        } ]
      }, {
        "url": "http://hl7.org/fhir/us/core/StructureDefinition/us-core-ethnicity",
        "extension": [ {
          "url": "ombCategory",
          "valueCoding": {
            "system": "urn:oid:2.16.840.1.113883.6.238",
            "code": "2135-2",
            "display": "Hispanic or Latino",
            "userSelected": true
          }
        }, {
          "url": "text",
          "valueString": "Hispanic or Latino"
        } ]
      } ],
      "identifier": [ {
        "type": {
          "coding": [ {
            "system": "http://terminology.hl7.org/CodeSystem/v2-0203",
            "code": "MR"
          } ]
        },
        "system": "https://bonnie-fhir.healthit.gov/",
        "value": "63487c300968f801225401ba"
      } ],
      "active": true,
      "name": [ {
        "use": "usual",
        "family": "DENPass",
        "given": [ "AssessLastGresultMissing" ]
      } ],
      "gender": "female",
      "birthDate": "1998-02-14"
    },
    "request": {
      "method": "PUT",
      "url": "Patient/24466f7b-b722-4c54-9315-6116c81c3dd4"
    }
  }, {
    "fullUrl": "https://madie.cms.gov/Observation/0c20ce7f-ff55-4c99-9a86-2cc1f56f2477",
    "resource": {
      "resourceType": "Observation",
      "id": "0c20ce7f-ff55-4c99-9a86-2cc1f56f2477",
      "meta": {
        "profile": [ "http://hl7.org/fhir/us/qicore/StructureDefinition/qicore-observation" ]
      },
      "status": "final",
      "category": [ {
        "coding": [ {
          "system": "http://terminology.hl7.org/CodeSystem/observation-category",
          "code": "exam",
          "display": "exam",
          "userSelected": true
        } ]
      } ],
      "code": {
        "coding": [ {
          "system": "http://loinc.org",
          "code": "11996-6"
        } ]
      },
      "subject": {
        "reference": "Patient/24466f7b-b722-4c54-9315-6116c81c3dd4"
      },
      "effectiveDateTime": "2026-06-08T08:00:00.000+00:00"
    },
    "request": {
      "method": "PUT",
      "url": "Observation/0c20ce7f-ff55-4c99-9a86-2cc1f56f2477"
    }
  }, {
    "fullUrl": "https://madie.cms.gov/Observation/58a4078b-e34d-44c9-8c40-5b1d7c87a153",
    "resource": {
      "resourceType": "Observation",
      "id": "58a4078b-e34d-44c9-8c40-5b1d7c87a153",
      "meta": {
        "profile": [ "http://hl7.org/fhir/us/qicore/StructureDefinition/qicore-observation" ]
      },
      "status": "final",
      "category": [ {
        "coding": [ {
          "system": "http://terminology.hl7.org/CodeSystem/observation-category",
          "code": "exam",
          "display": "exam",
          "userSelected": true
        } ]
      } ],
      "code": {
        "coding": [ {
          "system": "http://loinc.org",
          "code": "11884-4"
        } ]
      },
      "subject": {
        "reference": "Patient/24466f7b-b722-4c54-9315-6116c81c3dd4"
      },
      "effectiveDateTime": "2026-06-08T09:15:00.000+00:00",
      "valueQuantity": {
        "value": 38,
        "system": "http://unitsofmeasure.org",
        "code": "wk"
      }
    },
    "request": {
      "method": "PUT",
      "url": "Observation/58a4078b-e34d-44c9-8c40-5b1d7c87a153"
    }
  }, {
    "fullUrl": "https://madie.cms.gov/Observation/1be22fcd-f952-40a6-a106-428d7248c47a",
    "resource": {
      "resourceType": "Observation",
      "id": "1be22fcd-f952-40a6-a106-428d7248c47a",
      "meta": {
        "profile": [ "http://hl7.org/fhir/us/qicore/StructureDefinition/qicore-observation" ]
      },
      "status": "final",
      "category": [ {
        "coding": [ {
          "system": "http://terminology.hl7.org/CodeSystem/observation-category",
          "code": "exam",
          "display": "exam",
          "userSelected": true
        } ]
      } ],
      "code": {
        "coding": [ {
          "system": "http://loinc.org",
          "code": "93857-1"
        } ]
      },
      "subject": {
        "reference": "Patient/24466f7b-b722-4c54-9315-6116c81c3dd4"
      },
      "effectiveDateTime": "2026-06-08T20:00:00.000+00:00",
      "valueDateTime": "2026-06-08T20:00:00+00:00"
    },
    "request": {
      "method": "PUT",
      "url": "Observation/1be22fcd-f952-40a6-a106-428d7248c47a"
    }
  }, {
    "fullUrl": "https://madie.cms.gov/Observation/c9ef7b96-ab5d-4976-917e-86b812550afa",
    "resource": {
      "resourceType": "Observation",
      "id": "c9ef7b96-ab5d-4976-917e-86b812550afa",
      "meta": {
        "profile": [ "http://hl7.org/fhir/us/qicore/StructureDefinition/qicore-observation" ]
      },
      "status": "final",
      "category": [ {
        "coding": [ {
          "system": "http://terminology.hl7.org/CodeSystem/observation-category",
          "code": "exam",
          "display": "exam",
          "userSelected": true
        } ]
      } ],
      "code": {
        "coding": [ {
          "system": "http://loinc.org",
          "code": "11996-6"
        } ]
      },
      "subject": {
        "reference": "Patient/24466f7b-b722-4c54-9315-6116c81c3dd4"
      },
      "effectiveDateTime": "2026-04-24T08:00:00.000+00:00",
      "valueInteger": 1
    },
    "request": {
      "method": "PUT",
      "url": "Observation/c9ef7b96-ab5d-4976-917e-86b812550afa"
    }
  }, {
    "fullUrl": "https://madie.cms.gov/Encounter/ca3bf0c9-225d-4142-adb5-5b8c2c3cb915",
    "resource": {
      "resourceType": "Encounter",
      "id": "ca3bf0c9-225d-4142-adb5-5b8c2c3cb915",
      "meta": {
        "profile": [ "http://hl7.org/fhir/us/qicore/StructureDefinition/qicore-encounter" ]
      },
      "status": "finished",
      "class": {
        "system": "http://terminology.hl7.org/CodeSystem/v3-ActCode",
        "code": "IMP",
        "display": "inpatient encounter"
      },
      "type": [ {
        "coding": [ {
          "system": "http://snomed.info/sct",
          "code": "183452005"
        } ]
      } ],
      "subject": {
        "reference": "Patient/24466f7b-b722-4c54-9315-6116c81c3dd4"
      },
      "period": {
        "start": "2026-06-08T08:00:00.000Z",
        "end": "2026-06-10T08:15:00.000Z"
      },
      "length": {
        "value": 2,
        "unit": "days"
      },
      "diagnosis": [ {
        "condition": {
          "reference": "Condition/68d024a6-5765-4a37-b915-b117858a86d1"
        }
      } ]
    },
    "request": {
      "method": "PUT",
      "url": "Encounter/ca3bf0c9-225d-4142-adb5-5b8c2c3cb915"
    }
  }, {
    "fullUrl": "https://madie.cms.gov/Procedure/cc4c9727-6263-48d4-951b-76611a20483f",
    "resource": {
      "resourceType": "Procedure",
      "id": "cc4c9727-6263-48d4-951b-76611a20483f",
      "meta": {
        "profile": [ "http://hl7.org/fhir/us/qicore/StructureDefinition/qicore-procedure" ]
      },
      "extension": [ {
        "url": "http://hl7.org/fhir/us/qicore/StructureDefinition/qicore-recorded",
        "valueDateTime": "2014-04-05T09:35:00-04:00"
      } ],
      "status": "completed",
      "code": {
        "coding": [ {
          "system": "http://www.cms.gov/Medicare/Coding/ICD10",
          "code": "10D07Z3"
        }, {
          "system": "http://www.icd10data.com/icd10pcs",
          "code": "10D07Z3",
          "userSelected": true
        } ]
      },
      "subject": {
        "reference": "Patient/24466f7b-b722-4c54-9315-6116c81c3dd4"
      },
      "performedPeriod": {
        "start": "2026-06-08T08:10:00.000Z",
        "end": "2026-06-08T09:14:00.000Z"
      }
    },
    "request": {
      "method": "PUT",
      "url": "Procedure/cc4c9727-6263-48d4-951b-76611a20483f"
    }
  }, {
    "fullUrl": "https://madie.cms.gov/Condition/68d024a6-5765-4a37-b915-b117858a86d1",
    "resource": {
      "resourceType": "Condition",
      "id": "68d024a6-5765-4a37-b915-b117858a86d1",
      "meta": {
        "profile": [ "http://hl7.org/fhir/us/qicore/StructureDefinition/qicore-condition" ]
      },
      "category": [ {
        "coding": [ {
          "system": "http://terminology.hl7.org/CodeSystem/condition-category",
          "code": "encounter-diagnosis",
          "display": "Encounter Diagnosis"
        } ]
      } ],
      "code": {
        "coding": [ {
          "system": "http://snomed.info/sct",
          "version": "2022-09",
          "code": "169826009",
          "display": "Single live birth (finding)",
          "userSelected": true
        } ]
      },
      "subject": {
        "reference": "Patient/24466f7b-b722-4c54-9315-6116c81c3dd4"
      },
      "recordedDate": "2026-10-14T08:00:00.000+00:00"
    },
    "request": {
      "method": "PUT",
      "url": "Condition/68d024a6-5765-4a37-b915-b117858a86d1"
    }
  }, {
    "fullUrl": "https://madie.cms.gov/Coverage/60e145e2-8647-4e32-a5aa-a492ce878e59",
    "resource": {
      "resourceType": "Coverage",
      "id": "60e145e2-8647-4e32-a5aa-a492ce878e59",
      "meta": {
        "profile": [ "http://hl7.org/fhir/us/qicore/StructureDefinition/qicore-coverage" ]
      },
      "status": "active",
      "beneficiary": {
        "reference": "Patient/24466f7b-b722-4c54-9315-6116c81c3dd4"
      },
      "payor": [ {
        "reference": "Organization/a974dca7-c80b-4dbe-9c2c-063fc85c7971"
      } ]
    },
    "request": {
      "method": "PUT",
      "url": "Coverage/60e145e2-8647-4e32-a5aa-a492ce878e59"
    }
  }, {
    "fullUrl": "https://madie.cms.gov/Organization/a974dca7-c80b-4dbe-9c2c-063fc85c7971",
    "resource": {
      "resourceType": "Organization",
      "id": "a974dca7-c80b-4dbe-9c2c-063fc85c7971",
      "meta": {
        "profile": [ "http://hl7.org/fhir/us/qicore/StructureDefinition/qicore-organization" ]
      },
      "identifier": [ {
        "use": "temp",
        "system": "urn:oid:2.16.840.1.113883.4.4",
        "value": "21-3259825"
      } ],
      "active": true,
      "type": [ {
        "coding": [ {
          "system": "http://terminology.hl7.org/CodeSystem/organization-type",
          "code": "pay",
          "display": "Payer"
        } ]
      } ],
      "name": "Blue Cross Blue Shield of Texas",
      "telecom": [ {
        "system": "phone",
        "value": "(+1) 972-766-6900"
      } ],
      "address": [ {
        "use": "billing",
        "type": "postal",
        "line": [ "P.O. Box 660044" ],
        "city": "Dallas",
        "state": "TX",
        "postalCode": "75266-0044",
        "country": "USA"
      } ]
    },
    "request": {
      "method": "PUT",
      "url": "Organization/a974dca7-c80b-4dbe-9c2c-063fc85c7971"
    }
  }, {
    "fullUrl": "https://madie.cms.gov/Practitioner/b6e2872a-6992-4dd4-b530-17afcd259bc8",
    "resource": {
      "resourceType": "Practitioner",
      "id": "b6e2872a-6992-4dd4-b530-17afcd259bc8",
      "identifier": [ {
        "system": "http://hl7.org/fhir/sid/us-npi",
        "value": "123456"
      } ],
      "name": [ {
        "family": "Evil",
        "prefix": [ "Dr" ]
      } ]
    },
    "request": {
      "method": "PUT",
      "url": "Practitioner/b6e2872a-6992-4dd4-b530-17afcd259bc8"
    }
  }, {
    "fullUrl": "https://madie.cms.gov/MeasureReport/531bb080-db81-40de-9d8a-c684082d2c7b",
    "resource": {
      "resourceType": "MeasureReport",
      "id": "531bb080-db81-40de-9d8a-c684082d2c7b",
      "meta": {
        "profile": [ "http://hl7.org/fhir/us/cqfmeasures/StructureDefinition/test-case-cqfm" ]
      },
      "contained": [ {
        "resourceType": "Parameters",
        "id": "60ca0d3f-a0d0-42b9-b7c6-d9e8a9a8f195-parameters",
        "parameter": [ {
          "name": "subject",
          "valueString": "24466f7b-b722-4c54-9315-6116c81c3dd4"
        } ]
      } ],
      "extension": [ {
        "url": "http://hl7.org/fhir/us/cqfmeasures/StructureDefinition/cqfm-inputParameters",
        "valueReference": {
          "reference": "#60ca0d3f-a0d0-42b9-b7c6-d9e8a9a8f195-parameters"
        }
      }, {
        "url": "http://hl7.org/fhir/us/cqfmeasures/StructureDefinition/cqfm-testCaseDescription",
        "valueMarkdown": "Passes: IP, Passes DENOM because Last Gravida result is null, however previous G=1.   Pt is 27 years of age,  encounter dx delivery of singleton,  EGA @ 38 weeks\n"
      } ],
      "modifierExtension": [ {
        "url": "http://hl7.org/fhir/us/cqfmeasures/StructureDefinition/cqfm-isTestCase",
        "valueBoolean": true
      } ],
      "status": "complete",
      "type": "individual",
      "measure": "https://madie.cms.gov/Measure/CMS334FHIRPCCesareanBirth",
      "period": {
        "start": "2026-01-01",
        "end": "2026-12-31"
      },
      "group": [ {
        "population": [ {
          "code": {
            "coding": [ {
              "system": "http://terminology.hl7.org/CodeSystem/measure-population",
              "code": "initial-population",
              "display": "Initial Population"
            } ]
          },
          "count": 1
        }, {
          "code": {
            "coding": [ {
              "system": "http://terminology.hl7.org/CodeSystem/measure-population",
              "code": "denominator",
              "display": "Denominator"
            } ]
          },
          "count": 1
        }, {
          "code": {
            "coding": [ {
              "system": "http://terminology.hl7.org/CodeSystem/measure-population",
              "code": "denominator-exclusion",
              "display": "Denominator Exclusion"
            } ]
          },
          "count": 0
        }, {
          "code": {
            "coding": [ {
              "system": "http://terminology.hl7.org/CodeSystem/measure-population",
              "code": "numerator",
              "display": "Numerator"
            } ]
          },
          "count": 0
        } ]
      } ],
      "evaluatedResource": [ {
        "reference": "Patient/24466f7b-b722-4c54-9315-6116c81c3dd4"
      }, {
        "reference": "Observation/0c20ce7f-ff55-4c99-9a86-2cc1f56f2477"
      }, {
        "reference": "Observation/58a4078b-e34d-44c9-8c40-5b1d7c87a153"
      }, {
        "reference": "Observation/1be22fcd-f952-40a6-a106-428d7248c47a"
      }, {
        "reference": "Observation/c9ef7b96-ab5d-4976-917e-86b812550afa"
      }, {
        "reference": "Encounter/ca3bf0c9-225d-4142-adb5-5b8c2c3cb915"
      }, {
        "reference": "Procedure/cc4c9727-6263-48d4-951b-76611a20483f"
      }, {
        "reference": "Condition/68d024a6-5765-4a37-b915-b117858a86d1"
      }, {
        "reference": "Coverage/60e145e2-8647-4e32-a5aa-a492ce878e59"
      }, {
        "reference": "Organization/a974dca7-c80b-4dbe-9c2c-063fc85c7971"
      }, {
        "reference": "Practitioner/b6e2872a-6992-4dd4-b530-17afcd259bc8"
      } ]
    },
    "request": {
      "method": "PUT",
      "url": "MeasureReport/531bb080-db81-40de-9d8a-c684082d2c7b"
    }
  } ]
}