{
  "resourceType": "Bundle",
  "id": "6356dca654e383debade75aa",
  "type": "transaction",
  "entry": [ {
    "fullUrl": "https://madie.cms.gov/Patient/c9daa43d-c7f8-47a4-9cba-2d8162efb530",
    "resource": {
      "resourceType": "Patient",
      "id": "c9daa43d-c7f8-47a4-9cba-2d8162efb530",
      "meta": {
        "profile": [ "http://hl7.org/fhir/us/qicore/StructureDefinition/qicore-patient" ]
      },
      "text": {
        "status": "generated",
        "div": "<div xmlns=\"http://www.w3.org/1999/xhtml\"><div class=\"hapiHeaderText\">SMMEQBlood transfusionANDSMM <b>STRAT1Pass </b></div><table class=\"hapiPropertyTable\"><tbody><tr><td>Date of birth</td><td><span>01 February 2004</span></td></tr></tbody></table></div>"
      },
      "extension": [ {
        "url": "http://hl7.org/fhir/us/core/StructureDefinition/us-core-race",
        "extension": [ {
          "url": "ombCategory",
          "valueCoding": {
            "system": "urn:oid:2.16.840.1.113883.6.238",
            "code": "1002-5",
            "display": "American Indian or Alaska Native",
            "userSelected": true
          }
        }, {
          "url": "text",
          "valueString": "American Indian or Alaska Native"
        } ]
      }, {
        "url": "http://hl7.org/fhir/us/core/StructureDefinition/us-core-ethnicity",
        "extension": [ {
          "url": "ombCategory",
          "valueCoding": {
            "system": "urn:oid:2.16.840.1.113883.6.238",
            "code": "2135-2",
            "display": "Hispanic or Latino",
            "userSelected": true
          }
        }, {
          "url": "text",
          "valueString": "Hispanic or Latino"
        } ]
      } ],
      "identifier": [ {
        "type": {
          "coding": [ {
            "system": "http://terminology.hl7.org/CodeSystem/v2-0203",
            "code": "MR"
          } ]
        },
        "system": "https://bonnie-fhir.healthit.gov/",
        "value": "6356dca654e383debade75aa"
      } ],
      "active": true,
      "name": [ {
        "use": "usual",
        "family": "STRAT1Pass",
        "given": [ "SMMEQBlood transfusionANDSMM" ]
      } ],
      "gender": "female",
      "birthDate": "2004-02-01"
    },
    "request": {
      "method": "PUT",
      "url": "Patient/c9daa43d-c7f8-47a4-9cba-2d8162efb530"
    }
  }, {
    "fullUrl": "https://madie.cms.gov/Observation/f0952cf1-d404-41ca-9588-ad8d3a55ad40",
    "resource": {
      "resourceType": "Observation",
      "id": "f0952cf1-d404-41ca-9588-ad8d3a55ad40",
      "meta": {
        "profile": [ "http://hl7.org/fhir/us/qicore/StructureDefinition/qicore-observation" ]
      },
      "status": "final",
      "category": [ {
        "coding": [ {
          "system": "http://terminology.hl7.org/CodeSystem/observation-category",
          "code": "exam",
          "display": "exam",
          "userSelected": true
        } ]
      } ],
      "code": {
        "coding": [ {
          "system": "http://loinc.org",
          "code": "93857-1"
        } ]
      },
      "subject": {
        "reference": "Patient/c9daa43d-c7f8-47a4-9cba-2d8162efb530"
      },
      "effectiveDateTime": "2025-02-01T08:00:00.000+00:00",
      "valueDateTime": "2025-02-01T08:00:00+00:00"
    },
    "request": {
      "method": "PUT",
      "url": "Observation/f0952cf1-d404-41ca-9588-ad8d3a55ad40"
    }
  }, {
    "fullUrl": "https://madie.cms.gov/Observation/a4ceed65-320c-4310-94dd-703f14f3b0ff",
    "resource": {
      "resourceType": "Observation",
      "id": "a4ceed65-320c-4310-94dd-703f14f3b0ff",
      "meta": {
        "profile": [ "http://hl7.org/fhir/us/qicore/StructureDefinition/qicore-observation" ]
      },
      "status": "final",
      "category": [ {
        "coding": [ {
          "system": "http://terminology.hl7.org/CodeSystem/observation-category",
          "code": "exam",
          "display": "exam",
          "userSelected": true
        } ]
      } ],
      "code": {
        "coding": [ {
          "system": "http://loinc.org",
          "code": "11884-4"
        } ]
      },
      "subject": {
        "reference": "Patient/c9daa43d-c7f8-47a4-9cba-2d8162efb530"
      },
      "effectiveDateTime": "2025-02-01T08:00:00.000+00:00",
      "valueQuantity": {
        "value": 21,
        "system": "http://unitsofmeasure.org",
        "code": "wk"
      }
    },
    "request": {
      "method": "PUT",
      "url": "Observation/a4ceed65-320c-4310-94dd-703f14f3b0ff"
    }
  }, {
    "fullUrl": "https://madie.cms.gov/Encounter/e0209649-f7fc-4b83-960c-1f8b8eb2f025",
    "resource": {
      "resourceType": "Encounter",
      "id": "e0209649-f7fc-4b83-960c-1f8b8eb2f025",
      "meta": {
        "profile": [ "http://hl7.org/fhir/us/qicore/StructureDefinition/qicore-encounter" ]
      },
      "status": "finished",
      "class": {
        "system": "http://terminology.hl7.org/CodeSystem/v3-ActCode",
        "code": "IMP",
        "display": "inpatient encounter"
      },
      "type": [ {
        "coding": [ {
          "system": "http://snomed.info/sct",
          "code": "183452005"
        } ]
      } ],
      "subject": {
        "reference": "Patient/c9daa43d-c7f8-47a4-9cba-2d8162efb530"
      },
      "period": {
        "start": "2025-02-01T08:00:00.000Z",
        "end": "2025-02-05T08:15:00.000Z"
      },
      "diagnosis": [ {
        "extension": [ {
          "url": "http://hl7.org/fhir/us/qicore/StructureDefinition/qicore-encounter-diagnosisPresentOnAdmission",
          "valueCodeableConcept": {
            "coding": [ {
              "system": "https://www.cms.gov/Medicare/Medicare-Fee-for-Service-Payment/HospitalAcqCond/Coding",
              "code": "N"
            } ]
          }
        } ],
        "condition": {
          "reference": "Condition/bf90c466-0a8f-4441-a23d-59aa96b6b066"
        }
      } ]
    },
    "request": {
      "method": "PUT",
      "url": "Encounter/e0209649-f7fc-4b83-960c-1f8b8eb2f025"
    }
  }, {
    "fullUrl": "https://madie.cms.gov/Procedure/76cad06e-23cd-447b-91a9-30fe10316612",
    "resource": {
      "resourceType": "Procedure",
      "id": "76cad06e-23cd-447b-91a9-30fe10316612",
      "meta": {
        "profile": [ "http://hl7.org/fhir/us/qicore/StructureDefinition/qicore-procedure" ]
      },
      "extension": [ {
        "url": "http://hl7.org/fhir/us/qicore/StructureDefinition/qicore-recorded",
        "valueDateTime": "2013-04-05T09:35:00-04:00"
      } ],
      "status": "completed",
      "code": {
        "coding": [ {
          "system": "http://snomed.info/sct",
          "code": "10745001"
        } ]
      },
      "subject": {
        "reference": "Patient/c9daa43d-c7f8-47a4-9cba-2d8162efb530"
      },
      "performedPeriod": {
        "start": "2025-02-01T08:00:00.000Z",
        "end": "2025-02-05T08:15:00.000Z"
      }
    },
    "request": {
      "method": "PUT",
      "url": "Procedure/76cad06e-23cd-447b-91a9-30fe10316612"
    }
  }, {
    "fullUrl": "https://madie.cms.gov/Procedure/f3f458cc-e8e7-405a-9e0d-ec9fa7f7fcc3",
    "resource": {
      "resourceType": "Procedure",
      "id": "f3f458cc-e8e7-405a-9e0d-ec9fa7f7fcc3",
      "meta": {
        "profile": [ "http://hl7.org/fhir/us/qicore/StructureDefinition/qicore-procedure" ]
      },
      "extension": [ {
        "url": "http://hl7.org/fhir/us/qicore/StructureDefinition/qicore-recorded",
        "valueDateTime": "2025-02-01T00:01:00-04:00"
      } ],
      "status": "completed",
      "code": {
        "coding": [ {
          "system": "http://snomed.info/sct",
          "code": "11397000"
        } ]
      },
      "subject": {
        "reference": "Patient/c9daa43d-c7f8-47a4-9cba-2d8162efb530"
      },
      "performedPeriod": {
        "start": "2025-02-01T08:00:00.000Z",
        "end": "2025-02-01T08:15:00.000Z"
      }
    },
    "request": {
      "method": "PUT",
      "url": "Procedure/f3f458cc-e8e7-405a-9e0d-ec9fa7f7fcc3"
    }
  }, {
    "fullUrl": "https://madie.cms.gov/Condition/bf90c466-0a8f-4441-a23d-59aa96b6b066",
    "resource": {
      "resourceType": "Condition",
      "id": "bf90c466-0a8f-4441-a23d-59aa96b6b066",
      "meta": {
        "profile": [ "http://hl7.org/fhir/us/qicore/StructureDefinition/qicore-condition" ]
      },
      "category": [ {
        "coding": [ {
          "system": "http://terminology.hl7.org/CodeSystem/condition-category",
          "code": "encounter-diagnosis",
          "display": "Encounter Diagnosis"
        } ]
      } ],
      "code": {
        "coding": [ {
          "system": "http://hl7.org/fhir/sid/icd-10-cm",
          "version": "2023",
          "code": "A32.7",
          "display": "Listerial sepsis",
          "userSelected": true
        } ]
      },
      "subject": {
        "reference": "Patient/c9daa43d-c7f8-47a4-9cba-2d8162efb530"
      },
      "recordedDate": "2025-10-26T08:00:00.000+00:00"
    },
    "request": {
      "method": "PUT",
      "url": "Condition/bf90c466-0a8f-4441-a23d-59aa96b6b066"
    }
  }, {
    "fullUrl": "https://madie.cms.gov/Coverage/c8981184-0cc6-4152-872b-63503ba4e37a",
    "resource": {
      "resourceType": "Coverage",
      "id": "c8981184-0cc6-4152-872b-63503ba4e37a",
      "meta": {
        "profile": [ "http://hl7.org/fhir/us/qicore/StructureDefinition/qicore-coverage" ]
      },
      "status": "active",
      "beneficiary": {
        "reference": "Patient/c9daa43d-c7f8-47a4-9cba-2d8162efb530"
      },
      "payor": [ {
        "reference": "Organization/849b1b75-ab9c-42a2-8933-f3c8c1e07220"
      } ]
    },
    "request": {
      "method": "PUT",
      "url": "Coverage/c8981184-0cc6-4152-872b-63503ba4e37a"
    }
  }, {
    "fullUrl": "https://madie.cms.gov/Organization/849b1b75-ab9c-42a2-8933-f3c8c1e07220",
    "resource": {
      "resourceType": "Organization",
      "id": "849b1b75-ab9c-42a2-8933-f3c8c1e07220",
      "meta": {
        "profile": [ "http://hl7.org/fhir/us/qicore/StructureDefinition/qicore-organization" ]
      },
      "identifier": [ {
        "use": "temp",
        "system": "urn:oid:2.16.840.1.113883.4.4",
        "value": "21-3259825"
      } ],
      "active": true,
      "type": [ {
        "coding": [ {
          "system": "http://terminology.hl7.org/CodeSystem/organization-type",
          "code": "pay",
          "display": "Payer"
        } ]
      } ],
      "name": "Blue Cross Blue Shield of Texas",
      "telecom": [ {
        "system": "phone",
        "value": "(+1) 972-766-6900"
      } ],
      "address": [ {
        "use": "billing",
        "type": "postal",
        "line": [ "P.O. Box 660044" ],
        "city": "Dallas",
        "state": "TX",
        "postalCode": "75266-0044",
        "country": "USA"
      } ]
    },
    "request": {
      "method": "PUT",
      "url": "Organization/849b1b75-ab9c-42a2-8933-f3c8c1e07220"
    }
  }, {
    "fullUrl": "https://madie.cms.gov/Practitioner/57a8f25e-70fb-4b1c-8954-3d62a990d0ef",
    "resource": {
      "resourceType": "Practitioner",
      "id": "57a8f25e-70fb-4b1c-8954-3d62a990d0ef",
      "identifier": [ {
        "system": "http://hl7.org/fhir/sid/us-npi",
        "value": "123456"
      } ],
      "name": [ {
        "family": "Evil",
        "prefix": [ "Dr" ]
      } ]
    },
    "request": {
      "method": "PUT",
      "url": "Practitioner/57a8f25e-70fb-4b1c-8954-3d62a990d0ef"
    }
  }, {
    "fullUrl": "https://madie.cms.gov/MeasureReport/b26c59d0-8695-4c41-8b4f-ddf813a96561",
    "resource": {
      "resourceType": "MeasureReport",
      "id": "b26c59d0-8695-4c41-8b4f-ddf813a96561",
      "meta": {
        "profile": [ "http://hl7.org/fhir/us/cqfmeasures/StructureDefinition/test-case-cqfm" ]
      },
      "contained": [ {
        "resourceType": "Parameters",
        "id": "7d848ce2-1b10-4ddd-9a06-364fcc53ddf1-parameters",
        "parameter": [ {
          "name": "subject",
          "valueString": "c9daa43d-c7f8-47a4-9cba-2d8162efb530"
        } ]
      } ],
      "extension": [ {
        "url": "http://hl7.org/fhir/us/cqfmeasures/StructureDefinition/cqfm-inputParameters",
        "valueReference": {
          "reference": "#7d848ce2-1b10-4ddd-9a06-364fcc53ddf1-parameters"
        }
      }, {
        "url": "http://hl7.org/fhir/us/cqfmeasures/StructureDefinition/cqfm-testCaseDescription",
        "valueMarkdown": "Patient had a blood transfusion and another SMM (sepsis)\n"
      } ],
      "modifierExtension": [ {
        "url": "http://hl7.org/fhir/us/cqfmeasures/StructureDefinition/cqfm-isTestCase",
        "valueBoolean": true
      } ],
      "status": "complete",
      "type": "individual",
      "measure": "https://madie.cms.gov/Measure/CMS1028FHIRPCSevereOBComps",
      "period": {
        "start": "2025-01-01",
        "end": "2025-12-31"
      },
      "group": [ {
        "population": [ {
          "code": {
            "coding": [ {
              "system": "http://terminology.hl7.org/CodeSystem/measure-population",
              "code": "initial-population",
              "display": "Initial Population"
            } ]
          },
          "count": 1
        }, {
          "code": {
            "coding": [ {
              "system": "http://terminology.hl7.org/CodeSystem/measure-population",
              "code": "denominator",
              "display": "Denominator"
            } ]
          },
          "count": 1
        }, {
          "code": {
            "coding": [ {
              "system": "http://terminology.hl7.org/CodeSystem/measure-population",
              "code": "numerator",
              "display": "Numerator"
            } ]
          },
          "count": 1
        }, {
          "code": {
            "coding": [ {
              "system": "http://terminology.hl7.org/CodeSystem/measure-population",
              "code": "numerator-exclusion",
              "display": "Numerator Exclusion"
            } ]
          },
          "count": 0
        } ]
      }, {
        "population": [ {
          "code": {
            "coding": [ {
              "system": "http://terminology.hl7.org/CodeSystem/measure-population",
              "code": "initial-population",
              "display": "Initial Population"
            } ]
          },
          "count": 1
        }, {
          "code": {
            "coding": [ {
              "system": "http://terminology.hl7.org/CodeSystem/measure-population",
              "code": "denominator",
              "display": "Denominator"
            } ]
          },
          "count": 1
        }, {
          "code": {
            "coding": [ {
              "system": "http://terminology.hl7.org/CodeSystem/measure-population",
              "code": "numerator",
              "display": "Numerator"
            } ]
          },
          "count": 1
        }, {
          "code": {
            "coding": [ {
              "system": "http://terminology.hl7.org/CodeSystem/measure-population",
              "code": "numerator-exclusion",
              "display": "Numerator Exclusion"
            } ]
          },
          "count": 0
        } ]
      } ],
      "evaluatedResource": [ {
        "reference": "Patient/c9daa43d-c7f8-47a4-9cba-2d8162efb530"
      }, {
        "reference": "Observation/f0952cf1-d404-41ca-9588-ad8d3a55ad40"
      }, {
        "reference": "Observation/a4ceed65-320c-4310-94dd-703f14f3b0ff"
      }, {
        "reference": "Encounter/e0209649-f7fc-4b83-960c-1f8b8eb2f025"
      }, {
        "reference": "Procedure/76cad06e-23cd-447b-91a9-30fe10316612"
      }, {
        "reference": "Procedure/f3f458cc-e8e7-405a-9e0d-ec9fa7f7fcc3"
      }, {
        "reference": "Condition/bf90c466-0a8f-4441-a23d-59aa96b6b066"
      }, {
        "reference": "Coverage/c8981184-0cc6-4152-872b-63503ba4e37a"
      }, {
        "reference": "Organization/849b1b75-ab9c-42a2-8933-f3c8c1e07220"
      }, {
        "reference": "Practitioner/57a8f25e-70fb-4b1c-8954-3d62a990d0ef"
      } ]
    },
    "request": {
      "method": "PUT",
      "url": "MeasureReport/b26c59d0-8695-4c41-8b4f-ddf813a96561"
    }
  } ]
}