{
  "resourceType": "Bundle",
  "id": "g1f044ef3e654daa9107",
  "type": "transaction",
  "entry": [ {
    "fullUrl": "https://madie.cms.gov/Patient/f012a77c-8701-4e7b-bef0-2a02912a727d",
    "resource": {
      "resourceType": "Patient",
      "id": "f012a77c-8701-4e7b-bef0-2a02912a727d",
      "meta": {
        "profile": [ "http://hl7.org/fhir/us/qicore/StructureDefinition/qicore-patient" ]
      },
      "extension": [ {
        "url": "http://hl7.org/fhir/us/core/StructureDefinition/us-core-race",
        "extension": [ {
          "url": "ombCategory",
          "valueCoding": {
            "system": "urn:oid:2.16.840.1.113883.6.238",
            "code": "2028-9",
            "display": "Asian",
            "userSelected": true
          }
        }, {
          "url": "text",
          "valueString": "Asian"
        } ]
      }, {
        "url": "http://hl7.org/fhir/us/core/StructureDefinition/us-core-ethnicity",
        "extension": [ {
          "url": "ombCategory",
          "valueCoding": {
            "system": "urn:oid:2.16.840.1.113883.6.238",
            "code": "2186-5",
            "display": "Non Hispanic or Latino",
            "userSelected": true
          }
        }, {
          "url": "text",
          "valueString": "Non Hispanic or Latino"
        } ]
      } ],
      "identifier": [ {
        "type": {
          "coding": [ {
            "system": "http://terminology.hl7.org/CodeSystem/v2-0203",
            "code": "MR"
          } ]
        },
        "system": "https://bonnie-fhir.healthit.gov/",
        "value": "7551489e-d604-4999-bc6a-c73515538241"
      } ],
      "name": [ {
        "family": "DENEXCL1PASS",
        "given": [ "LeftAgainstMedicalAdvice" ]
      } ],
      "gender": "female",
      "birthDate": "1994-11-16"
    },
    "request": {
      "method": "PUT",
      "url": "Patient/f012a77c-8701-4e7b-bef0-2a02912a727d"
    }
  }, {
    "fullUrl": "https://madie.cms.gov/Encounter/9dd3390f-eade-4a42-9dbb-48d82f62ee2d",
    "resource": {
      "resourceType": "Encounter",
      "id": "9dd3390f-eade-4a42-9dbb-48d82f62ee2d",
      "meta": {
        "profile": [ "http://hl7.org/fhir/us/qicore/StructureDefinition/qicore-encounter" ]
      },
      "status": "finished",
      "class": {
        "system": "http://terminology.hl7.org/CodeSystem/v3-ActCode",
        "code": "EMER",
        "display": "emergency",
        "userSelected": true
      },
      "type": [ {
        "coding": [ {
          "system": "http://snomed.info/sct",
          "version": "2020-09",
          "code": "4525004",
          "display": "Emergency department patient visit",
          "userSelected": true
        } ]
      } ],
      "subject": {
        "reference": "Patient/f012a77c-8701-4e7b-bef0-2a02912a727d"
      },
      "period": {
        "start": "2026-10-09T05:00:00.000+00:00",
        "end": "2026-10-13T17:00:00.000+00:00"
      },
      "diagnosis": [ {
        "condition": {
          "reference": "Condition/627a4d43-779e-4874-a434-ed1c72a7de1e"
        }
      } ],
      "hospitalization": {
        "dischargeDisposition": {
          "coding": [ {
            "system": "http://snomed.info/sct",
            "code": "445060000",
            "display": "Left against medical advice (finding)",
            "userSelected": true
          } ]
        }
      }
    },
    "request": {
      "method": "PUT",
      "url": "Encounter/9dd3390f-eade-4a42-9dbb-48d82f62ee2d"
    }
  }, {
    "fullUrl": "https://madie.cms.gov/Condition/627a4d43-779e-4874-a434-ed1c72a7de1e",
    "resource": {
      "resourceType": "Condition",
      "id": "627a4d43-779e-4874-a434-ed1c72a7de1e",
      "meta": {
        "profile": [ "http://hl7.org/fhir/us/qicore/StructureDefinition/qicore-condition" ]
      },
      "clinicalStatus": {
        "coding": [ {
          "system": "http://terminology.hl7.org/CodeSystem/condition-clinical",
          "code": "active",
          "display": "Active",
          "userSelected": true
        } ]
      },
      "category": [ {
        "coding": [ {
          "system": "http://terminology.hl7.org/CodeSystem/condition-category",
          "code": "encounter-diagnosis",
          "display": "Encounter Diagnosis",
          "userSelected": true
        } ]
      } ],
      "code": {
        "coding": [ {
          "system": "http://hl7.org/fhir/sid/icd-10-cm",
          "code": "I21.21",
          "display": "ST elevation (STEMI) myocardial infarction involving left circumflex coronary artery",
          "userSelected": true
        } ]
      },
      "subject": {
        "reference": "Patient/f012a77c-8701-4e7b-bef0-2a02912a727d"
      },
      "encounter": {
        "reference": "Encounter/9dd3390f-eade-4a42-9dbb-48d82f62ee2d"
      },
      "onsetPeriod": {
        "start": "2026-10-09T05:00:00.000+00:00",
        "end": "2026-10-09T17:00:00.000+00:00"
      }
    },
    "request": {
      "method": "PUT",
      "url": "Condition/627a4d43-779e-4874-a434-ed1c72a7de1e"
    }
  }, {
    "fullUrl": "https://madie.cms.gov/MeasureReport/3abb871e-d741-4da6-952a-5d660b6fcaa6",
    "resource": {
      "resourceType": "MeasureReport",
      "id": "3abb871e-d741-4da6-952a-5d660b6fcaa6",
      "meta": {
        "profile": [ "http://hl7.org/fhir/us/cqfmeasures/StructureDefinition/test-case-cqfm" ]
      },
      "contained": [ {
        "resourceType": "Parameters",
        "id": "e524988b-934c-4f73-8d2e-c4c2ed5552df-parameters",
        "parameter": [ {
          "name": "subject",
          "valueString": "f012a77c-8701-4e7b-bef0-2a02912a727d"
        } ]
      } ],
      "extension": [ {
        "url": "http://hl7.org/fhir/us/cqfmeasures/StructureDefinition/cqfm-inputParameters",
        "valueReference": {
          "reference": "#e524988b-934c-4f73-8d2e-c4c2ed5552df-parameters"
        }
      }, {
        "url": "http://hl7.org/fhir/us/cqfmeasures/StructureDefinition/cqfm-testCaseDescription",
        "valueMarkdown": "Patient Left against Medical Advice"
      } ],
      "modifierExtension": [ {
        "url": "http://hl7.org/fhir/us/cqfmeasures/StructureDefinition/cqfm-isTestCase",
        "valueBoolean": true
      } ],
      "status": "complete",
      "type": "individual",
      "measure": "https://madie.cms.gov/Measure/CMS996FHIRAptTxforSTEMI",
      "period": {
        "start": "2026-01-01",
        "end": "2026-12-31"
      },
      "group": [ {
        "population": [ {
          "code": {
            "coding": [ {
              "system": "http://terminology.hl7.org/CodeSystem/measure-population",
              "code": "initial-population",
              "display": "Initial Population"
            } ]
          },
          "count": 1
        }, {
          "code": {
            "coding": [ {
              "system": "http://terminology.hl7.org/CodeSystem/measure-population",
              "code": "denominator",
              "display": "Denominator"
            } ]
          },
          "count": 1
        }, {
          "code": {
            "coding": [ {
              "system": "http://terminology.hl7.org/CodeSystem/measure-population",
              "code": "denominator-exclusion",
              "display": "Denominator Exclusion"
            } ]
          },
          "count": 1
        }, {
          "code": {
            "coding": [ {
              "system": "http://terminology.hl7.org/CodeSystem/measure-population",
              "code": "numerator",
              "display": "Numerator"
            } ]
          },
          "count": 0
        }, {
          "code": {
            "coding": [ {
              "system": "http://terminology.hl7.org/CodeSystem/measure-population",
              "code": "denominator-exception",
              "display": "Denominator Exception"
            } ]
          },
          "count": 0
        } ]
      } ],
      "evaluatedResource": [ {
        "reference": "Patient/f012a77c-8701-4e7b-bef0-2a02912a727d"
      }, {
        "reference": "Encounter/9dd3390f-eade-4a42-9dbb-48d82f62ee2d"
      }, {
        "reference": "Condition/627a4d43-779e-4874-a434-ed1c72a7de1e"
      } ]
    },
    "request": {
      "method": "PUT",
      "url": "MeasureReport/3abb871e-d741-4da6-952a-5d660b6fcaa6"
    }
  } ]
}