{
  "resourceType": "Bundle",
  "id": "6109650598086b538055a0dd",
  "type": "transaction",
  "entry": [ {
    "fullUrl": "Patient/10442fc5-ea43-4205-abce-dfe77be0198b",
    "resource": {
      "resourceType": "Patient",
      "id": "10442fc5-ea43-4205-abce-dfe77be0198b",
      "meta": {
        "profile": [ "http://hl7.org/fhir/us/qicore/StructureDefinition/qicore-patient" ]
      },
      "text": {
        "status": "generated",
        "div": "<div xmlns=\"http://www.w3.org/1999/xhtml\"><div class=\"hapiHeaderText\">RiskAssessMultOVEncrelevantDatetime <b>NUMERPASS </b></div><table class=\"hapiPropertyTable\"><tbody><tr><td>Identifier</td><td>4acdd1ab2ce8b6b5853988f06278aa61</td></tr><tr><td>Date of birth</td><td><span>25 April 2000</span></td></tr></tbody></table></div>"
      },
      "extension": [ {
        "url": "http://hl7.org/fhir/us/core/StructureDefinition/us-core-race",
        "extension": [ {
          "url": "ombCategory",
          "valueCoding": {
            "system": "urn:oid:2.16.840.1.113883.6.238",
            "code": "1002-5",
            "display": "American Indian or Alaska Native",
            "userSelected": true
          }
        }, {
          "url": "text",
          "valueString": "American Indian or Alaska Native"
        } ]
      }, {
        "url": "http://hl7.org/fhir/us/core/StructureDefinition/us-core-ethnicity",
        "extension": [ {
          "url": "ombCategory",
          "valueCoding": {
            "system": "urn:oid:2.16.840.1.113883.6.238",
            "code": "2186-5",
            "display": "Not Hispanic or Latino",
            "userSelected": true
          }
        }, {
          "url": "text",
          "valueString": "Not Hispanic or Latino"
        } ]
      } ],
      "identifier": [ {
        "type": {
          "coding": [ {
            "system": "http://terminology.hl7.org/CodeSystem/v2-0203",
            "code": "MR"
          } ]
        },
        "system": "https://bonnie-fhir.healthit.gov/",
        "value": "6109650598086b538055a0dd"
      } ],
      "active": true,
      "name": [ {
        "use": "usual",
        "family": "NUMPass",
        "given": [ "RiskAssmtMultEncrelevantDatetime" ]
      } ],
      "gender": "female",
      "birthDate": "2012-04-25"
    },
    "request": {
      "method": "PUT",
      "url": "Patient/10442fc5-ea43-4205-abce-dfe77be0198b"
    }
  }, {
    "fullUrl": "Encounter/5c98fd1ab848464ed33e9e8f",
    "resource": {
      "resourceType": "Encounter",
      "id": "5c98fd1ab848464ed33e9e8f",
      "meta": {
        "profile": [ "http://hl7.org/fhir/us/qicore/StructureDefinition/qicore-encounter" ]
      },
      "status": "finished",
      "class": {
        "system": "http://terminology.hl7.org/CodeSystem/v3-ActCode",
        "code": "AMB",
        "display": "ambulatory",
        "userSelected": true
      },
      "type": [ {
        "coding": [ {
          "system": "http://www.ama-assn.org/go/cpt",
          "code": "99213"
        } ]
      } ],
      "subject": {
        "reference": "Patient/10442fc5-ea43-4205-abce-dfe77be0198b"
      },
      "period": {
        "start": "2025-03-27T14:30:00.000+00:00",
        "end": "2025-03-27T15:00:00.000+00:00"
      },
      "length": {
        "value": 0.0,
        "unit": "days"
      },
      "reasonCode": [ {
        "coding": [ {
          "system": "http://hl7.org/fhir/sid/icd-10-cm",
          "version": "2021",
          "code": "F32.2",
          "display": "Major depressive disorder, single episode, severe without psychotic features",
          "userSelected": true
        } ]
      } ],
      "diagnosis": [ {
        "condition": {
          "reference": "Condition/major-depressive-disorder-active-a49c"
        },
        "use": {
          "coding": [ {
            "system": "http://snomed.info/sct",
            "version": "2022-09",
            "code": "10811161000119107",
            "display": "Major depressive disorder in mother complicating pregnancy (disorder)",
            "userSelected": true
          } ]
        }
      } ]
    },
    "request": {
      "method": "PUT",
      "url": "Encounter/5c98fd1ab848464ed33e9e8f"
    }
  }, {
    "fullUrl": "Encounter/5c98fd1ab848464ed33e9e90",
    "resource": {
      "resourceType": "Encounter",
      "id": "5c98fd1ab848464ed33e9e90",
      "meta": {
        "profile": [ "http://hl7.org/fhir/us/qicore/StructureDefinition/qicore-encounter" ]
      },
      "status": "finished",
      "class": {
        "system": "http://terminology.hl7.org/CodeSystem/v3-ActCode",
        "code": "AMB",
        "display": "ambulatory",
        "userSelected": true
      },
      "type": [ {
        "coding": [ {
          "system": "http://www.ama-assn.org/go/cpt",
          "code": "99212"
        } ]
      } ],
      "subject": {
        "reference": "Patient/10442fc5-ea43-4205-abce-dfe77be0198b"
      },
      "period": {
        "start": "2025-05-15T11:30:00.000+00:00",
        "end": "2025-05-15T12:00:00.000+00:00"
      },
      "length": {
        "value": 0.0,
        "unit": "days"
      }
    },
    "request": {
      "method": "PUT",
      "url": "Encounter/5c98fd1ab848464ed33e9e90"
    }
  }, {
    "fullUrl": "Encounter/5c98fd1ab848464ed33e9e91",
    "resource": {
      "resourceType": "Encounter",
      "id": "5c98fd1ab848464ed33e9e91",
      "meta": {
        "profile": [ "http://hl7.org/fhir/us/qicore/StructureDefinition/qicore-encounter" ]
      },
      "status": "finished",
      "class": {
        "system": "http://terminology.hl7.org/CodeSystem/v3-ActCode",
        "code": "AMB",
        "display": "ambulatory",
        "userSelected": true
      },
      "type": [ {
        "coding": [ {
          "system": "http://www.ama-assn.org/go/cpt",
          "code": "99212"
        } ]
      } ],
      "subject": {
        "reference": "Patient/10442fc5-ea43-4205-abce-dfe77be0198b"
      },
      "period": {
        "start": "2025-07-12T11:30:00.000+00:00",
        "end": "2025-07-12T12:00:00.000+00:00"
      },
      "length": {
        "value": 0.0,
        "unit": "days"
      },
      "reasonCode": [ {
        "coding": [ {
          "system": "http://snomed.info/sct",
          "version": "2020-09",
          "code": "10811161000119107",
          "display": "Major depressive disorder in mother complicating pregnancy (disorder)",
          "userSelected": true
        } ]
      } ],
      "diagnosis": [ {
        "condition": {
          "reference": "Condition/major-depressive-disorder-active-a49d"
        },
        "use": {
          "coding": [ {
            "system": "http://snomed.info/sct",
            "version": "2022-09",
            "code": "10811161000119107",
            "display": "Major depressive disorder in mother complicating pregnancy (disorder)",
            "userSelected": true
          } ]
        }
      } ]
    },
    "request": {
      "method": "PUT",
      "url": "Encounter/5c98fd1ab848464ed33e9e91"
    }
  }, {
    "fullUrl": "Encounter/5c98fd1ab848464ed33e9e92",
    "resource": {
      "resourceType": "Encounter",
      "id": "5c98fd1ab848464ed33e9e92",
      "meta": {
        "profile": [ "http://hl7.org/fhir/us/qicore/StructureDefinition/qicore-encounter" ]
      },
      "status": "finished",
      "class": {
        "system": "http://terminology.hl7.org/CodeSystem/v3-ActCode",
        "code": "AMB",
        "display": "ambulatory",
        "userSelected": true
      },
      "type": [ {
        "coding": [ {
          "system": "http://www.ama-assn.org/go/cpt",
          "code": "99212"
        } ]
      } ],
      "subject": {
        "reference": "Patient/10442fc5-ea43-4205-abce-dfe77be0198b"
      },
      "period": {
        "start": "2025-12-30T09:30:00.000+00:00",
        "end": "2025-12-30T10:00:00.000+00:00"
      },
      "length": {
        "value": 0.0,
        "unit": "days"
      }
    },
    "request": {
      "method": "PUT",
      "url": "Encounter/5c98fd1ab848464ed33e9e92"
    }
  }, {
    "fullUrl": "Procedure/5c98fd1ab848464ed33e9e93",
    "resource": {
      "resourceType": "Procedure",
      "id": "5c98fd1ab848464ed33e9e93",
      "meta": {
        "profile": [ "http://hl7.org/fhir/us/qicore/StructureDefinition/qicore-procedure" ]
      },
      "extension": [ {
        "url": "http://hl7.org/fhir/us/qicore/StructureDefinition/qicore-recorded",
        "valueDateTime": "2025-03-27T14:45:00.000Z"
      } ],
      "status": "completed",
      "code": {
        "coding": [ {
          "system": "http://snomed.info/sct",
          "code": "225337009"
        } ]
      },
      "subject": {
        "reference": "Patient/10442fc5-ea43-4205-abce-dfe77be0198b"
      },
      "performedDateTime": "2025-03-27T14:45:00.000+00:00"
    },
    "request": {
      "method": "PUT",
      "url": "Procedure/5c98fd1ab848464ed33e9e93"
    }
  }, {
    "fullUrl": "Procedure/5c98fd1ab848464ed33e9e94",
    "resource": {
      "resourceType": "Procedure",
      "id": "5c98fd1ab848464ed33e9e94",
      "meta": {
        "profile": [ "http://hl7.org/fhir/us/qicore/StructureDefinition/qicore-procedure" ]
      },
      "extension": [ {
        "url": "http://hl7.org/fhir/us/qicore/StructureDefinition/qicore-recorded",
        "valueDateTime": "2025-07-12T11:45:00.000Z"
      } ],
      "status": "completed",
      "code": {
        "coding": [ {
          "system": "http://snomed.info/sct",
          "code": "225337009"
        } ]
      },
      "subject": {
        "reference": "Patient/10442fc5-ea43-4205-abce-dfe77be0198b"
      },
      "performedDateTime": "2025-07-12T11:45:00.000+00:00"
    },
    "request": {
      "method": "PUT",
      "url": "Procedure/5c98fd1ab848464ed33e9e94"
    }
  }, {
    "fullUrl": "Condition/major-depressive-disorder-active-a49c",
    "resource": {
      "resourceType": "Condition",
      "id": "major-depressive-disorder-active-a49c",
      "meta": {
        "profile": [ "http://hl7.org/fhir/us/qicore/StructureDefinition/qicore-condition" ]
      },
      "category": [ {
        "coding": [ {
          "system": "http://terminology.hl7.org/CodeSystem/condition-category",
          "code": "encounter-diagnosis",
          "display": "Encounter Diagnosis"
        } ]
      } ],
      "code": {
        "coding": [ {
          "system": "http://snomed.info/sct",
          "version": "2022-09",
          "code": "10811121000119102",
          "display": "Major depressive disorder in mother complicating childbirth (disorder)",
          "userSelected": true
        } ]
      },
      "subject": {
        "reference": "Patient/10442fc5-ea43-4205-abce-dfe77be0198b"
      },
      "recordedDate": "2025-03-27T14:30:00.000+00:00"
    },
    "request": {
      "method": "PUT",
      "url": "Condition/major-depressive-disorder-active-a49c"
    }
  }, {
    "fullUrl": "Condition/major-depressive-disorder-active-a49d",
    "resource": {
      "resourceType": "Condition",
      "id": "major-depressive-disorder-active-a49d",
      "meta": {
        "profile": [ "http://hl7.org/fhir/us/qicore/StructureDefinition/qicore-condition" ]
      },
      "category": [ {
        "coding": [ {
          "system": "http://terminology.hl7.org/CodeSystem/condition-category",
          "code": "encounter-diagnosis",
          "display": "Encounter Diagnosis"
        } ]
      } ],
      "code": {
        "coding": [ {
          "system": "http://snomed.info/sct",
          "version": "2022-09",
          "code": "10811121000119102",
          "display": "Major depressive disorder in mother complicating childbirth (disorder)",
          "userSelected": true
        } ]
      },
      "subject": {
        "reference": "Patient/10442fc5-ea43-4205-abce-dfe77be0198b"
      },
      "recordedDate": "2025-07-12T11:30:00.000+00:00"
    },
    "request": {
      "method": "PUT",
      "url": "Condition/major-depressive-disorder-active-a49d"
    }
  }, {
    "fullUrl": "Coverage/Coverage-1",
    "resource": {
      "resourceType": "Coverage",
      "id": "Coverage-1",
      "meta": {
        "profile": [ "http://hl7.org/fhir/us/qicore/StructureDefinition/qicore-coverage" ]
      },
      "status": "active",
      "beneficiary": {
        "reference": "Patient/10442fc5-ea43-4205-abce-dfe77be0198b"
      },
      "payor": [ {
        "reference": "Organization/Org-123456"
      } ]
    },
    "request": {
      "method": "PUT",
      "url": "Coverage/Coverage-1"
    }
  }, {
    "fullUrl": "Organization/Org-123456",
    "resource": {
      "resourceType": "Organization",
      "id": "Org-123456",
      "meta": {
        "profile": [ "http://hl7.org/fhir/us/qicore/StructureDefinition/qicore-organization" ]
      },
      "identifier": [ {
        "use": "temp",
        "system": "urn:oid:2.16.840.1.113883.4.4",
        "value": "21-3259825"
      } ],
      "active": true,
      "type": [ {
        "coding": [ {
          "system": "http://terminology.hl7.org/CodeSystem/organization-type",
          "code": "pay",
          "display": "Payer"
        } ]
      } ],
      "name": "Blue Cross Blue Shield of Texas",
      "telecom": [ {
        "system": "phone",
        "value": "(+1) 972-766-6900"
      } ],
      "address": [ {
        "use": "billing",
        "type": "postal",
        "line": [ "P.O. Box 660044" ],
        "city": "Dallas",
        "state": "TX",
        "postalCode": "75266-0044",
        "country": "USA"
      } ]
    },
    "request": {
      "method": "PUT",
      "url": "Organization/Org-123456"
    }
  }, {
    "fullUrl": "Practitioner/practitioner-123456",
    "resource": {
      "resourceType": "Practitioner",
      "id": "practitioner-123456",
      "meta": {
        "profile": [ "http://hl7.org/fhir/us/qicore/StructureDefinition/qicore-practitioner" ]
      },
      "identifier": [ {
        "system": "http://hl7.org/fhir/sid/us-npi",
        "value": "123456"
      } ],
      "name": [ {
        "family": "Evil",
        "prefix": [ "Dr" ]
      } ]
    },
    "request": {
      "method": "PUT",
      "url": "Practitioner/practitioner-123456"
    }
  }, {
    "fullUrl": "MeasureReport/83a9f997-b322-4905-9239-88c902714bf6",
    "resource": {
      "resourceType": "MeasureReport",
      "id": "83a9f997-b322-4905-9239-88c902714bf6",
      "meta": {
        "profile": [ "http://hl7.org/fhir/us/cqfmeasures/StructureDefinition/test-case-cqfm" ]
      },
      "contained": [ {
        "resourceType": "Parameters",
        "id": "c3905d09-d86f-4211-9d85-41b2e1022358-parameters",
        "parameter": [ {
          "name": "subject",
          "valueString": "10442fc5-ea43-4205-abce-dfe77be0198b"
        } ]
      } ],
      "extension": [ {
        "url": "http://hl7.org/fhir/us/cqfmeasures/StructureDefinition/cqfm-inputParameters",
        "valueReference": {
          "reference": "#c3905d09-d86f-4211-9d85-41b2e1022358-parameters"
        }
      }, {
        "url": "http://hl7.org/fhir/us/cqfmeasures/StructureDefinition/cqfm-testCaseDescription",
        "valueMarkdown": "Patient with depression and suicide risk assessment during multiple office visit encounter using relevantDatetime"
      } ],
      "modifierExtension": [ {
        "url": "http://hl7.org/fhir/us/cqfmeasures/StructureDefinition/cqfm-isTestCase",
        "valueBoolean": true
      } ],
      "status": "complete",
      "type": "individual",
      "measure": "Measure/ChildandAdolescentMajorDepressiveDisorderMDDSuicideRiskAssessmentFHIR",
      "period": {
        "start": "2025-01-01",
        "end": "2025-12-31"
      },
      "group": [ {
        "population": [ {
          "code": {
            "coding": [ {
              "system": "http://terminology.hl7.org/CodeSystem/measure-population",
              "code": "initial-population",
              "display": "Initial Population"
            } ]
          },
          "count": 2
        }, {
          "code": {
            "coding": [ {
              "system": "http://terminology.hl7.org/CodeSystem/measure-population",
              "code": "denominator",
              "display": "Denominator"
            } ]
          },
          "count": 2
        }, {
          "code": {
            "coding": [ {
              "system": "http://terminology.hl7.org/CodeSystem/measure-population",
              "code": "numerator",
              "display": "Numerator"
            } ]
          },
          "count": 2
        } ]
      } ],
      "evaluatedResource": [ {
        "reference": "Patient/10442fc5-ea43-4205-abce-dfe77be0198b"
      }, {
        "reference": "Encounter/5c98fd1ab848464ed33e9e8f"
      }, {
        "reference": "Encounter/5c98fd1ab848464ed33e9e90"
      }, {
        "reference": "Encounter/5c98fd1ab848464ed33e9e91"
      }, {
        "reference": "Encounter/5c98fd1ab848464ed33e9e92"
      }, {
        "reference": "Procedure/5c98fd1ab848464ed33e9e93"
      }, {
        "reference": "Procedure/5c98fd1ab848464ed33e9e94"
      }, {
        "reference": "Condition/major-depressive-disorder-active-a49c"
      }, {
        "reference": "Condition/major-depressive-disorder-active-a49d"
      }, {
        "reference": "Coverage/Coverage-1"
      }, {
        "reference": "Organization/Org-123456"
      }, {
        "reference": "Practitioner/practitioner-123456"
      } ]
    },
    "request": {
      "method": "PUT",
      "url": "MeasureReport/83a9f997-b322-4905-9239-88c902714bf6"
    }
  } ]
}
