{"resourceType":"Bundle","id":"tests-edd8668f-d541-4869-9bb6-02e9e2c2509d-bundle","type":"transaction","entry":[{"fullUrl":"https://madie.cms.gov/Patient/edd8668f-d541-4869-9bb6-02e9e2c2509d","resource":{"resourceType":"Patient","id":"edd8668f-d541-4869-9bb6-02e9e2c2509d","meta":{"profile":["http://hl7.org/fhir/us/qicore/StructureDefinition/qicore-patient"]},"text":{"status":"generated","div":"<div xmlns=\"http://www.w3.org/1999/xhtml\"><div class=\"hapiHeaderText\">CMPDuringDiffEDTestOccurr <b>DENEXPASS </b></div><table class=\"hapiPropertyTable\"><tbody><tr><td>Identifier</td><td>fcf1262e7fbb728ee91bb3f762114a06e0ac67ead4b8481c3330832671d831a7</td></tr><tr><td>Date of birth</td><td><span>26 September 1975</span></td></tr></tbody></table></div>"},"extension":[{"url":"http://hl7.org/fhir/us/core/StructureDefinition/us-core-race","extension":[{"url":"ombCategory","valueCoding":{"system":"urn:oid:2.16.840.1.113883.6.238","code":"2054-5","display":"Black or African American","userSelected":true}},{"url":"text","valueString":"Black or African American"}]},{"url":"http://hl7.org/fhir/us/core/StructureDefinition/us-core-ethnicity","extension":[{"url":"ombCategory","valueCoding":{"system":"urn:oid:2.16.840.1.113883.6.238","code":"2186-5","display":"Not Hispanic or Latino","userSelected":true}},{"url":"text","valueString":"Not Hispanic or Latino"}]}],"identifier":[{"type":{"coding":[{"system":"http://terminology.hl7.org/CodeSystem/v2-0203","code":"MR"}]},"system":"https://bonnie-fhir.healthit.gov/","value":"60f82c2f98086b570510e2bc"}],"active":true,"name":[{"use":"usual","family":"DENEXPass","given":["CMPDuringDiffEDTestOccurr"]}],"gender":"female","birthDate":"1976-09-26"},"request":{"method":"PUT","url":"Patient/edd8668f-d541-4869-9bb6-02e9e2c2509d"}},{"fullUrl":"https://madie.cms.gov/Encounter/070f161d-703b-4f4f-a255-9cefc2b94ca8","resource":{"resourceType":"Encounter","id":"070f161d-703b-4f4f-a255-9cefc2b94ca8","meta":{"profile":["http://hl7.org/fhir/us/qicore/StructureDefinition/qicore-encounter"]},"status":"finished","class":{"system":"http://terminology.hl7.org/CodeSystem/v3-ActCode","code":"EMER","display":"emergency","userSelected":true},"type":[{"coding":[{"system":"http://snomed.info/sct","code":"4525004"}]}],"subject":{"reference":"Patient/edd8668f-d541-4869-9bb6-02e9e2c2509d"},"period":{"start":"2026-10-11T23:59:00+00:00","end":"2026-10-12T00:06:00+00:00"}},"request":{"method":"PUT","url":"Encounter/070f161d-703b-4f4f-a255-9cefc2b94ca8"}},{"fullUrl":"https://madie.cms.gov/Encounter/dd3529e6-29cd-42a5-907c-bc993411a7ef","resource":{"resourceType":"Encounter","id":"dd3529e6-29cd-42a5-907c-bc993411a7ef","meta":{"profile":["http://hl7.org/fhir/us/qicore/StructureDefinition/qicore-encounter"]},"status":"finished","class":{"system":"http://terminology.hl7.org/CodeSystem/v3-ActCode","code":"IMP","display":"inpatient encounter","userSelected":true},"type":[{"coding":[{"system":"http://snomed.info/sct","code":"32485007"}]}],"subject":{"reference":"Patient/edd8668f-d541-4869-9bb6-02e9e2c2509d"},"period":{"start":"2026-10-12T06:16:00+00:00","end":"2026-10-16T06:31:00+00:00"},"length":{"value":4,"unit":"days"},"diagnosis":[{"condition":{"reference":"Condition/60f96895-5093-4474-8b88-7aa146c5b4c5"},"use":{"coding":[{"system":"http://terminology.hl7.org/CodeSystem/diagnosis-role","code":"billing","display":"Billing"}]},"rank":1}]},"request":{"method":"PUT","url":"Encounter/dd3529e6-29cd-42a5-907c-bc993411a7ef"}},{"fullUrl":"https://madie.cms.gov/Procedure/3071f39b-55e7-4076-be52-b6bf7eb9a37c","resource":{"resourceType":"Procedure","id":"3071f39b-55e7-4076-be52-b6bf7eb9a37c","meta":{"profile":["http://hl7.org/fhir/us/qicore/StructureDefinition/qicore-procedure"]},"extension":[{"url":"http://hl7.org/fhir/us/qicore/StructureDefinition/qicore-recorded","valueDateTime":"2026-11-19T09:35:00-04:00"}],"status":"completed","code":{"coding":[{"system":"http://snomed.info/sct","code":"133918004"}]},"subject":{"reference":"Patient/edd8668f-d541-4869-9bb6-02e9e2c2509d"},"performedPeriod":{"start":"2026-10-12T00:00:00+00:00"}},"request":{"method":"PUT","url":"Procedure/3071f39b-55e7-4076-be52-b6bf7eb9a37c"}},{"fullUrl":"https://madie.cms.gov/Coverage/5f85841a-fde5-4dd5-b61d-0dba7420dc61","resource":{"resourceType":"Coverage","id":"5f85841a-fde5-4dd5-b61d-0dba7420dc61","status":"active","beneficiary":{"reference":"Patient/edd8668f-d541-4869-9bb6-02e9e2c2509d"},"period":{"start":"1976-09-26T08:00:00+00:00"},"payor":[{"reference":"Organization/607fdef9-3983-4cef-ab1a-95434d29b463"}]},"request":{"method":"PUT","url":"Coverage/5f85841a-fde5-4dd5-b61d-0dba7420dc61"}},{"fullUrl":"https://madie.cms.gov/Condition/60f96895-5093-4474-8b88-7aa146c5b4c5","resource":{"resourceType":"Condition","id":"60f96895-5093-4474-8b88-7aa146c5b4c5","meta":{"profile":["http://hl7.org/fhir/us/qicore/StructureDefinition/qicore-condition"]},"clinicalStatus":{"coding":[{"system":"http://terminology.hl7.org/CodeSystem/condition-clinical","code":"active"}]},"verificationStatus":{"coding":[{"system":"http://terminology.hl7.org/CodeSystem/condition-ver-status","code":"confirmed"}]},"category":[{"coding":[{"system":"http://terminology.hl7.org/CodeSystem/condition-category","code":"encounter-diagnosis","display":"Encounter Diagnosis"}]}],"code":{"coding":[{"system":"http://snomed.info/sct","version":"2020-09","code":"111297002","display":"Nonparalytic stroke (disorder)","userSelected":true}]},"subject":{"reference":"Patient/edd8668f-d541-4869-9bb6-02e9e2c2509d"},"recordedDate":"2026-08-13T08:00:00.000+00:00"},"request":{"method":"PUT","url":"Condition/60f96895-5093-4474-8b88-7aa146c5b4c5"}},{"fullUrl":"https://madie.cms.gov/Organization/f0f3c01a-e294-44cf-932c-f6a547ba7e81","resource":{"resourceType":"Organization","id":"607fdef9-3983-4cef-ab1a-95434d29b463","meta":{"profile":["http://hl7.org/fhir/us/qicore/StructureDefinition/qicore-organization"]},"identifier":[{"use":"temp","system":"urn:oid:2.16.840.1.113883.4.4","value":"21-3259825"}],"active":true,"type":[{"coding":[{"system":"http://terminology.hl7.org/CodeSystem/organization-type","code":"pay","display":"Payer"}]}],"name":"Blue Cross Blue Shield of Texas","telecom":[{"system":"phone","value":"(+1) 972-766-6900"}],"address":[{"use":"billing","type":"postal","line":["P.O. Box 660044"],"city":"Dallas","state":"TX","postalCode":"75266-0044","country":"USA"}]},"request":{"method":"PUT","url":"Organization/607fdef9-3983-4cef-ab1a-95434d29b463"}},{"fullUrl":"https://madie.cms.gov/MeasureReport/b5a89587-eabd-40f1-9dd7-810689565a28","resource":{"resourceType":"MeasureReport","id":"b5a89587-eabd-40f1-9dd7-810689565a28","meta":{"profile":["http://hl7.org/fhir/us/cqfmeasures/StructureDefinition/test-case-cqfm"]},"contained":[{"resourceType":"Parameters","id":"0af23031-e211-4de2-a017-314a2a140055-parameters","parameter":[{"name":"subject","valueString":"edd8668f-d541-4869-9bb6-02e9e2c2509d"}]}],"extension":[{"url":"http://hl7.org/fhir/us/cqfmeasures/StructureDefinition/cqfm-inputParameters","valueReference":{"reference":"#0af23031-e211-4de2-a017-314a2a140055-parameters"}},{"url":"http://hl7.org/fhir/us/cqfmeasures/StructureDefinition/cqfm-testCaseDescription","valueMarkdown":"Patient receives comfort measures performed during a different ED encounter from IP Encounter. Testing multiple occurrences.\n"}],"modifierExtension":[{"url":"http://hl7.org/fhir/us/cqfmeasures/StructureDefinition/cqfm-isTestCase","valueBoolean":true}],"status":"complete","type":"individual","measure":"https://madie.cms.gov/Measure/CMS72FHIRSTKAntithromboticDay2","period":{"start":"2026-01-01","end":"2026-12-31"},"group":[{"population":[{"code":{"coding":[{"system":"http://terminology.hl7.org/CodeSystem/measure-population","code":"initial-population","display":"Initial Population"}]},"count":1},{"code":{"coding":[{"system":"http://terminology.hl7.org/CodeSystem/measure-population","code":"denominator","display":"Denominator"}]},"count":1},{"code":{"coding":[{"system":"http://terminology.hl7.org/CodeSystem/measure-population","code":"denominator-exclusion","display":"Denominator Exclusion"}]},"count":1},{"code":{"coding":[{"system":"http://terminology.hl7.org/CodeSystem/measure-population","code":"numerator","display":"Numerator"}]},"count":0},{"code":{"coding":[{"system":"http://terminology.hl7.org/CodeSystem/measure-population","code":"denominator-exception","display":"Denominator Exception"}]},"count":0}]}]},"request":{"method":"PUT","url":"MeasureReport/b5a89587-eabd-40f1-9dd7-810689565a28"}}]}