{"resourceType":"Bundle","id":"tests-be5c4068-2639-4b0c-bea3-5b7c80a6fe3b-bundle","type":"transaction","entry":[{"fullUrl":"https://madie.cms.gov/Patient/be5c4068-2639-4b0c-bea3-5b7c80a6fe3b","resource":{"resourceType":"Patient","id":"be5c4068-2639-4b0c-bea3-5b7c80a6fe3b","meta":{"profile":["http://hl7.org/fhir/us/qicore/StructureDefinition/qicore-patient"]},"text":{"status":"generated","div":"<div xmlns=\"http://www.w3.org/1999/xhtml\"><div class=\"hapiHeaderText\">INRGT3.5(100).resultDatetime_EQHospEncStartday <b>DENEXCEPASS </b></div><table class=\"hapiPropertyTable\"><tbody><tr><td>Identifier</td><td>dfa8445af2775eb6d72ac78e5253d54ae4b88f8656f6a0b4bf81ce35b6315a00</td></tr><tr><td>Date of birth</td><td><span>26 September 1975</span></td></tr></tbody></table></div>"},"extension":[{"url":"http://hl7.org/fhir/us/core/StructureDefinition/us-core-race","extension":[{"url":"ombCategory","valueCoding":{"system":"urn:oid:2.16.840.1.113883.6.238","code":"2054-5","display":"Black or African American","userSelected":true}},{"url":"text","valueString":"Black or African American"}]},{"url":"http://hl7.org/fhir/us/core/StructureDefinition/us-core-ethnicity","extension":[{"url":"ombCategory","valueCoding":{"system":"urn:oid:2.16.840.1.113883.6.238","code":"2186-5","display":"Not Hispanic or Latino","userSelected":true}},{"url":"text","valueString":"Not Hispanic or Latino"}]}],"identifier":[{"type":{"coding":[{"system":"http://terminology.hl7.org/CodeSystem/v2-0203","code":"MR"}]},"system":"https://bonnie-fhir.healthit.gov/","value":"60f82c2f98086b570510e2c7"}],"active":true,"name":[{"use":"usual","family":"DENEXCEPass","given":["INRGT3.5(100).resultDatetime_EQHospEncStartday"]}],"gender":"female","birthDate":"1976-09-26"},"request":{"method":"PUT","url":"Patient/be5c4068-2639-4b0c-bea3-5b7c80a6fe3b"}},{"fullUrl":"https://madie.cms.gov/Encounter/36106a61-3269-45ca-9439-a4dfe778f1d0","resource":{"resourceType":"Encounter","id":"36106a61-3269-45ca-9439-a4dfe778f1d0","meta":{"profile":["http://hl7.org/fhir/us/qicore/StructureDefinition/qicore-encounter"]},"status":"finished","class":{"system":"http://terminology.hl7.org/CodeSystem/v3-ActCode","code":"IMP","display":"inpatient encounter","userSelected":true},"type":[{"coding":[{"system":"http://snomed.info/sct","code":"32485007"}]}],"subject":{"reference":"Patient/be5c4068-2639-4b0c-bea3-5b7c80a6fe3b"},"period":{"start":"2026-10-10T06:30:00+00:00","end":"2026-10-15T11:30:00+00:00"},"length":{"value":5,"unit":"days"},"diagnosis":[{"condition":{"reference":"Condition/cde6e6ec-0c1c-48ca-ab55-1595695df895"},"use":{"coding":[{"system":"http://terminology.hl7.org/CodeSystem/diagnosis-role","code":"billing","display":"Billing"}]},"rank":1}]},"request":{"method":"PUT","url":"Encounter/36106a61-3269-45ca-9439-a4dfe778f1d0"}},{"fullUrl":"https://madie.cms.gov/Observation/29ced28a-ded5-472e-9ed9-e0362d96a27b","resource":{"resourceType":"Observation","id":"29ced28a-ded5-472e-9ed9-e0362d96a27b","meta":{"profile":["http://hl7.org/fhir/us/qicore/StructureDefinition/qicore-observation"]},"status":"amended","category":[{"coding":[{"system":"http://terminology.hl7.org/CodeSystem/observation-category","code":"laboratory","display":"Laboratory"}]}],"code":{"coding":[{"system":"http://loinc.org","code":"34714-6"}]},"subject":{"reference":"Patient/be5c4068-2639-4b0c-bea3-5b7c80a6fe3b"},"effectivePeriod":{"start":"2026-10-10T06:15:00+00:00"},"issued":"2026-10-10T06:30:00.000+00:00","valueQuantity":{"value":100,"unit":"0","system":"http://unitsofmeasure.org"}},"request":{"method":"PUT","url":"Observation/29ced28a-ded5-472e-9ed9-e0362d96a27b"}},{"fullUrl":"https://madie.cms.gov/Coverage/ded1ea07-f976-4914-b450-15d2fa9d5e08","resource":{"resourceType":"Coverage","id":"ded1ea07-f976-4914-b450-15d2fa9d5e08","status":"active","beneficiary":{"reference":"Patient/be5c4068-2639-4b0c-bea3-5b7c80a6fe3b"},"period":{"start":"1976-09-26T08:00:00+00:00"},"payor":[{"reference":"Organization/a6c3e6fa-301e-4714-9d04-3dde9a7e7c49"}]},"request":{"method":"PUT","url":"Coverage/ded1ea07-f976-4914-b450-15d2fa9d5e08"}},{"fullUrl":"https://madie.cms.gov/Condition/cde6e6ec-0c1c-48ca-ab55-1595695df895","resource":{"resourceType":"Condition","id":"cde6e6ec-0c1c-48ca-ab55-1595695df895","meta":{"profile":["http://hl7.org/fhir/us/qicore/StructureDefinition/qicore-condition"]},"clinicalStatus":{"coding":[{"system":"http://terminology.hl7.org/CodeSystem/condition-clinical","code":"active"}]},"verificationStatus":{"coding":[{"system":"http://terminology.hl7.org/CodeSystem/condition-ver-status","code":"confirmed"}]},"category":[{"coding":[{"system":"http://terminology.hl7.org/CodeSystem/condition-category","code":"encounter-diagnosis","display":"Encounter Diagnosis"}]}],"code":{"coding":[{"system":"http://snomed.info/sct","version":"2020-09","code":"111297002","display":"Nonparalytic stroke (disorder)","userSelected":true}]},"subject":{"reference":"Patient/be5c4068-2639-4b0c-bea3-5b7c80a6fe3b"},"recordedDate":"2026-08-06T08:00:00.000+00:00"},"request":{"method":"PUT","url":"Condition/cde6e6ec-0c1c-48ca-ab55-1595695df895"}},{"fullUrl":"https://madie.cms.gov/Organization/9ddb47ba-dbf4-4a70-9041-43a778842357","resource":{"resourceType":"Organization","id":"a6c3e6fa-301e-4714-9d04-3dde9a7e7c49","meta":{"profile":["http://hl7.org/fhir/us/qicore/StructureDefinition/qicore-organization"]},"identifier":[{"use":"temp","system":"urn:oid:2.16.840.1.113883.4.4","value":"21-3259825"}],"active":true,"type":[{"coding":[{"system":"http://terminology.hl7.org/CodeSystem/organization-type","code":"pay","display":"Payer"}]}],"name":"Blue Cross Blue Shield of Texas","telecom":[{"system":"phone","value":"(+1) 972-766-6900"}],"address":[{"use":"billing","type":"postal","line":["P.O. Box 660044"],"city":"Dallas","state":"TX","postalCode":"75266-0044","country":"USA"}]},"request":{"method":"PUT","url":"Organization/a6c3e6fa-301e-4714-9d04-3dde9a7e7c49"}},{"fullUrl":"https://madie.cms.gov/Practitioner/6140c15e-1e27-4278-b70a-52d1a8b8ec21","resource":{"resourceType":"Practitioner","id":"6140c15e-1e27-4278-b70a-52d1a8b8ec21","identifier":[{"system":"http://hl7.org/fhir/sid/us-npi","value":"123456"}],"name":[{"family":"Evil","prefix":["Dr"]}]},"request":{"method":"PUT","url":"Practitioner/6140c15e-1e27-4278-b70a-52d1a8b8ec21"}},{"fullUrl":"https://madie.cms.gov/MeasureReport/85be60f8-1e7a-4ca4-abcd-f4c82ee42daf","resource":{"resourceType":"MeasureReport","id":"85be60f8-1e7a-4ca4-abcd-f4c82ee42daf","meta":{"profile":["http://hl7.org/fhir/us/cqfmeasures/StructureDefinition/test-case-cqfm"]},"contained":[{"resourceType":"Parameters","id":"62ce77f7-fd4c-4de3-9211-21498f8871c2-parameters","parameter":[{"name":"subject","valueString":"be5c4068-2639-4b0c-bea3-5b7c80a6fe3b"}]}],"extension":[{"url":"http://hl7.org/fhir/us/cqfmeasures/StructureDefinition/cqfm-inputParameters","valueReference":{"reference":"#62ce77f7-fd4c-4de3-9211-21498f8871c2-parameters"}},{"url":"http://hl7.org/fhir/us/cqfmeasures/StructureDefinition/cqfm-testCaseDescription","valueMarkdown":"Patient receives INR of greater than 3.5 equal to the day of IP start. No ED. No Obs.\n"}],"modifierExtension":[{"url":"http://hl7.org/fhir/us/cqfmeasures/StructureDefinition/cqfm-isTestCase","valueBoolean":true}],"status":"complete","type":"individual","measure":"https://madie.cms.gov/Measure/CMS72FHIRSTKAntithromboticDay2","period":{"start":"2026-01-01","end":"2026-12-31"},"group":[{"population":[{"code":{"coding":[{"system":"http://terminology.hl7.org/CodeSystem/measure-population","code":"initial-population","display":"Initial Population"}]},"count":1},{"code":{"coding":[{"system":"http://terminology.hl7.org/CodeSystem/measure-population","code":"denominator","display":"Denominator"}]},"count":1},{"code":{"coding":[{"system":"http://terminology.hl7.org/CodeSystem/measure-population","code":"denominator-exclusion","display":"Denominator Exclusion"}]},"count":0},{"code":{"coding":[{"system":"http://terminology.hl7.org/CodeSystem/measure-population","code":"numerator","display":"Numerator"}]},"count":0},{"code":{"coding":[{"system":"http://terminology.hl7.org/CodeSystem/measure-population","code":"denominator-exception","display":"Denominator Exception"}]},"count":1}]}]},"request":{"method":"PUT","url":"MeasureReport/85be60f8-1e7a-4ca4-abcd-f4c82ee42daf"}}]}