{"resourceType":"Bundle","id":"tests-f53d8150-0e5a-43b1-be8e-7a356f74f045-bundle","type":"transaction","entry":[{"fullUrl":"https://madie.cms.gov/Patient/f53d8150-0e5a-43b1-be8e-7a356f74f045","resource":{"resourceType":"Patient","id":"f53d8150-0e5a-43b1-be8e-7a356f74f045","meta":{"profile":["http://hl7.org/fhir/us/qicore/StructureDefinition/qicore-patient"]},"text":{"status":"generated","div":"<div xmlns=\"http://www.w3.org/1999/xhtml\"><div class=\"hapiHeaderText\">CMP_DayOf_RelvDat_1minAftEDEnd_EDEndLT1hrB4Obs_ObsEndLT1hrB4IP <b>DENEXPASS </b></div><table class=\"hapiPropertyTable\"><tbody><tr><td>Date of birth</td><td><span>01 January 1980</span></td></tr></tbody></table></div>"},"extension":[{"url":"http://hl7.org/fhir/us/core/StructureDefinition/us-core-race","extension":[{"url":"ombCategory","valueCoding":{"system":"urn:oid:2.16.840.1.113883.6.238","code":"2054-5","display":"Black or African American","userSelected":true}},{"url":"text","valueString":"Black or African American"}]},{"url":"http://hl7.org/fhir/us/core/StructureDefinition/us-core-ethnicity","extension":[{"url":"ombCategory","valueCoding":{"system":"urn:oid:2.16.840.1.113883.6.238","code":"2186-5","display":"Not Hispanic or Latino","userSelected":true}},{"url":"text","valueString":"Not Hispanic or Latino"}]}],"identifier":[{"type":{"coding":[{"system":"http://terminology.hl7.org/CodeSystem/v2-0203","code":"MR"}]},"system":"https://bonnie-fhir.healthit.gov/","value":"60f82c3098086b570510e2d7"}],"active":true,"name":[{"use":"usual","family":"DENEXPass","given":["CMP_DayOf_RelvDat_1minAftEDEnd_EDEndLT1hrB4Obs_ObsEndLT1hrB4IP"]}],"gender":"female","birthDate":"1981-01-01"},"request":{"method":"PUT","url":"Patient/f53d8150-0e5a-43b1-be8e-7a356f74f045"}},{"fullUrl":"https://madie.cms.gov/Encounter/0672aa5a-db1a-4d2f-a8ad-6f103e80ca1d","resource":{"resourceType":"Encounter","id":"0672aa5a-db1a-4d2f-a8ad-6f103e80ca1d","meta":{"profile":["http://hl7.org/fhir/us/qicore/StructureDefinition/qicore-encounter"]},"status":"finished","class":{"system":"http://terminology.hl7.org/CodeSystem/v3-ActCode","code":"EMER","display":"emergency","userSelected":true},"type":[{"coding":[{"system":"http://snomed.info/sct","code":"4525004"}]}],"subject":{"reference":"Patient/f53d8150-0e5a-43b1-be8e-7a356f74f045"},"period":{"start":"2026-11-18T07:00:00+00:00","end":"2026-11-18T08:01:00+00:00"},"diagnosis":[{"condition":{"reference":"Condition/896bb5fb-c368-4d01-b743-7bc698cb2bc6"},"use":{"coding":[{"system":"http://terminology.hl7.org/CodeSystem/diagnosis-role","code":"billing","display":"Billing"}]},"rank":1}]},"request":{"method":"PUT","url":"Encounter/0672aa5a-db1a-4d2f-a8ad-6f103e80ca1d"}},{"fullUrl":"https://madie.cms.gov/Encounter/a570b544-1a19-40ab-8fbb-dd50cc9fe99e","resource":{"resourceType":"Encounter","id":"a570b544-1a19-40ab-8fbb-dd50cc9fe99e","meta":{"profile":["http://hl7.org/fhir/us/qicore/StructureDefinition/qicore-encounter"]},"status":"finished","class":{"system":"http://terminology.hl7.org/CodeSystem/v3-ActCode","code":"OBSENC","display":"observation encounter","userSelected":true},"type":[{"coding":[{"system":"http://snomed.info/sct","code":"448951000124107"}]}],"subject":{"reference":"Patient/f53d8150-0e5a-43b1-be8e-7a356f74f045"},"period":{"start":"2026-11-18T09:00:00+00:00","end":"2026-11-18T10:01:00+00:00"}},"request":{"method":"PUT","url":"Encounter/a570b544-1a19-40ab-8fbb-dd50cc9fe99e"}},{"fullUrl":"https://madie.cms.gov/Encounter/2eb16e25-ea8f-43dd-a45a-d74b644a98bd","resource":{"resourceType":"Encounter","id":"2eb16e25-ea8f-43dd-a45a-d74b644a98bd","meta":{"profile":["http://hl7.org/fhir/us/qicore/StructureDefinition/qicore-encounter"]},"status":"finished","class":{"system":"http://terminology.hl7.org/CodeSystem/v3-ActCode","code":"IMP","display":"inpatient encounter","userSelected":true},"type":[{"coding":[{"system":"http://snomed.info/sct","code":"183452005"}]}],"subject":{"reference":"Patient/f53d8150-0e5a-43b1-be8e-7a356f74f045"},"period":{"start":"2026-11-18T11:00:00+00:00","end":"2026-11-20T08:15:00+00:00"},"diagnosis":[{"condition":{"reference":"Condition/896bb5fb-c368-4d01-b743-7bc698cb2bc6"},"use":{"coding":[{"system":"http://terminology.hl7.org/CodeSystem/diagnosis-role","code":"billing","display":"Billing"}]},"rank":1}]},"request":{"method":"PUT","url":"Encounter/2eb16e25-ea8f-43dd-a45a-d74b644a98bd"}},{"fullUrl":"https://madie.cms.gov/Procedure/b2f006ab-2c4e-41c2-9b1b-29a8c1c6d721","resource":{"resourceType":"Procedure","id":"b2f006ab-2c4e-41c2-9b1b-29a8c1c6d721","meta":{"profile":["http://hl7.org/fhir/us/qicore/StructureDefinition/qicore-procedure"]},"extension":[{"url":"http://hl7.org/fhir/us/qicore/StructureDefinition/qicore-recorded","valueDateTime":"2014-04-05T09:35:00-04:00"}],"status":"completed","code":{"coding":[{"system":"http://snomed.info/sct","code":"133918004"}]},"subject":{"reference":"Patient/f53d8150-0e5a-43b1-be8e-7a356f74f045"},"performedPeriod":{"start":"2026-11-18T11:00:00+00:00","end":"2026-11-20T08:15:00+00:00"}},"request":{"method":"PUT","url":"Procedure/b2f006ab-2c4e-41c2-9b1b-29a8c1c6d721"}},{"fullUrl":"https://madie.cms.gov/Condition/896bb5fb-c368-4d01-b743-7bc698cb2bc6","resource":{"resourceType":"Condition","id":"896bb5fb-c368-4d01-b743-7bc698cb2bc6","meta":{"profile":["http://hl7.org/fhir/us/qicore/StructureDefinition/qicore-condition"]},"clinicalStatus":{"coding":[{"system":"http://terminology.hl7.org/CodeSystem/condition-clinical","code":"active"}]},"verificationStatus":{"coding":[{"system":"http://terminology.hl7.org/CodeSystem/condition-ver-status","code":"confirmed"}]},"category":[{"coding":[{"system":"http://terminology.hl7.org/CodeSystem/condition-category","code":"encounter-diagnosis","display":"Encounter Diagnosis"}]}],"code":{"coding":[{"system":"http://snomed.info/sct","version":"2020-09","code":"111297002","display":"Nonparalytic stroke (disorder)","userSelected":true}]},"subject":{"reference":"Patient/f53d8150-0e5a-43b1-be8e-7a356f74f045"},"recordedDate":"2026-08-13T08:00:00.000+00:00"},"request":{"method":"PUT","url":"Condition/896bb5fb-c368-4d01-b743-7bc698cb2bc6"}},{"fullUrl":"https://madie.cms.gov/Coverage/53034b20-8536-422a-a052-765fd9c0399e","resource":{"resourceType":"Coverage","id":"53034b20-8536-422a-a052-765fd9c0399e","meta":{"profile":["http://hl7.org/fhir/us/qicore/StructureDefinition/qicore-coverage"]},"status":"active","beneficiary":{"reference":"Patient/f53d8150-0e5a-43b1-be8e-7a356f74f045"},"payor":[{"reference":"Organization/9e9b3f13-a353-4173-b29b-947d6f1f2031"}]},"request":{"method":"PUT","url":"Coverage/53034b20-8536-422a-a052-765fd9c0399e"}},{"fullUrl":"https://madie.cms.gov/Organization/af0ca060-455a-4c69-95fe-aaefc57a434d","resource":{"resourceType":"Organization","id":"9e9b3f13-a353-4173-b29b-947d6f1f2031","meta":{"profile":["http://hl7.org/fhir/us/qicore/StructureDefinition/qicore-organization"]},"identifier":[{"use":"temp","system":"urn:oid:2.16.840.1.113883.4.4","value":"21-3259825"}],"active":true,"type":[{"coding":[{"system":"http://terminology.hl7.org/CodeSystem/organization-type","code":"pay","display":"Payer"}]}],"name":"Blue Cross Blue Shield of Texas","telecom":[{"system":"phone","value":"(+1) 972-766-6900"}],"address":[{"use":"billing","type":"postal","line":["P.O. Box 660044"],"city":"Dallas","state":"TX","postalCode":"75266-0044","country":"USA"}]},"request":{"method":"PUT","url":"Organization/9e9b3f13-a353-4173-b29b-947d6f1f2031"}},{"fullUrl":"https://madie.cms.gov/MeasureReport/4faa8f13-cb25-4c08-ba1a-b05a5dd3e3e4","resource":{"resourceType":"MeasureReport","id":"4faa8f13-cb25-4c08-ba1a-b05a5dd3e3e4","meta":{"profile":["http://hl7.org/fhir/us/cqfmeasures/StructureDefinition/test-case-cqfm"]},"contained":[{"resourceType":"Parameters","id":"9eda81fc-0ad0-45d0-ad5d-6611e0344f1d-parameters","parameter":[{"name":"subject","valueString":"f53d8150-0e5a-43b1-be8e-7a356f74f045"}]}],"extension":[{"url":"http://hl7.org/fhir/us/cqfmeasures/StructureDefinition/cqfm-inputParameters","valueReference":{"reference":"#9eda81fc-0ad0-45d0-ad5d-6611e0344f1d-parameters"}},{"url":"http://hl7.org/fhir/us/cqfmeasures/StructureDefinition/cqfm-testCaseDescription","valueMarkdown":"Patient receives comfort measures performed on the day of hospital arrival, 1 min after ED end. ED ends less than 1 hour before Obs Start, Obs ends less than 1 hour before IP start.\n"}],"modifierExtension":[{"url":"http://hl7.org/fhir/us/cqfmeasures/StructureDefinition/cqfm-isTestCase","valueBoolean":true}],"status":"complete","type":"individual","measure":"https://madie.cms.gov/Measure/CMS72FHIRSTKAntithromboticDay2","period":{"start":"2026-01-01","end":"2026-12-31"},"group":[{"population":[{"code":{"coding":[{"system":"http://terminology.hl7.org/CodeSystem/measure-population","code":"initial-population","display":"Initial Population"}]},"count":1},{"code":{"coding":[{"system":"http://terminology.hl7.org/CodeSystem/measure-population","code":"denominator","display":"Denominator"}]},"count":1},{"code":{"coding":[{"system":"http://terminology.hl7.org/CodeSystem/measure-population","code":"denominator-exclusion","display":"Denominator Exclusion"}]},"count":1},{"code":{"coding":[{"system":"http://terminology.hl7.org/CodeSystem/measure-population","code":"numerator","display":"Numerator"}]},"count":0},{"code":{"coding":[{"system":"http://terminology.hl7.org/CodeSystem/measure-population","code":"denominator-exception","display":"Denominator Exception"}]},"count":0}]}]},"request":{"method":"PUT","url":"MeasureReport/4faa8f13-cb25-4c08-ba1a-b05a5dd3e3e4"}}]}