{"resourceType":"Bundle","id":"tests-3ab85f43-dd45-4827-8f13-ad9d1208d2e0-bundle","type":"transaction","entry":[{"fullUrl":"https://madie.cms.gov/Patient/3ab85f43-dd45-4827-8f13-ad9d1208d2e0","resource":{"resourceType":"Patient","id":"3ab85f43-dd45-4827-8f13-ad9d1208d2e0","meta":{"profile":["http://hl7.org/fhir/us/qicore/StructureDefinition/qicore-patient"]},"text":{"status":"generated","div":"<div xmlns=\"http://www.w3.org/1999/xhtml\"><div class=\"hapiHeaderText\">LOS=1Day_EDB4EncIP <b>DENEXPASS </b></div><table class=\"hapiPropertyTable\"><tbody><tr><td>Identifier</td><td>95552307b3c1ddf2b7349c2d62c41aca</td></tr><tr><td>Date of birth</td><td><span>21 August 1994</span></td></tr></tbody></table></div>"},"extension":[{"url":"http://hl7.org/fhir/us/core/StructureDefinition/us-core-race","extension":[{"url":"ombCategory","valueCoding":{"system":"urn:oid:2.16.840.1.113883.6.238","code":"1002-5","display":"American Indian or Alaska Native","userSelected":true}},{"url":"text","valueString":"American Indian or Alaska Native"}]},{"url":"http://hl7.org/fhir/us/core/StructureDefinition/us-core-ethnicity","extension":[{"url":"ombCategory","valueCoding":{"system":"urn:oid:2.16.840.1.113883.6.238","code":"2186-5","display":"Not Hispanic or Latino","userSelected":true}},{"url":"text","valueString":"Not Hispanic or Latino"}]}],"identifier":[{"type":{"coding":[{"system":"http://terminology.hl7.org/CodeSystem/v2-0203","code":"MR"}]},"system":"https://bonnie-fhir.healthit.gov/","value":"60f82c2e98086b570510e26d"}],"active":true,"name":[{"use":"usual","family":"DENEXPass","given":["LOS=1Day_EDB4EncIP"]}],"gender":"male","birthDate":"1995-08-21"},"request":{"method":"PUT","url":"Patient/3ab85f43-dd45-4827-8f13-ad9d1208d2e0"}},{"fullUrl":"https://madie.cms.gov/Encounter/43fcdd2f-4f26-42f3-9216-097269fb7af6","resource":{"resourceType":"Encounter","id":"43fcdd2f-4f26-42f3-9216-097269fb7af6","meta":{"profile":["http://hl7.org/fhir/us/qicore/StructureDefinition/qicore-encounter"]},"status":"finished","class":{"system":"http://terminology.hl7.org/CodeSystem/v3-ActCode","code":"EMER","display":"emergency"},"type":[{"coding":[{"system":"http://snomed.info/sct","code":"4525004"}]}],"subject":{"reference":"Patient/3ab85f43-dd45-4827-8f13-ad9d1208d2e0"},"period":{"start":"2026-08-20T00:00:00+00:00","end":"2026-08-20T23:59:00+00:00"},"length":{"value":0,"unit":"days"}},"request":{"method":"PUT","url":"Encounter/43fcdd2f-4f26-42f3-9216-097269fb7af6"}},{"fullUrl":"https://madie.cms.gov/Encounter/41c971bd-61f6-4557-b31d-21c014b17229","resource":{"resourceType":"Encounter","id":"41c971bd-61f6-4557-b31d-21c014b17229","meta":{"profile":["http://hl7.org/fhir/us/qicore/StructureDefinition/qicore-encounter"]},"status":"finished","class":{"system":"http://terminology.hl7.org/CodeSystem/v3-ActCode","code":"IMP","display":"inpatient encounter"},"type":[{"coding":[{"system":"http://snomed.info/sct","code":"32485007"}]}],"subject":{"reference":"Patient/3ab85f43-dd45-4827-8f13-ad9d1208d2e0"},"period":{"start":"2026-08-21T00:00:00.000+00:00","end":"2026-08-21T23:00:00.000+00:00"},"length":{"value":0,"unit":"days"},"diagnosis":[{"condition":{"reference":"Condition/6d88a901-67fe-4584-9013-7f391c4482af"},"use":{"coding":[{"system":"http://terminology.hl7.org/CodeSystem/diagnosis-role","code":"billing","display":"Billing"}]},"rank":1}]},"request":{"method":"PUT","url":"Encounter/41c971bd-61f6-4557-b31d-21c014b17229"}},{"fullUrl":"https://madie.cms.gov/Coverage/2c4ea8b8-c493-4363-beb8-dd6b7a277862","resource":{"resourceType":"Coverage","id":"2c4ea8b8-c493-4363-beb8-dd6b7a277862","status":"active","beneficiary":{"reference":"Patient/3ab85f43-dd45-4827-8f13-ad9d1208d2e0"},"period":{"start":"1995-08-21T00:00:00+00:00"},"payor":[{"reference":"Organization/f7da4368-fb6d-4d73-a75b-f78024cbb18d"}]},"request":{"method":"PUT","url":"Coverage/2c4ea8b8-c493-4363-beb8-dd6b7a277862"}},{"fullUrl":"https://madie.cms.gov/Condition/6d88a901-67fe-4584-9013-7f391c4482af","resource":{"resourceType":"Condition","id":"6d88a901-67fe-4584-9013-7f391c4482af","meta":{"profile":["http://hl7.org/fhir/us/qicore/StructureDefinition/qicore-condition"]},"clinicalStatus":{"coding":[{"system":"http://terminology.hl7.org/CodeSystem/condition-clinical","code":"active"}]},"verificationStatus":{"coding":[{"system":"http://terminology.hl7.org/CodeSystem/condition-ver-status","code":"confirmed"}]},"category":[{"coding":[{"system":"http://terminology.hl7.org/CodeSystem/condition-category","code":"encounter-diagnosis","display":"Encounter Diagnosis"}]}],"code":{"coding":[{"system":"http://snomed.info/sct","version":"2020-09","code":"111297002","display":"Nonparalytic stroke (disorder)","userSelected":true}]},"subject":{"reference":"Patient/3ab85f43-dd45-4827-8f13-ad9d1208d2e0"},"recordedDate":"2026-08-13T08:00:00.000+00:00"},"request":{"method":"PUT","url":"Condition/6d88a901-67fe-4584-9013-7f391c4482af"}},{"fullUrl":"https://madie.cms.gov/Organization/b2df5235-534d-4132-8a7e-1d87c4aa66aa","resource":{"resourceType":"Organization","id":"f7da4368-fb6d-4d73-a75b-f78024cbb18d","meta":{"profile":["http://hl7.org/fhir/us/qicore/StructureDefinition/qicore-organization"]},"identifier":[{"use":"temp","system":"urn:oid:2.16.840.1.113883.4.4","value":"21-3259825"}],"active":true,"type":[{"coding":[{"system":"http://terminology.hl7.org/CodeSystem/organization-type","code":"pay","display":"Payer"}]}],"name":"Blue Cross Blue Shield of Texas","telecom":[{"system":"phone","value":"(+1) 972-766-6900"}],"address":[{"use":"billing","type":"postal","line":["P.O. Box 660044"],"city":"Dallas","state":"TX","postalCode":"75266-0044","country":"USA"}]},"request":{"method":"PUT","url":"Organization/f7da4368-fb6d-4d73-a75b-f78024cbb18d"}},{"fullUrl":"https://madie.cms.gov/MeasureReport/1d5d39b8-309a-4742-85ac-d4e41472334d","resource":{"resourceType":"MeasureReport","id":"1d5d39b8-309a-4742-85ac-d4e41472334d","meta":{"profile":["http://hl7.org/fhir/us/cqfmeasures/StructureDefinition/test-case-cqfm"]},"contained":[{"resourceType":"Parameters","id":"14a7f186-d52a-4a77-a844-4484e309e16d-parameters","parameter":[{"name":"subject","valueString":"3ab85f43-dd45-4827-8f13-ad9d1208d2e0"}]}],"extension":[{"url":"http://hl7.org/fhir/us/cqfmeasures/StructureDefinition/cqfm-inputParameters","valueReference":{"reference":"#14a7f186-d52a-4a77-a844-4484e309e16d-parameters"}},{"url":"http://hl7.org/fhir/us/cqfmeasures/StructureDefinition/cqfm-testCaseDescription","valueMarkdown":"LOS= 1 Day, timing starts with ED Visit since ED visit <= 1 hour before IP encounter. global.Hospitalization ( =Ed +IP)\n"}],"modifierExtension":[{"url":"http://hl7.org/fhir/us/cqfmeasures/StructureDefinition/cqfm-isTestCase","valueBoolean":true}],"status":"complete","type":"individual","measure":"https://madie.cms.gov/Measure/CMS72FHIRSTKAntithromboticDay2","period":{"start":"2026-01-01","end":"2026-12-31"},"group":[{"population":[{"code":{"coding":[{"system":"http://terminology.hl7.org/CodeSystem/measure-population","code":"initial-population","display":"Initial Population"}]},"count":1},{"code":{"coding":[{"system":"http://terminology.hl7.org/CodeSystem/measure-population","code":"denominator","display":"Denominator"}]},"count":1},{"code":{"coding":[{"system":"http://terminology.hl7.org/CodeSystem/measure-population","code":"denominator-exclusion","display":"Denominator Exclusion"}]},"count":1},{"code":{"coding":[{"system":"http://terminology.hl7.org/CodeSystem/measure-population","code":"numerator","display":"Numerator"}]},"count":0},{"code":{"coding":[{"system":"http://terminology.hl7.org/CodeSystem/measure-population","code":"denominator-exception","display":"Denominator Exception"}]},"count":0}]}]},"request":{"method":"PUT","url":"MeasureReport/1d5d39b8-309a-4742-85ac-d4e41472334d"}}]}