{"resourceType":"Bundle","id":"tests-29e634bc-c361-4e6b-a44e-444abb79b2de-bundle","type":"transaction","entry":[{"fullUrl":"https://madie.cms.gov/Patient/29e634bc-c361-4e6b-a44e-444abb79b2de","resource":{"resourceType":"Patient","id":"29e634bc-c361-4e6b-a44e-444abb79b2de","meta":{"profile":["http://hl7.org/fhir/us/qicore/StructureDefinition/qicore-patient"]},"text":{"status":"generated","div":"<div xmlns=\"http://www.w3.org/1999/xhtml\"><div class=\"hapiHeaderText\">LOS&lt;2Days_ED_gt1hr_2 <b>DENEXPASS </b></div><table class=\"hapiPropertyTable\"><tbody><tr><td>Identifier</td><td>71a24a00126a8944cc0e0ccb3825c293</td></tr><tr><td>Date of birth</td><td><span>26 September 1975</span></td></tr></tbody></table></div>"},"extension":[{"url":"http://hl7.org/fhir/us/core/StructureDefinition/us-core-race","extension":[{"url":"ombCategory","valueCoding":{"system":"urn:oid:2.16.840.1.113883.6.238","code":"2054-5","display":"Black or African American","userSelected":true}},{"url":"text","valueString":"Black or African American"}]},{"url":"http://hl7.org/fhir/us/core/StructureDefinition/us-core-ethnicity","extension":[{"url":"ombCategory","valueCoding":{"system":"urn:oid:2.16.840.1.113883.6.238","code":"2186-5","display":"Not Hispanic or Latino","userSelected":true}},{"url":"text","valueString":"Not Hispanic or Latino"}]}],"identifier":[{"type":{"coding":[{"system":"http://terminology.hl7.org/CodeSystem/v2-0203","code":"MR"}]},"system":"https://bonnie-fhir.healthit.gov/","value":"60f82c2e98086b570510e27a"}],"active":true,"name":[{"use":"usual","family":"DENEXPass","given":["LOS<2Days_ED_gt1hr_2"]}],"gender":"female","birthDate":"1976-09-26"},"request":{"method":"PUT","url":"Patient/29e634bc-c361-4e6b-a44e-444abb79b2de"}},{"fullUrl":"https://madie.cms.gov/Encounter/e630ce12-2cda-4552-b1f0-751dd1c6ffd9","resource":{"resourceType":"Encounter","id":"e630ce12-2cda-4552-b1f0-751dd1c6ffd9","meta":{"profile":["http://hl7.org/fhir/us/qicore/StructureDefinition/qicore-encounter"]},"status":"finished","class":{"system":"http://terminology.hl7.org/CodeSystem/v3-ActCode","code":"EMER","display":"emergency"},"type":[{"coding":[{"system":"http://snomed.info/sct","code":"4525004"}]}],"subject":{"reference":"Patient/29e634bc-c361-4e6b-a44e-444abb79b2de"},"period":{"start":"2026-10-09T06:00:00+00:00","end":"2026-10-10T07:15:00+00:00"},"length":{"value":1,"unit":"days"}},"request":{"method":"PUT","url":"Encounter/e630ce12-2cda-4552-b1f0-751dd1c6ffd9"}},{"fullUrl":"https://madie.cms.gov/Encounter/7e4f8bbb-e38b-4e9b-8927-c86835a28684","resource":{"resourceType":"Encounter","id":"7e4f8bbb-e38b-4e9b-8927-c86835a28684","meta":{"profile":["http://hl7.org/fhir/us/qicore/StructureDefinition/qicore-encounter"]},"status":"finished","class":{"system":"http://terminology.hl7.org/CodeSystem/v3-ActCode","code":"IMP","display":"inpatient encounter"},"type":[{"coding":[{"system":"http://snomed.info/sct","code":"32485007"}]}],"subject":{"reference":"Patient/29e634bc-c361-4e6b-a44e-444abb79b2de"},"period":{"start":"2026-10-10T09:00:00+00:00","end":"2026-10-11T11:30:00+00:00"},"length":{"value":1,"unit":"days"},"diagnosis":[{"condition":{"reference":"Condition/0301608f-3e7c-4ea3-a717-147d02bc6f67"},"use":{"coding":[{"system":"http://terminology.hl7.org/CodeSystem/diagnosis-role","code":"billing","display":"Billing"}]},"rank":1}]},"request":{"method":"PUT","url":"Encounter/7e4f8bbb-e38b-4e9b-8927-c86835a28684"}},{"fullUrl":"https://madie.cms.gov/MedicationAdministration/c9583a84-55bd-43e6-b97f-6d9c7dd54163","resource":{"resourceType":"MedicationAdministration","id":"c9583a84-55bd-43e6-b97f-6d9c7dd54163","meta":{"profile":["http://hl7.org/fhir/us/qicore/StructureDefinition/qicore-medicationadministration"]},"status":"completed","medicationCodeableConcept":{"coding":[{"system":"http://www.nlm.nih.gov/research/umls/rxnorm","code":"198466"}]},"subject":{"reference":"Patient/29e634bc-c361-4e6b-a44e-444abb79b2de"},"effectivePeriod":{"start":"2026-10-10T06:00:00+00:00","end":"2026-10-10T07:15:00+00:00"}},"request":{"method":"PUT","url":"MedicationAdministration/c9583a84-55bd-43e6-b97f-6d9c7dd54163"}},{"fullUrl":"https://madie.cms.gov/Coverage/3ced9565-8c53-48ef-9308-c86fac41c82b","resource":{"resourceType":"Coverage","id":"3ced9565-8c53-48ef-9308-c86fac41c82b","status":"active","beneficiary":{"reference":"Patient/29e634bc-c361-4e6b-a44e-444abb79b2de"},"period":{"start":"1976-09-26T08:00:00+00:00"},"payor":[{"reference":"Organization/607fdef9-3983-4cef-ab1a-95434d29b463"}]},"request":{"method":"PUT","url":"Coverage/3ced9565-8c53-48ef-9308-c86fac41c82b"}},{"fullUrl":"https://madie.cms.gov/Condition/0301608f-3e7c-4ea3-a717-147d02bc6f67","resource":{"resourceType":"Condition","id":"0301608f-3e7c-4ea3-a717-147d02bc6f67","meta":{"profile":["http://hl7.org/fhir/us/qicore/StructureDefinition/qicore-condition"]},"clinicalStatus":{"coding":[{"system":"http://terminology.hl7.org/CodeSystem/condition-clinical","code":"active"}]},"verificationStatus":{"coding":[{"system":"http://terminology.hl7.org/CodeSystem/condition-ver-status","code":"confirmed"}]},"category":[{"coding":[{"system":"http://terminology.hl7.org/CodeSystem/condition-category","code":"encounter-diagnosis","display":"Encounter Diagnosis"}]}],"code":{"coding":[{"system":"http://snomed.info/sct","version":"2020-09","code":"111297002","display":"Nonparalytic stroke (disorder)","userSelected":true}]},"subject":{"reference":"Patient/29e634bc-c361-4e6b-a44e-444abb79b2de"},"recordedDate":"2026-08-13T08:00:00.000+00:00"},"request":{"method":"PUT","url":"Condition/0301608f-3e7c-4ea3-a717-147d02bc6f67"}},{"fullUrl":"https://madie.cms.gov/Organization/3c19b420-b1bf-4b51-81bc-000768e6ca22","resource":{"resourceType":"Organization","id":"607fdef9-3983-4cef-ab1a-95434d29b463","meta":{"profile":["http://hl7.org/fhir/us/qicore/StructureDefinition/qicore-organization"]},"identifier":[{"use":"temp","system":"urn:oid:2.16.840.1.113883.4.4","value":"21-3259825"}],"active":true,"type":[{"coding":[{"system":"http://terminology.hl7.org/CodeSystem/organization-type","code":"pay","display":"Payer"}]}],"name":"Blue Cross Blue Shield of Texas","telecom":[{"system":"phone","value":"(+1) 972-766-6900"}],"address":[{"use":"billing","type":"postal","line":["P.O. Box 660044"],"city":"Dallas","state":"TX","postalCode":"75266-0044","country":"USA"}]},"request":{"method":"PUT","url":"Organization/607fdef9-3983-4cef-ab1a-95434d29b463"}},{"fullUrl":"https://madie.cms.gov/MeasureReport/c67aa9dd-2277-4df1-a181-35958fe7e2a1","resource":{"resourceType":"MeasureReport","id":"c67aa9dd-2277-4df1-a181-35958fe7e2a1","meta":{"profile":["http://hl7.org/fhir/us/cqfmeasures/StructureDefinition/test-case-cqfm"]},"contained":[{"resourceType":"Parameters","id":"ca263781-ad06-464b-9380-45380b6306ba-parameters","parameter":[{"name":"subject","valueString":"29e634bc-c361-4e6b-a44e-444abb79b2de"}]}],"extension":[{"url":"http://hl7.org/fhir/us/cqfmeasures/StructureDefinition/cqfm-inputParameters","valueReference":{"reference":"#ca263781-ad06-464b-9380-45380b6306ba-parameters"}},{"url":"http://hl7.org/fhir/us/cqfmeasures/StructureDefinition/cqfm-testCaseDescription","valueMarkdown":"\"LOS<2 days, Patient has ED end to Enc IP > 1 hour \nglobal.Hospitalization ( IP only)\"\n"}],"modifierExtension":[{"url":"http://hl7.org/fhir/us/cqfmeasures/StructureDefinition/cqfm-isTestCase","valueBoolean":true}],"status":"complete","type":"individual","measure":"https://madie.cms.gov/Measure/CMS72FHIRSTKAntithromboticDay2","period":{"start":"2026-01-01","end":"2026-12-31"},"group":[{"population":[{"code":{"coding":[{"system":"http://terminology.hl7.org/CodeSystem/measure-population","code":"initial-population","display":"Initial Population"}]},"count":1},{"code":{"coding":[{"system":"http://terminology.hl7.org/CodeSystem/measure-population","code":"denominator","display":"Denominator"}]},"count":1},{"code":{"coding":[{"system":"http://terminology.hl7.org/CodeSystem/measure-population","code":"denominator-exclusion","display":"Denominator Exclusion"}]},"count":1},{"code":{"coding":[{"system":"http://terminology.hl7.org/CodeSystem/measure-population","code":"numerator","display":"Numerator"}]},"count":0},{"code":{"coding":[{"system":"http://terminology.hl7.org/CodeSystem/measure-population","code":"denominator-exception","display":"Denominator Exception"}]},"count":0}]}]},"request":{"method":"PUT","url":"MeasureReport/c67aa9dd-2277-4df1-a181-35958fe7e2a1"}}]}