{"resourceType":"Bundle","id":"tests-a64c6f30-eb93-4973-8f79-b84ed1950962-bundle","type":"transaction","entry":[{"fullUrl":"https://madie.cms.gov/Patient/a64c6f30-eb93-4973-8f79-b84ed1950962","resource":{"resourceType":"Patient","id":"a64c6f30-eb93-4973-8f79-b84ed1950962","meta":{"profile":["http://hl7.org/fhir/us/qicore/StructureDefinition/qicore-patient"]},"text":{"status":"generated","div":"<div xmlns=\"http://www.w3.org/1999/xhtml\"><div class=\"hapiHeaderText\">CMP&lt;1day_DuringEd_RelePer <b>DENEXPASS </b></div><table class=\"hapiPropertyTable\"><tbody><tr><td>Identifier</td><td>a4b5ca450b4d11ad50aba1ee99a95908</td></tr><tr><td>Date of birth</td><td><span>26 September 1975</span></td></tr></tbody></table></div>"},"extension":[{"url":"http://hl7.org/fhir/us/core/StructureDefinition/us-core-race","extension":[{"url":"ombCategory","valueCoding":{"system":"urn:oid:2.16.840.1.113883.6.238","code":"2054-5","display":"Black or African American","userSelected":true}},{"url":"text","valueString":"Black or African American"}]},{"url":"http://hl7.org/fhir/us/core/StructureDefinition/us-core-ethnicity","extension":[{"url":"ombCategory","valueCoding":{"system":"urn:oid:2.16.840.1.113883.6.238","code":"2186-5","display":"Not Hispanic or Latino","userSelected":true}},{"url":"text","valueString":"Not Hispanic or Latino"}]}],"identifier":[{"type":{"coding":[{"system":"http://terminology.hl7.org/CodeSystem/v2-0203","code":"MR"}]},"system":"https://bonnie-fhir.healthit.gov/","value":"60f82c3098086b570510e2d1"}],"active":true,"name":[{"use":"usual","family":"DENEXPass","given":["CMP<1day_DuringEd_RelePer"]}],"gender":"female","birthDate":"1976-09-26"},"request":{"method":"PUT","url":"Patient/a64c6f30-eb93-4973-8f79-b84ed1950962"}},{"fullUrl":"https://madie.cms.gov/Encounter/acec1140-fa00-46d3-9a1d-015885442d1f","resource":{"resourceType":"Encounter","id":"acec1140-fa00-46d3-9a1d-015885442d1f","meta":{"profile":["http://hl7.org/fhir/us/qicore/StructureDefinition/qicore-encounter"]},"status":"finished","class":{"system":"http://terminology.hl7.org/CodeSystem/v3-ActCode","code":"EMER","display":"emergency","userSelected":true},"type":[{"coding":[{"system":"http://snomed.info/sct","code":"4525004"}]}],"subject":{"reference":"Patient/a64c6f30-eb93-4973-8f79-b84ed1950962"},"period":{"start":"2026-10-10T06:00:00+00:00","end":"2026-10-10T06:15:00+00:00"},"length":{"value":0,"unit":"days"}},"request":{"method":"PUT","url":"Encounter/acec1140-fa00-46d3-9a1d-015885442d1f"}},{"fullUrl":"https://madie.cms.gov/Encounter/977e04d0-2872-42f7-a9f6-079d79b526fd","resource":{"resourceType":"Encounter","id":"977e04d0-2872-42f7-a9f6-079d79b526fd","meta":{"profile":["http://hl7.org/fhir/us/qicore/StructureDefinition/qicore-encounter"]},"status":"finished","class":{"system":"http://terminology.hl7.org/CodeSystem/v3-ActCode","code":"IMP","display":"inpatient encounter","userSelected":true},"type":[{"coding":[{"system":"http://snomed.info/sct","code":"32485007"}]}],"subject":{"reference":"Patient/a64c6f30-eb93-4973-8f79-b84ed1950962"},"period":{"start":"2026-10-10T06:15:00+00:00","end":"2026-10-11T11:15:00+00:00"},"length":{"value":1,"unit":"days"},"diagnosis":[{"condition":{"reference":"Condition/cb9d2881-6c0b-4427-979d-b9615c5ad889"},"use":{"coding":[{"system":"http://terminology.hl7.org/CodeSystem/diagnosis-role","code":"billing","display":"Billing"}]},"rank":1}]},"request":{"method":"PUT","url":"Encounter/977e04d0-2872-42f7-a9f6-079d79b526fd"}},{"fullUrl":"https://madie.cms.gov/Procedure/c078843e-8267-494e-9db8-a9665b68b55b","resource":{"resourceType":"Procedure","id":"c078843e-8267-494e-9db8-a9665b68b55b","meta":{"profile":["http://hl7.org/fhir/us/qicore/StructureDefinition/qicore-procedure"]},"extension":[{"url":"http://hl7.org/fhir/us/qicore/StructureDefinition/qicore-recorded","valueDateTime":"2026-11-19T09:35:00-04:00"}],"status":"completed","code":{"coding":[{"system":"http://snomed.info/sct","code":"133918004"}]},"subject":{"reference":"Patient/a64c6f30-eb93-4973-8f79-b84ed1950962"},"performedPeriod":{"start":"2026-10-10T06:14:00+00:00"}},"request":{"method":"PUT","url":"Procedure/c078843e-8267-494e-9db8-a9665b68b55b"}},{"fullUrl":"https://madie.cms.gov/Coverage/1e76d79c-5d1e-4b4b-8356-2d7bd22a6ee1","resource":{"resourceType":"Coverage","id":"1e76d79c-5d1e-4b4b-8356-2d7bd22a6ee1","status":"active","beneficiary":{"reference":"Patient/a64c6f30-eb93-4973-8f79-b84ed1950962"},"period":{"start":"1976-09-26T08:00:00+00:00"},"payor":[{"reference":"Organization/607fdef9-3983-4cef-ab1a-95434d29b463"}]},"request":{"method":"PUT","url":"Coverage/1e76d79c-5d1e-4b4b-8356-2d7bd22a6ee1"}},{"fullUrl":"https://madie.cms.gov/Condition/cb9d2881-6c0b-4427-979d-b9615c5ad889","resource":{"resourceType":"Condition","id":"cb9d2881-6c0b-4427-979d-b9615c5ad889","meta":{"profile":["http://hl7.org/fhir/us/qicore/StructureDefinition/qicore-condition"]},"clinicalStatus":{"coding":[{"system":"http://terminology.hl7.org/CodeSystem/condition-clinical","code":"active"}]},"verificationStatus":{"coding":[{"system":"http://terminology.hl7.org/CodeSystem/condition-ver-status","code":"confirmed"}]},"category":[{"coding":[{"system":"http://terminology.hl7.org/CodeSystem/condition-category","code":"encounter-diagnosis","display":"Encounter Diagnosis"}]}],"code":{"coding":[{"system":"http://snomed.info/sct","version":"2020-09","code":"111297002","display":"Nonparalytic stroke (disorder)","userSelected":true}]},"subject":{"reference":"Patient/a64c6f30-eb93-4973-8f79-b84ed1950962"},"recordedDate":"2026-08-13T08:00:00.000+00:00"},"request":{"method":"PUT","url":"Condition/cb9d2881-6c0b-4427-979d-b9615c5ad889"}},{"fullUrl":"https://madie.cms.gov/Organization/327c0e75-ea40-4e29-9b85-b252caec00bf","resource":{"resourceType":"Organization","id":"607fdef9-3983-4cef-ab1a-95434d29b463","meta":{"profile":["http://hl7.org/fhir/us/qicore/StructureDefinition/qicore-organization"]},"identifier":[{"use":"temp","system":"urn:oid:2.16.840.1.113883.4.4","value":"21-3259825"}],"active":true,"type":[{"coding":[{"system":"http://terminology.hl7.org/CodeSystem/organization-type","code":"pay","display":"Payer"}]}],"name":"Blue Cross Blue Shield of Texas","telecom":[{"system":"phone","value":"(+1) 972-766-6900"}],"address":[{"use":"billing","type":"postal","line":["P.O. Box 660044"],"city":"Dallas","state":"TX","postalCode":"75266-0044","country":"USA"}]},"request":{"method":"PUT","url":"Organization/607fdef9-3983-4cef-ab1a-95434d29b463"}},{"fullUrl":"https://madie.cms.gov/MeasureReport/9eec2418-c4ea-4300-89cc-3887072993d0","resource":{"resourceType":"MeasureReport","id":"9eec2418-c4ea-4300-89cc-3887072993d0","meta":{"profile":["http://hl7.org/fhir/us/cqfmeasures/StructureDefinition/test-case-cqfm"]},"contained":[{"resourceType":"Parameters","id":"48173c03-989c-4c95-9aea-cc7a78940e96-parameters","parameter":[{"name":"subject","valueString":"a64c6f30-eb93-4973-8f79-b84ed1950962"}]}],"extension":[{"url":"http://hl7.org/fhir/us/cqfmeasures/StructureDefinition/cqfm-inputParameters","valueReference":{"reference":"#48173c03-989c-4c95-9aea-cc7a78940e96-parameters"}},{"url":"http://hl7.org/fhir/us/cqfmeasures/StructureDefinition/cqfm-testCaseDescription","valueMarkdown":"Patient receives comfort measures performed 1 minute before ED Visit ends, CMP<1day,  global.\"Hospitalization\" =(Ed+IP)\n"}],"modifierExtension":[{"url":"http://hl7.org/fhir/us/cqfmeasures/StructureDefinition/cqfm-isTestCase","valueBoolean":true}],"status":"complete","type":"individual","measure":"https://madie.cms.gov/Measure/CMS72FHIRSTKAntithromboticDay2","period":{"start":"2026-01-01","end":"2026-12-31"},"group":[{"population":[{"code":{"coding":[{"system":"http://terminology.hl7.org/CodeSystem/measure-population","code":"initial-population","display":"Initial Population"}]},"count":1},{"code":{"coding":[{"system":"http://terminology.hl7.org/CodeSystem/measure-population","code":"denominator","display":"Denominator"}]},"count":1},{"code":{"coding":[{"system":"http://terminology.hl7.org/CodeSystem/measure-population","code":"denominator-exclusion","display":"Denominator Exclusion"}]},"count":1},{"code":{"coding":[{"system":"http://terminology.hl7.org/CodeSystem/measure-population","code":"numerator","display":"Numerator"}]},"count":0},{"code":{"coding":[{"system":"http://terminology.hl7.org/CodeSystem/measure-population","code":"denominator-exception","display":"Denominator Exception"}]},"count":0}]}]},"request":{"method":"PUT","url":"MeasureReport/9eec2418-c4ea-4300-89cc-3887072993d0"}}]}