{"resourceType":"Bundle","id":"tests-59f7d72d-7470-46ee-986a-daabe67f64a7-bundle","type":"transaction","entry":[{"fullUrl":"https://madie.cms.gov/Patient/59f7d72d-7470-46ee-986a-daabe67f64a7","resource":{"resourceType":"Patient","id":"59f7d72d-7470-46ee-986a-daabe67f64a7","meta":{"profile":["http://hl7.org/fhir/us/qicore/StructureDefinition/qicore-patient"]},"text":{"status":"generated","div":"<div xmlns=\"http://www.w3.org/1999/xhtml\"><div class=\"hapiHeaderText\">CMP_DayOf_RelvDat_1minB4IPEnd_EDEndLT1hrB4Obs_ObsEndLT1hrB4IP <b>DENEXPASS </b></div><table class=\"hapiPropertyTable\"><tbody><tr><td>Date of birth</td><td><span>01 January 1980</span></td></tr></tbody></table></div>"},"extension":[{"url":"http://hl7.org/fhir/us/core/StructureDefinition/us-core-race","extension":[{"url":"ombCategory","valueCoding":{"system":"urn:oid:2.16.840.1.113883.6.238","code":"2106-3","display":"White","userSelected":true}},{"url":"text","valueString":"White"}]},{"url":"http://hl7.org/fhir/us/core/StructureDefinition/us-core-ethnicity","extension":[{"url":"ombCategory","valueCoding":{"system":"urn:oid:2.16.840.1.113883.6.238","code":"2186-5","display":"Not Hispanic or Latino","userSelected":true}},{"url":"text","valueString":"Not Hispanic or Latino"}]}],"identifier":[{"type":{"coding":[{"system":"http://terminology.hl7.org/CodeSystem/v2-0203","code":"MR"}]},"system":"https://bonnie-fhir.healthit.gov/","value":"60f82c3098086b570510e2e1"}],"active":true,"name":[{"use":"usual","family":"DENEXPass","given":["CMP_DayOf_RelvDat_1minB4IPEnd_EDEndLT1hrB4Obs_ObsEndLT1hrB4IP"]}],"gender":"female","birthDate":"1981-01-01"},"request":{"method":"PUT","url":"Patient/59f7d72d-7470-46ee-986a-daabe67f64a7"}},{"fullUrl":"https://madie.cms.gov/Encounter/af56de4d-f995-4824-b05a-550162c3a661","resource":{"resourceType":"Encounter","id":"af56de4d-f995-4824-b05a-550162c3a661","meta":{"profile":["http://hl7.org/fhir/us/qicore/StructureDefinition/qicore-encounter"]},"status":"finished","class":{"system":"http://terminology.hl7.org/CodeSystem/v3-ActCode","code":"EMER","display":"emergency"},"type":[{"coding":[{"system":"http://snomed.info/sct","code":"4525004"}]}],"subject":{"reference":"Patient/59f7d72d-7470-46ee-986a-daabe67f64a7"},"period":{"start":"2026-11-18T07:00:00+00:00","end":"2026-11-18T08:01:00+00:00"},"diagnosis":[{"condition":{"reference":"Condition/556f0e76-9cdc-4814-8cb3-9da37a222ed6"},"use":{"coding":[{"system":"http://terminology.hl7.org/CodeSystem/diagnosis-role","code":"billing","display":"Billing"}]},"rank":1}]},"request":{"method":"PUT","url":"Encounter/af56de4d-f995-4824-b05a-550162c3a661"}},{"fullUrl":"https://madie.cms.gov/Encounter/ec63d933-1492-47cf-89d1-4f68d46427c8","resource":{"resourceType":"Encounter","id":"ec63d933-1492-47cf-89d1-4f68d46427c8","meta":{"profile":["http://hl7.org/fhir/us/qicore/StructureDefinition/qicore-encounter"]},"status":"finished","class":{"system":"http://terminology.hl7.org/CodeSystem/v3-ActCode","code":"OBSENC","display":"observation encounter"},"type":[{"coding":[{"system":"http://snomed.info/sct","code":"448951000124107"}]}],"subject":{"reference":"Patient/59f7d72d-7470-46ee-986a-daabe67f64a7"},"period":{"start":"2026-11-18T09:00:00+00:00","end":"2026-11-18T10:01:00+00:00"}},"request":{"method":"PUT","url":"Encounter/ec63d933-1492-47cf-89d1-4f68d46427c8"}},{"fullUrl":"https://madie.cms.gov/Encounter/85df3751-2c19-48b0-ac3d-7d3fcc64a771","resource":{"resourceType":"Encounter","id":"85df3751-2c19-48b0-ac3d-7d3fcc64a771","meta":{"profile":["http://hl7.org/fhir/us/qicore/StructureDefinition/qicore-encounter"]},"status":"finished","class":{"system":"http://terminology.hl7.org/CodeSystem/v3-ActCode","code":"IMP","display":"inpatient encounter"},"type":[{"coding":[{"system":"http://snomed.info/sct","code":"183452005"}]}],"subject":{"reference":"Patient/59f7d72d-7470-46ee-986a-daabe67f64a7"},"period":{"start":"2026-11-18T11:00:00+00:00","end":"2026-11-18T20:15:00+00:00"},"diagnosis":[{"condition":{"reference":"Condition/556f0e76-9cdc-4814-8cb3-9da37a222ed6"},"use":{"coding":[{"system":"http://terminology.hl7.org/CodeSystem/diagnosis-role","code":"billing","display":"Billing"}]},"rank":1}]},"request":{"method":"PUT","url":"Encounter/85df3751-2c19-48b0-ac3d-7d3fcc64a771"}},{"fullUrl":"https://madie.cms.gov/Procedure/f166e41b-4ca3-43dd-aa82-086a15432440","resource":{"resourceType":"Procedure","id":"f166e41b-4ca3-43dd-aa82-086a15432440","meta":{"profile":["http://hl7.org/fhir/us/qicore/StructureDefinition/qicore-procedure"]},"extension":[{"url":"http://hl7.org/fhir/us/qicore/StructureDefinition/qicore-recorded","valueDateTime":"2026-11-18T11:00:00+00:00"}],"status":"completed","code":{"coding":[{"system":"http://snomed.info/sct","code":"133918004"}]},"subject":{"reference":"Patient/59f7d72d-7470-46ee-986a-daabe67f64a7"},"performedPeriod":{"start":"2026-11-18T11:00:00+00:00","end":"2026-11-18T20:15:00+00:00"}},"request":{"method":"PUT","url":"Procedure/f166e41b-4ca3-43dd-aa82-086a15432440"}},{"fullUrl":"https://madie.cms.gov/Condition/556f0e76-9cdc-4814-8cb3-9da37a222ed6","resource":{"resourceType":"Condition","id":"556f0e76-9cdc-4814-8cb3-9da37a222ed6","meta":{"profile":["http://hl7.org/fhir/us/qicore/StructureDefinition/qicore-condition"]},"clinicalStatus":{"coding":[{"system":"http://terminology.hl7.org/CodeSystem/condition-clinical","code":"active"}]},"verificationStatus":{"coding":[{"system":"http://terminology.hl7.org/CodeSystem/condition-ver-status","code":"confirmed"}]},"category":[{"coding":[{"system":"http://terminology.hl7.org/CodeSystem/condition-category","code":"encounter-diagnosis","display":"Encounter Diagnosis"}]}],"code":{"coding":[{"system":"http://snomed.info/sct","version":"2020-09","code":"111297002","display":"Nonparalytic stroke (disorder)","userSelected":true}]},"subject":{"reference":"Patient/59f7d72d-7470-46ee-986a-daabe67f64a7"},"recordedDate":"2026-08-13T08:00:00.000+00:00"},"request":{"method":"PUT","url":"Condition/556f0e76-9cdc-4814-8cb3-9da37a222ed6"}},{"fullUrl":"https://madie.cms.gov/Coverage/f1ba2e36-3cf0-4076-8006-83f4d7c74e4b","resource":{"resourceType":"Coverage","id":"f1ba2e36-3cf0-4076-8006-83f4d7c74e4b","meta":{"profile":["http://hl7.org/fhir/us/qicore/StructureDefinition/qicore-coverage"]},"status":"active","beneficiary":{"reference":"Patient/59f7d72d-7470-46ee-986a-daabe67f64a7"},"payor":[{"reference":"Organization/f7da4368-fb6d-4d73-a75b-f78024cbb18d"}]},"request":{"method":"PUT","url":"Coverage/f1ba2e36-3cf0-4076-8006-83f4d7c74e4b"}},{"fullUrl":"https://madie.cms.gov/Organization/7285977a-9234-4943-833f-da87d303ba2c","resource":{"resourceType":"Organization","id":"f7da4368-fb6d-4d73-a75b-f78024cbb18d","meta":{"profile":["http://hl7.org/fhir/us/qicore/StructureDefinition/qicore-organization"]},"identifier":[{"use":"temp","system":"urn:oid:2.16.840.1.113883.4.4","value":"21-3259825"}],"active":true,"type":[{"coding":[{"system":"http://terminology.hl7.org/CodeSystem/organization-type","code":"pay","display":"Payer"}]}],"name":"Blue Cross Blue Shield of Texas","telecom":[{"system":"phone","value":"(+1) 972-766-6900"}],"address":[{"use":"billing","type":"postal","line":["P.O. Box 660044"],"city":"Dallas","state":"TX","postalCode":"75266-0044","country":"USA"}]},"request":{"method":"PUT","url":"Organization/f7da4368-fb6d-4d73-a75b-f78024cbb18d"}},{"fullUrl":"https://madie.cms.gov/MeasureReport/12865121-45e5-4a42-8bce-6ac7df72f489","resource":{"resourceType":"MeasureReport","id":"12865121-45e5-4a42-8bce-6ac7df72f489","meta":{"profile":["http://hl7.org/fhir/us/cqfmeasures/StructureDefinition/test-case-cqfm"]},"contained":[{"resourceType":"Parameters","id":"d5ad1112-75e0-45e6-bae5-09073144a153-parameters","parameter":[{"name":"subject","valueString":"59f7d72d-7470-46ee-986a-daabe67f64a7"}]}],"extension":[{"url":"http://hl7.org/fhir/us/cqfmeasures/StructureDefinition/cqfm-inputParameters","valueReference":{"reference":"#d5ad1112-75e0-45e6-bae5-09073144a153-parameters"}},{"url":"http://hl7.org/fhir/us/cqfmeasures/StructureDefinition/cqfm-testCaseDescription","valueMarkdown":"Patient receives comfort measures performed on the day of hospital arrival, 1 min before IP end. ED ends less than 1 hour before Obs Start, Obs ends less than 1 hour before IP start.\n"}],"modifierExtension":[{"url":"http://hl7.org/fhir/us/cqfmeasures/StructureDefinition/cqfm-isTestCase","valueBoolean":true}],"status":"complete","type":"individual","measure":"https://madie.cms.gov/Measure/CMS72FHIRSTKAntithromboticDay2","period":{"start":"2026-01-01","end":"2026-12-31"},"group":[{"population":[{"code":{"coding":[{"system":"http://terminology.hl7.org/CodeSystem/measure-population","code":"initial-population","display":"Initial Population"}]},"count":1},{"code":{"coding":[{"system":"http://terminology.hl7.org/CodeSystem/measure-population","code":"denominator","display":"Denominator"}]},"count":1},{"code":{"coding":[{"system":"http://terminology.hl7.org/CodeSystem/measure-population","code":"denominator-exclusion","display":"Denominator Exclusion"}]},"count":1},{"code":{"coding":[{"system":"http://terminology.hl7.org/CodeSystem/measure-population","code":"numerator","display":"Numerator"}]},"count":0},{"code":{"coding":[{"system":"http://terminology.hl7.org/CodeSystem/measure-population","code":"denominator-exception","display":"Denominator Exception"}]},"count":0}]}]},"request":{"method":"PUT","url":"MeasureReport/12865121-45e5-4a42-8bce-6ac7df72f489"}}]}