{"resourceType":"Bundle","id":"tests-c5085136-65ef-498f-8aa9-449bf48f6a63-bundle","type":"transaction","entry":[{"fullUrl":"https://madie.cms.gov/Patient/c5085136-65ef-498f-8aa9-449bf48f6a63","resource":{"resourceType":"Patient","id":"c5085136-65ef-498f-8aa9-449bf48f6a63","meta":{"profile":["http://hl7.org/fhir/us/qicore/StructureDefinition/qicore-patient"]},"text":{"status":"generated","div":"<div xmlns=\"http://www.w3.org/1999/xhtml\"><div class=\"hapiHeaderText\">EncDx=IscheStroke <b>DENOMFAIL </b></div><table class=\"hapiPropertyTable\"><tbody><tr><td>Identifier</td><td>5986a1f20133fb118b3f8c263047a8ca</td></tr><tr><td>Date of birth</td><td><span>20 August 1994</span></td></tr></tbody></table></div>"},"extension":[{"url":"http://hl7.org/fhir/us/core/StructureDefinition/us-core-race","extension":[{"url":"ombCategory","valueCoding":{"system":"urn:oid:2.16.840.1.113883.6.238","code":"1002-5","display":"American Indian or Alaska Native","userSelected":true}},{"url":"text","valueString":"American Indian or Alaska Native"}]},{"url":"http://hl7.org/fhir/us/core/StructureDefinition/us-core-ethnicity","extension":[{"url":"ombCategory","valueCoding":{"system":"urn:oid:2.16.840.1.113883.6.238","code":"2135-2","display":"Hispanic or Latino","userSelected":true}},{"url":"text","valueString":"Hispanic or Latino"}]}],"identifier":[{"type":{"coding":[{"system":"http://terminology.hl7.org/CodeSystem/v2-0203","code":"MR"}]},"system":"https://bonnie-fhir.healthit.gov/","value":"60f82c2e98086b570510e278"}],"active":true,"name":[{"use":"usual","family":"DENOMFail","given":["EncDx=IscheStroke"]}],"gender":"male","birthDate":"1995-08-20"},"request":{"method":"PUT","url":"Patient/c5085136-65ef-498f-8aa9-449bf48f6a63"}},{"fullUrl":"https://madie.cms.gov/Encounter/44728a4f-daaf-4f81-8920-b856022d9ecc","resource":{"resourceType":"Encounter","id":"44728a4f-daaf-4f81-8920-b856022d9ecc","meta":{"profile":["http://hl7.org/fhir/us/qicore/StructureDefinition/qicore-encounter"]},"status":"finished","class":{"system":"http://terminology.hl7.org/CodeSystem/v3-ActCode","code":"IMP","display":"inpatient encounter"},"type":[{"coding":[{"system":"http://snomed.info/sct","code":"32485007"}]}],"subject":{"reference":"Patient/c5085136-65ef-498f-8aa9-449bf48f6a63"},"period":{"start":"2026-08-21T00:00:00+00:00","end":"2026-12-18T23:59:00+00:00"},"length":{"value":119,"unit":"days"},"diagnosis":[{"condition":{"reference":"Condition/63abc1ea-649e-40f1-afc0-c5c1871085a0"},"use":{"coding":[{"system":"http://terminology.hl7.org/CodeSystem/diagnosis-role","code":"billing","display":"Billing"}]},"rank":1}]},"request":{"method":"PUT","url":"Encounter/44728a4f-daaf-4f81-8920-b856022d9ecc"}},{"fullUrl":"https://madie.cms.gov/Coverage/b70bb5db-620a-4f13-8012-e659f852b8f8","resource":{"resourceType":"Coverage","id":"b70bb5db-620a-4f13-8012-e659f852b8f8","status":"active","beneficiary":{"reference":"Patient/c5085136-65ef-498f-8aa9-449bf48f6a63"},"period":{"start":"1995-08-20T07:00:00+00:00"},"payor":[{"reference":"Organization/607fdef9-3983-4cef-ab1a-95434d29b463"}]},"request":{"method":"PUT","url":"Coverage/b70bb5db-620a-4f13-8012-e659f852b8f8"}},{"fullUrl":"https://madie.cms.gov/Condition/63abc1ea-649e-40f1-afc0-c5c1871085a0","resource":{"resourceType":"Condition","id":"63abc1ea-649e-40f1-afc0-c5c1871085a0","meta":{"profile":["http://hl7.org/fhir/us/qicore/StructureDefinition/qicore-condition"]},"clinicalStatus":{"coding":[{"system":"http://terminology.hl7.org/CodeSystem/condition-clinical","code":"active"}]},"verificationStatus":{"coding":[{"system":"http://terminology.hl7.org/CodeSystem/condition-ver-status","code":"confirmed"}]},"category":[{"coding":[{"system":"http://terminology.hl7.org/CodeSystem/condition-category","code":"encounter-diagnosis","display":"Encounter Diagnosis"}]}],"code":{"coding":[{"system":"http://snomed.info/sct","version":"2021-09","code":"111297002","display":"Nonparalytic stroke (disorder)","userSelected":true}]},"subject":{"reference":"Patient/c5085136-65ef-498f-8aa9-449bf48f6a63"},"recordedDate":"2026-08-21T00:00:00+00:00"},"request":{"method":"PUT","url":"Condition/63abc1ea-649e-40f1-afc0-c5c1871085a0"}},{"fullUrl":"https://madie.cms.gov/Organization/ebbaf93b-5a87-41c0-b548-7532e3c7fe59","resource":{"resourceType":"Organization","id":"607fdef9-3983-4cef-ab1a-95434d29b463","meta":{"profile":["http://hl7.org/fhir/us/qicore/StructureDefinition/qicore-organization"]},"identifier":[{"use":"temp","system":"urn:oid:2.16.840.1.113883.4.4","value":"21-3259825"}],"active":true,"type":[{"coding":[{"system":"http://terminology.hl7.org/CodeSystem/organization-type","code":"pay","display":"Payer"}]}],"name":"Blue Cross Blue Shield of Texas","telecom":[{"system":"phone","value":"(+1) 972-766-6900"}],"address":[{"use":"billing","type":"postal","line":["P.O. Box 660044"],"city":"Dallas","state":"TX","postalCode":"75266-0044","country":"USA"}]},"request":{"method":"PUT","url":"Organization/607fdef9-3983-4cef-ab1a-95434d29b463"}},{"fullUrl":"https://madie.cms.gov/Practitioner/26235f93-a75e-4f45-ba0c-898e38e718d8","resource":{"resourceType":"Practitioner","id":"26235f93-a75e-4f45-ba0c-898e38e718d8","identifier":[{"system":"http://hl7.org/fhir/sid/us-npi","value":"123456"}],"name":[{"family":"Evil","prefix":["Dr"]}]},"request":{"method":"PUT","url":"Practitioner/26235f93-a75e-4f45-ba0c-898e38e718d8"}},{"fullUrl":"https://madie.cms.gov/MeasureReport/acba1e22-3076-4cd5-8c07-e50a9902e2f1","resource":{"resourceType":"MeasureReport","id":"acba1e22-3076-4cd5-8c07-e50a9902e2f1","meta":{"profile":["http://hl7.org/fhir/us/cqfmeasures/StructureDefinition/test-case-cqfm"]},"contained":[{"resourceType":"Parameters","id":"429c951a-ca55-4659-98fa-44a534adcafa-parameters","parameter":[{"name":"subject","valueString":"c5085136-65ef-498f-8aa9-449bf48f6a63"}]}],"extension":[{"url":"http://hl7.org/fhir/us/cqfmeasures/StructureDefinition/cqfm-inputParameters","valueReference":{"reference":"#429c951a-ca55-4659-98fa-44a534adcafa-parameters"}},{"url":"http://hl7.org/fhir/us/cqfmeasures/StructureDefinition/cqfm-testCaseDescription","valueMarkdown":"  EncDx =Ische Stroke       \n"}],"modifierExtension":[{"url":"http://hl7.org/fhir/us/cqfmeasures/StructureDefinition/cqfm-isTestCase","valueBoolean":true}],"status":"complete","type":"individual","measure":"https://madie.cms.gov/Measure/CMS72FHIRSTKAntithromboticDay2","period":{"start":"2026-01-01","end":"2026-12-31"},"group":[{"population":[{"code":{"coding":[{"system":"http://terminology.hl7.org/CodeSystem/measure-population","code":"initial-population","display":"Initial Population"}]},"count":1},{"code":{"coding":[{"system":"http://terminology.hl7.org/CodeSystem/measure-population","code":"denominator","display":"Denominator"}]},"count":1},{"code":{"coding":[{"system":"http://terminology.hl7.org/CodeSystem/measure-population","code":"denominator-exclusion","display":"Denominator Exclusion"}]},"count":0},{"code":{"coding":[{"system":"http://terminology.hl7.org/CodeSystem/measure-population","code":"numerator","display":"Numerator"}]},"count":0},{"code":{"coding":[{"system":"http://terminology.hl7.org/CodeSystem/measure-population","code":"denominator-exception","display":"Denominator Exception"}]},"count":0}]}]},"request":{"method":"PUT","url":"MeasureReport/acba1e22-3076-4cd5-8c07-e50a9902e2f1"}}]}