{"resourceType":"Bundle","id":"tests-09a132b9-b03c-4a8d-a09f-f18c544bb660-bundle","type":"transaction","entry":[{"fullUrl":"https://madie.cms.gov/Patient/09a132b9-b03c-4a8d-a09f-f18c544bb660","resource":{"resourceType":"Patient","id":"09a132b9-b03c-4a8d-a09f-f18c544bb660","meta":{"profile":["http://hl7.org/fhir/us/qicore/StructureDefinition/qicore-patient"]},"text":{"status":"generated","div":"<div xmlns=\"http://www.w3.org/1999/xhtml\"><div class=\"hapiHeaderText\">INR2hoursB4EDstart_EDend1hrB4_OBSend1hrB4DayAft_IPstart <b>DENEXCEPASS </b></div><table class=\"hapiPropertyTable\"><tbody><tr><td>Identifier</td><td>89ea8ad611120273e39d590cc026d6ca35e3720cede5138111e1e8c931d79085</td></tr><tr><td>Date of birth</td><td><span>26 September 1975</span></td></tr></tbody></table></div>"},"extension":[{"url":"http://hl7.org/fhir/us/core/StructureDefinition/us-core-race","extension":[{"url":"ombCategory","valueCoding":{"system":"urn:oid:2.16.840.1.113883.6.238","code":"2054-5","display":"Black or African American","userSelected":true}},{"url":"text","valueString":"Black or African American"}]},{"url":"http://hl7.org/fhir/us/core/StructureDefinition/us-core-ethnicity","extension":[{"url":"ombCategory","valueCoding":{"system":"urn:oid:2.16.840.1.113883.6.238","code":"2186-5","display":"Not Hispanic or Latino","userSelected":true}},{"url":"text","valueString":"Not Hispanic or Latino"}]}],"identifier":[{"type":{"coding":[{"system":"http://terminology.hl7.org/CodeSystem/v2-0203","code":"MR"}]},"system":"https://bonnie-fhir.healthit.gov/","value":"60f82c2f98086b570510e2c9"}],"active":true,"name":[{"use":"usual","family":"DENEXCEPass","given":["INR2hoursB4EDstart_EDend1hrB4_OBSend1hrB4DayAft_IPstart"]}],"gender":"female","birthDate":"1976-09-26"},"request":{"method":"PUT","url":"Patient/09a132b9-b03c-4a8d-a09f-f18c544bb660"}},{"fullUrl":"https://madie.cms.gov/Encounter/f134a0a7-8c67-4881-9ad3-25e503b54718","resource":{"resourceType":"Encounter","id":"f134a0a7-8c67-4881-9ad3-25e503b54718","meta":{"profile":["http://hl7.org/fhir/us/qicore/StructureDefinition/qicore-encounter"]},"status":"finished","class":{"system":"http://terminology.hl7.org/CodeSystem/v3-ActCode","code":"EMER","display":"emergency","userSelected":true},"type":[{"coding":[{"system":"http://snomed.info/sct","code":"4525004"}]}],"subject":{"reference":"Patient/09a132b9-b03c-4a8d-a09f-f18c544bb660"},"period":{"start":"2026-10-10T06:32:00+00:00","end":"2026-10-10T23:59:00+00:00"},"length":{"value":0,"unit":"days"}},"request":{"method":"PUT","url":"Encounter/f134a0a7-8c67-4881-9ad3-25e503b54718"}},{"fullUrl":"https://madie.cms.gov/Encounter/d22904c0-be64-455e-8fcb-f104798c7b07","resource":{"resourceType":"Encounter","id":"d22904c0-be64-455e-8fcb-f104798c7b07","meta":{"profile":["http://hl7.org/fhir/us/qicore/StructureDefinition/qicore-encounter"]},"status":"finished","class":{"system":"http://terminology.hl7.org/CodeSystem/v3-ActCode","code":"OBSENC","display":"observation encounter","userSelected":true},"type":[{"coding":[{"system":"http://snomed.info/sct","code":"448951000124107"}]}],"subject":{"reference":"Patient/09a132b9-b03c-4a8d-a09f-f18c544bb660"},"period":{"start":"2026-10-11T00:00:00+00:00","end":"2026-10-11T06:31:00+00:00"},"length":{"value":0,"unit":"days"}},"request":{"method":"PUT","url":"Encounter/d22904c0-be64-455e-8fcb-f104798c7b07"}},{"fullUrl":"https://madie.cms.gov/Encounter/f1184d9e-7769-4d78-b234-80a536aa693b","resource":{"resourceType":"Encounter","id":"f1184d9e-7769-4d78-b234-80a536aa693b","meta":{"profile":["http://hl7.org/fhir/us/qicore/StructureDefinition/qicore-encounter"]},"status":"finished","class":{"system":"http://terminology.hl7.org/CodeSystem/v3-ActCode","code":"IMP","display":"inpatient encounter","userSelected":true},"type":[{"coding":[{"system":"http://snomed.info/sct","code":"32485007"}]}],"subject":{"reference":"Patient/09a132b9-b03c-4a8d-a09f-f18c544bb660"},"period":{"start":"2026-10-11T07:31:00+00:00","end":"2026-10-15T11:30:00+00:00"},"length":{"value":4,"unit":"days"},"diagnosis":[{"condition":{"reference":"Condition/b85b6997-18f1-4987-9c6a-6d8dfb142b1d"},"use":{"coding":[{"system":"http://terminology.hl7.org/CodeSystem/diagnosis-role","code":"billing","display":"Billing"}]},"rank":1}]},"request":{"method":"PUT","url":"Encounter/f1184d9e-7769-4d78-b234-80a536aa693b"}},{"fullUrl":"https://madie.cms.gov/Observation/0ebeb43b-2262-40e8-b6f4-d3018d94b002","resource":{"resourceType":"Observation","id":"0ebeb43b-2262-40e8-b6f4-d3018d94b002","meta":{"profile":["http://hl7.org/fhir/us/qicore/StructureDefinition/qicore-observation"]},"status":"final","category":[{"coding":[{"system":"http://terminology.hl7.org/CodeSystem/observation-category","code":"laboratory","display":"Laboratory"}]}],"code":{"coding":[{"system":"http://loinc.org","code":"34714-6"}]},"subject":{"reference":"Patient/09a132b9-b03c-4a8d-a09f-f18c544bb660"},"effectivePeriod":{"start":"2026-10-10T04:32:00+00:00"},"issued":"2026-10-10T06:31:00.000+00:00","valueQuantity":{"value":3.6}},"request":{"method":"PUT","url":"Observation/0ebeb43b-2262-40e8-b6f4-d3018d94b002"}},{"fullUrl":"https://madie.cms.gov/Coverage/9794b7d3-efcc-4a2d-84b7-58aca9b86f70","resource":{"resourceType":"Coverage","id":"9794b7d3-efcc-4a2d-84b7-58aca9b86f70","status":"active","beneficiary":{"reference":"Patient/09a132b9-b03c-4a8d-a09f-f18c544bb660"},"period":{"start":"1976-09-26T08:00:00+00:00"},"payor":[{"reference":"Organization/a6c3e6fa-301e-4714-9d04-3dde9a7e7c49"}]},"request":{"method":"PUT","url":"Coverage/9794b7d3-efcc-4a2d-84b7-58aca9b86f70"}},{"fullUrl":"https://madie.cms.gov/Condition/b85b6997-18f1-4987-9c6a-6d8dfb142b1d","resource":{"resourceType":"Condition","id":"b85b6997-18f1-4987-9c6a-6d8dfb142b1d","meta":{"profile":["http://hl7.org/fhir/us/qicore/StructureDefinition/qicore-condition"]},"clinicalStatus":{"coding":[{"system":"http://terminology.hl7.org/CodeSystem/condition-clinical","code":"active"}]},"verificationStatus":{"coding":[{"system":"http://terminology.hl7.org/CodeSystem/condition-ver-status","code":"confirmed"}]},"category":[{"coding":[{"system":"http://terminology.hl7.org/CodeSystem/condition-category","code":"encounter-diagnosis","display":"Encounter Diagnosis"}]}],"code":{"coding":[{"system":"http://snomed.info/sct","version":"2020-09","code":"111297002","display":"Nonparalytic stroke (disorder)","userSelected":true}]},"subject":{"reference":"Patient/09a132b9-b03c-4a8d-a09f-f18c544bb660"},"recordedDate":"2026-08-06T08:00:00.000+00:00"},"request":{"method":"PUT","url":"Condition/b85b6997-18f1-4987-9c6a-6d8dfb142b1d"}},{"fullUrl":"https://madie.cms.gov/Organization/750d5b99-df7d-4925-83ab-68437eede4c8","resource":{"resourceType":"Organization","id":"a6c3e6fa-301e-4714-9d04-3dde9a7e7c49","meta":{"profile":["http://hl7.org/fhir/us/qicore/StructureDefinition/qicore-organization"]},"identifier":[{"use":"temp","system":"urn:oid:2.16.840.1.113883.4.4","value":"21-3259825"}],"active":true,"type":[{"coding":[{"system":"http://terminology.hl7.org/CodeSystem/organization-type","code":"pay","display":"Payer"}]}],"name":"Blue Cross Blue Shield of Texas","telecom":[{"system":"phone","value":"(+1) 972-766-6900"}],"address":[{"use":"billing","type":"postal","line":["P.O. Box 660044"],"city":"Dallas","state":"TX","postalCode":"75266-0044","country":"USA"}]},"request":{"method":"PUT","url":"Organization/a6c3e6fa-301e-4714-9d04-3dde9a7e7c49"}},{"fullUrl":"https://madie.cms.gov/MeasureReport/ab929f69-15ea-4688-a62d-7decb3e47e25","resource":{"resourceType":"MeasureReport","id":"ab929f69-15ea-4688-a62d-7decb3e47e25","meta":{"profile":["http://hl7.org/fhir/us/cqfmeasures/StructureDefinition/test-case-cqfm"]},"contained":[{"resourceType":"Parameters","id":"d4d130fd-49a7-4b30-8e28-f6fcd2c88914-parameters","parameter":[{"name":"subject","valueString":"09a132b9-b03c-4a8d-a09f-f18c544bb660"}]}],"extension":[{"url":"http://hl7.org/fhir/us/cqfmeasures/StructureDefinition/cqfm-inputParameters","valueReference":{"reference":"#d4d130fd-49a7-4b30-8e28-f6fcd2c88914-parameters"}},{"url":"http://hl7.org/fhir/us/cqfmeasures/StructureDefinition/cqfm-testCaseDescription","valueMarkdown":"Patient receives INR of 3.6 the 1 min  before ED start. ED ends 60 minute before OBS starts. OBS starts on day 2 at midnight. IP on the same day. Testing Day of operator with HospitalizationWithObservation function.\n"}],"modifierExtension":[{"url":"http://hl7.org/fhir/us/cqfmeasures/StructureDefinition/cqfm-isTestCase","valueBoolean":true}],"status":"complete","type":"individual","measure":"https://madie.cms.gov/Measure/CMS72FHIRSTKAntithromboticDay2","period":{"start":"2026-01-01","end":"2026-12-31"},"group":[{"population":[{"code":{"coding":[{"system":"http://terminology.hl7.org/CodeSystem/measure-population","code":"initial-population","display":"Initial Population"}]},"count":1},{"code":{"coding":[{"system":"http://terminology.hl7.org/CodeSystem/measure-population","code":"denominator","display":"Denominator"}]},"count":1},{"code":{"coding":[{"system":"http://terminology.hl7.org/CodeSystem/measure-population","code":"denominator-exclusion","display":"Denominator Exclusion"}]},"count":0},{"code":{"coding":[{"system":"http://terminology.hl7.org/CodeSystem/measure-population","code":"numerator","display":"Numerator"}]},"count":0},{"code":{"coding":[{"system":"http://terminology.hl7.org/CodeSystem/measure-population","code":"denominator-exception","display":"Denominator Exception"}]},"count":1}]}]},"request":{"method":"PUT","url":"MeasureReport/ab929f69-15ea-4688-a62d-7decb3e47e25"}}]}