{"resourceType":"Bundle","id":"tests-3fbd6ec2-8d40-45e7-90d7-747d7c491c1a-bundle","type":"transaction","entry":[{"fullUrl":"https://madie.cms.gov/Patient/3fbd6ec2-8d40-45e7-90d7-747d7c491c1a","resource":{"resourceType":"Patient","id":"3fbd6ec2-8d40-45e7-90d7-747d7c491c1a","meta":{"profile":["http://hl7.org/fhir/us/qicore/StructureDefinition/qicore-patient"]},"text":{"status":"generated","div":"<div xmlns=\"http://www.w3.org/1999/xhtml\"><div class=\"hapiHeaderText\">Med1TPAStart_inGap_ofEDandEncIP <b>DENEXPASS </b></div><table class=\"hapiPropertyTable\"><tbody><tr><td>Identifier</td><td>b0519c7cbaeef57f16bed4e113c51983</td></tr><tr><td>Date of birth</td><td><span>26 September 1975</span></td></tr></tbody></table></div>"},"extension":[{"url":"http://hl7.org/fhir/us/core/StructureDefinition/us-core-race","extension":[{"url":"ombCategory","valueCoding":{"system":"urn:oid:2.16.840.1.113883.6.238","code":"2054-5","display":"Black or African American","userSelected":true}},{"url":"text","valueString":"Black or African American"}]},{"url":"http://hl7.org/fhir/us/core/StructureDefinition/us-core-ethnicity","extension":[{"url":"ombCategory","valueCoding":{"system":"urn:oid:2.16.840.1.113883.6.238","code":"2186-5","display":"Not Hispanic or Latino","userSelected":true}},{"url":"text","valueString":"Not Hispanic or Latino"}]}],"identifier":[{"type":{"coding":[{"system":"http://terminology.hl7.org/CodeSystem/v2-0203","code":"MR"}]},"system":"https://bonnie-fhir.healthit.gov/","value":"60f82c2e98086b570510e282"}],"active":true,"name":[{"use":"usual","family":"DENEXPass","given":["Med1TPAStart_inGap_ofEDandEncIP"]}],"gender":"female","birthDate":"1976-09-26"},"request":{"method":"PUT","url":"Patient/3fbd6ec2-8d40-45e7-90d7-747d7c491c1a"}},{"fullUrl":"https://madie.cms.gov/Encounter/f8a7a70d-3936-462f-ba2e-79df855c6922","resource":{"resourceType":"Encounter","id":"f8a7a70d-3936-462f-ba2e-79df855c6922","meta":{"profile":["http://hl7.org/fhir/us/qicore/StructureDefinition/qicore-encounter"]},"status":"finished","class":{"system":"http://terminology.hl7.org/CodeSystem/v3-ActCode","code":"EMER","display":"emergency"},"type":[{"coding":[{"system":"http://snomed.info/sct","code":"4525004"}]}],"subject":{"reference":"Patient/3fbd6ec2-8d40-45e7-90d7-747d7c491c1a"},"period":{"start":"2026-10-10T06:00:00+00:00","end":"2026-10-10T08:30:00+00:00"},"length":{"value":0,"unit":"days"}},"request":{"method":"PUT","url":"Encounter/f8a7a70d-3936-462f-ba2e-79df855c6922"}},{"fullUrl":"https://madie.cms.gov/Encounter/02ab4136-e66a-493b-9325-3398826b478c","resource":{"resourceType":"Encounter","id":"02ab4136-e66a-493b-9325-3398826b478c","meta":{"profile":["http://hl7.org/fhir/us/qicore/StructureDefinition/qicore-encounter"]},"status":"finished","class":{"system":"http://terminology.hl7.org/CodeSystem/v3-ActCode","code":"IMP","display":"inpatient encounter"},"type":[{"coding":[{"system":"http://snomed.info/sct","code":"32485007"}]}],"subject":{"reference":"Patient/3fbd6ec2-8d40-45e7-90d7-747d7c491c1a"},"period":{"start":"2026-10-10T09:00:00+00:00","end":"2026-10-12T11:15:00+00:00"},"length":{"value":2,"unit":"days"},"diagnosis":[{"condition":{"reference":"Condition/cd20e0ed-d28c-4eea-9496-add6716cc024"},"use":{"coding":[{"system":"http://terminology.hl7.org/CodeSystem/diagnosis-role","code":"billing","display":"Billing"}]},"rank":1}]},"request":{"method":"PUT","url":"Encounter/02ab4136-e66a-493b-9325-3398826b478c"}},{"fullUrl":"https://madie.cms.gov/MedicationAdministration/78fd836f-b813-4472-b9de-d66a9eda88b8","resource":{"resourceType":"MedicationAdministration","id":"78fd836f-b813-4472-b9de-d66a9eda88b8","meta":{"profile":["http://hl7.org/fhir/us/qicore/StructureDefinition/qicore-medicationadministration"]},"status":"completed","medicationCodeableConcept":{"coding":[{"system":"http://www.nlm.nih.gov/research/umls/rxnorm","code":"1804799"}]},"subject":{"reference":"Patient/3fbd6ec2-8d40-45e7-90d7-747d7c491c1a"},"effectivePeriod":{"start":"2026-10-10T08:35:00+00:00"}},"request":{"method":"PUT","url":"MedicationAdministration/78fd836f-b813-4472-b9de-d66a9eda88b8"}},{"fullUrl":"https://madie.cms.gov/Coverage/359c5f64-e934-4999-ad25-f982dcb28e64","resource":{"resourceType":"Coverage","id":"359c5f64-e934-4999-ad25-f982dcb28e64","status":"active","beneficiary":{"reference":"Patient/3fbd6ec2-8d40-45e7-90d7-747d7c491c1a"},"period":{"start":"1976-09-26T08:00:00+00:00"},"payor":[{"reference":"Organization/f4907415-83c5-4eae-ab0b-cb63a840880d"}]},"request":{"method":"PUT","url":"Coverage/359c5f64-e934-4999-ad25-f982dcb28e64"}},{"fullUrl":"https://madie.cms.gov/Condition/cd20e0ed-d28c-4eea-9496-add6716cc024","resource":{"resourceType":"Condition","id":"cd20e0ed-d28c-4eea-9496-add6716cc024","meta":{"profile":["http://hl7.org/fhir/us/qicore/StructureDefinition/qicore-condition"]},"clinicalStatus":{"coding":[{"system":"http://terminology.hl7.org/CodeSystem/condition-clinical","code":"active"}]},"verificationStatus":{"coding":[{"system":"http://terminology.hl7.org/CodeSystem/condition-ver-status","code":"confirmed"}]},"category":[{"coding":[{"system":"http://terminology.hl7.org/CodeSystem/condition-category","code":"encounter-diagnosis","display":"Encounter Diagnosis"}]}],"code":{"coding":[{"system":"http://snomed.info/sct","version":"2020-09","code":"111297002","display":"Nonparalytic stroke (disorder)","userSelected":true}]},"subject":{"reference":"Patient/3fbd6ec2-8d40-45e7-90d7-747d7c491c1a"},"recordedDate":"2026-08-13T08:00:00.000+00:00"},"request":{"method":"PUT","url":"Condition/cd20e0ed-d28c-4eea-9496-add6716cc024"}},{"fullUrl":"https://madie.cms.gov/Organization/6a271614-6e75-4132-9483-7a77ec14d8e0","resource":{"resourceType":"Organization","id":"f4907415-83c5-4eae-ab0b-cb63a840880d","meta":{"profile":["http://hl7.org/fhir/us/qicore/StructureDefinition/qicore-organization"]},"identifier":[{"use":"temp","system":"urn:oid:2.16.840.1.113883.4.4","value":"21-3259825"}],"active":true,"type":[{"coding":[{"system":"http://terminology.hl7.org/CodeSystem/organization-type","code":"pay","display":"Payer"}]}],"name":"Blue Cross Blue Shield of Texas","telecom":[{"system":"phone","value":"(+1) 972-766-6900"}],"address":[{"use":"billing","type":"postal","line":["P.O. Box 660044"],"city":"Dallas","state":"TX","postalCode":"75266-0044","country":"USA"}]},"request":{"method":"PUT","url":"Organization/f4907415-83c5-4eae-ab0b-cb63a840880d"}},{"fullUrl":"https://madie.cms.gov/MeasureReport/16dcf577-3556-4a11-bb6d-fc7d7b401d7a","resource":{"resourceType":"MeasureReport","id":"16dcf577-3556-4a11-bb6d-fc7d7b401d7a","meta":{"profile":["http://hl7.org/fhir/us/cqfmeasures/StructureDefinition/test-case-cqfm"]},"contained":[{"resourceType":"Parameters","id":"7a3022ee-ecf7-4210-90e4-1eba3fc93246-parameters","parameter":[{"name":"subject","valueString":"3fbd6ec2-8d40-45e7-90d7-747d7c491c1a"}]}],"extension":[{"url":"http://hl7.org/fhir/us/cqfmeasures/StructureDefinition/cqfm-inputParameters","valueReference":{"reference":"#7a3022ee-ecf7-4210-90e4-1eba3fc93246-parameters"}},{"url":"http://hl7.org/fhir/us/cqfmeasures/StructureDefinition/cqfm-testCaseDescription","valueMarkdown":"\"Patient has Med TPA between ED and Enc IP ,(in gap) \n  global.\"\"Hospitalization\"\" =(Ed+IP)\"\n"}],"modifierExtension":[{"url":"http://hl7.org/fhir/us/cqfmeasures/StructureDefinition/cqfm-isTestCase","valueBoolean":true}],"status":"complete","type":"individual","measure":"https://madie.cms.gov/Measure/CMS72FHIRSTKAntithromboticDay2","period":{"start":"2026-01-01","end":"2026-12-31"},"group":[{"population":[{"code":{"coding":[{"system":"http://terminology.hl7.org/CodeSystem/measure-population","code":"initial-population","display":"Initial Population"}]},"count":1},{"code":{"coding":[{"system":"http://terminology.hl7.org/CodeSystem/measure-population","code":"denominator","display":"Denominator"}]},"count":1},{"code":{"coding":[{"system":"http://terminology.hl7.org/CodeSystem/measure-population","code":"denominator-exclusion","display":"Denominator Exclusion"}]},"count":1},{"code":{"coding":[{"system":"http://terminology.hl7.org/CodeSystem/measure-population","code":"numerator","display":"Numerator"}]},"count":0},{"code":{"coding":[{"system":"http://terminology.hl7.org/CodeSystem/measure-population","code":"denominator-exception","display":"Denominator Exception"}]},"count":0}]}]},"request":{"method":"PUT","url":"MeasureReport/16dcf577-3556-4a11-bb6d-fc7d7b401d7a"}}]}