{"resourceType":"Bundle","id":"tests-3ae29ae5-1ae5-4eaf-ba7b-1e7b7780982a-bundle","type":"transaction","entry":[{"fullUrl":"https://madie.cms.gov/Patient/3ae29ae5-1ae5-4eaf-ba7b-1e7b7780982a","resource":{"resourceType":"Patient","id":"3ae29ae5-1ae5-4eaf-ba7b-1e7b7780982a","meta":{"profile":["http://hl7.org/fhir/us/qicore/StructureDefinition/qicore-patient"]},"text":{"status":"generated","div":"<div xmlns=\"http://www.w3.org/1999/xhtml\"><div class=\"hapiHeaderText\">PrincDxIschemicSTK <b>IPPPASS </b></div><table class=\"hapiPropertyTable\"><tbody><tr><td>Identifier</td><td>dc15ccbf61b2765eaaf76765161aee46</td></tr><tr><td>Date of birth</td><td><span>20 August 1994</span></td></tr></tbody></table></div>"},"extension":[{"url":"http://hl7.org/fhir/us/core/StructureDefinition/us-core-race","extension":[{"url":"ombCategory","valueCoding":{"system":"urn:oid:2.16.840.1.113883.6.238","code":"1002-5","display":"American Indian or Alaska Native","userSelected":true}},{"url":"text","valueString":"American Indian or Alaska Native"}]},{"url":"http://hl7.org/fhir/us/core/StructureDefinition/us-core-ethnicity","extension":[{"url":"ombCategory","valueCoding":{"system":"urn:oid:2.16.840.1.113883.6.238","code":"2186-5","display":"Not Hispanic or Latino","userSelected":true}},{"url":"text","valueString":"Not Hispanic or Latino"}]}],"identifier":[{"type":{"coding":[{"system":"http://terminology.hl7.org/CodeSystem/v2-0203","code":"MR"}]},"system":"https://bonnie-fhir.healthit.gov/","value":"60f82c2e98086b570510e273"}],"active":true,"name":[{"use":"usual","family":"IPPPass","given":["PrincDxIschemicSTK"]}],"gender":"male","birthDate":"1995-08-20"},"request":{"method":"PUT","url":"Patient/3ae29ae5-1ae5-4eaf-ba7b-1e7b7780982a"}},{"fullUrl":"https://madie.cms.gov/Encounter/e6499b8a-1c1a-4da7-a0dc-497b441268c1","resource":{"resourceType":"Encounter","id":"e6499b8a-1c1a-4da7-a0dc-497b441268c1","meta":{"profile":["http://hl7.org/fhir/us/qicore/StructureDefinition/qicore-encounter"]},"status":"finished","class":{"system":"http://terminology.hl7.org/CodeSystem/v3-ActCode","code":"IMP","display":"inpatient encounter"},"type":[{"coding":[{"system":"http://snomed.info/sct","code":"32485007"}]}],"subject":{"reference":"Patient/3ae29ae5-1ae5-4eaf-ba7b-1e7b7780982a"},"period":{"start":"2026-08-21T00:00:00+00:00","end":"2026-12-18T23:59:00+00:00"},"length":{"value":119,"unit":"days"},"diagnosis":[{"condition":{"reference":"Condition/3031ff42-abc3-4716-a240-7b341eade895"},"use":{"coding":[{"system":"http://terminology.hl7.org/CodeSystem/diagnosis-role","code":"billing","display":"Billing"}]},"rank":1}]},"request":{"method":"PUT","url":"Encounter/e6499b8a-1c1a-4da7-a0dc-497b441268c1"}},{"fullUrl":"https://madie.cms.gov/Coverage/a568045f-02eb-4a51-b78f-3f0b8b182542","resource":{"resourceType":"Coverage","id":"a568045f-02eb-4a51-b78f-3f0b8b182542","status":"active","beneficiary":{"reference":"Patient/3ae29ae5-1ae5-4eaf-ba7b-1e7b7780982a"},"period":{"start":"1995-08-20T07:00:00+00:00"},"payor":[{"reference":"Organization/9e9b3f13-a353-4173-b29b-947d6f1f2031"}]},"request":{"method":"PUT","url":"Coverage/a568045f-02eb-4a51-b78f-3f0b8b182542"}},{"fullUrl":"https://madie.cms.gov/Condition/3031ff42-abc3-4716-a240-7b341eade895","resource":{"resourceType":"Condition","id":"3031ff42-abc3-4716-a240-7b341eade895","meta":{"profile":["http://hl7.org/fhir/us/qicore/StructureDefinition/qicore-condition"]},"clinicalStatus":{"coding":[{"system":"http://terminology.hl7.org/CodeSystem/condition-clinical","code":"active"}]},"verificationStatus":{"coding":[{"system":"http://terminology.hl7.org/CodeSystem/condition-ver-status","code":"confirmed"}]},"category":[{"coding":[{"system":"http://terminology.hl7.org/CodeSystem/condition-category","code":"encounter-diagnosis","display":"Encounter Diagnosis"}]}],"code":{"coding":[{"system":"http://snomed.info/sct","version":"2020-09","code":"111297002","display":"Nonparalytic stroke (disorder)","userSelected":true}]},"subject":{"reference":"Patient/3ae29ae5-1ae5-4eaf-ba7b-1e7b7780982a"},"recordedDate":"2026-08-16T08:00:00.000+00:00"},"request":{"method":"PUT","url":"Condition/3031ff42-abc3-4716-a240-7b341eade895"}},{"fullUrl":"https://madie.cms.gov/Organization/b7ce6edb-2d36-48e2-9f67-fabf666ee0d4","resource":{"resourceType":"Organization","id":"9e9b3f13-a353-4173-b29b-947d6f1f2031","meta":{"profile":["http://hl7.org/fhir/us/qicore/StructureDefinition/qicore-organization"]},"identifier":[{"use":"temp","system":"urn:oid:2.16.840.1.113883.4.4","value":"21-3259825"}],"active":true,"type":[{"coding":[{"system":"http://terminology.hl7.org/CodeSystem/organization-type","code":"pay","display":"Payer"}]}],"name":"Blue Cross Blue Shield of Texas","telecom":[{"system":"phone","value":"(+1) 972-766-6900"}],"address":[{"use":"billing","type":"postal","line":["P.O. Box 660044"],"city":"Dallas","state":"TX","postalCode":"75266-0044","country":"USA"}]},"request":{"method":"PUT","url":"Organization/9e9b3f13-a353-4173-b29b-947d6f1f2031"}},{"fullUrl":"https://madie.cms.gov/Practitioner/91a9968c-fcd9-4a63-a1ce-136ec453cfe2","resource":{"resourceType":"Practitioner","id":"91a9968c-fcd9-4a63-a1ce-136ec453cfe2","identifier":[{"system":"http://hl7.org/fhir/sid/us-npi","value":"123456"}],"name":[{"family":"Evil","prefix":["Dr"]}]},"request":{"method":"PUT","url":"Practitioner/91a9968c-fcd9-4a63-a1ce-136ec453cfe2"}},{"fullUrl":"https://madie.cms.gov/MeasureReport/c34d8b2d-c393-4988-af1a-bd14d652349a","resource":{"resourceType":"MeasureReport","id":"c34d8b2d-c393-4988-af1a-bd14d652349a","meta":{"profile":["http://hl7.org/fhir/us/cqfmeasures/StructureDefinition/test-case-cqfm"]},"contained":[{"resourceType":"Parameters","id":"8a1c3cda-7767-4b11-9f09-711fc20b5f96-parameters","parameter":[{"name":"subject","valueString":"3ae29ae5-1ae5-4eaf-ba7b-1e7b7780982a"}]}],"extension":[{"url":"http://hl7.org/fhir/us/cqfmeasures/StructureDefinition/cqfm-inputParameters","valueReference":{"reference":"#8a1c3cda-7767-4b11-9f09-711fc20b5f96-parameters"}},{"url":"http://hl7.org/fhir/us/cqfmeasures/StructureDefinition/cqfm-testCaseDescription","valueMarkdown":"EncPrinDx=IschemicStroke LOS<120\n"}],"modifierExtension":[{"url":"http://hl7.org/fhir/us/cqfmeasures/StructureDefinition/cqfm-isTestCase","valueBoolean":true}],"status":"complete","type":"individual","measure":"https://madie.cms.gov/Measure/CMS72FHIRSTKAntithromboticDay2","period":{"start":"2026-01-01","end":"2026-12-31"},"group":[{"population":[{"code":{"coding":[{"system":"http://terminology.hl7.org/CodeSystem/measure-population","code":"initial-population","display":"Initial Population"}]},"count":1},{"code":{"coding":[{"system":"http://terminology.hl7.org/CodeSystem/measure-population","code":"denominator","display":"Denominator"}]},"count":1},{"code":{"coding":[{"system":"http://terminology.hl7.org/CodeSystem/measure-population","code":"denominator-exclusion","display":"Denominator Exclusion"}]},"count":0},{"code":{"coding":[{"system":"http://terminology.hl7.org/CodeSystem/measure-population","code":"numerator","display":"Numerator"}]},"count":0},{"code":{"coding":[{"system":"http://terminology.hl7.org/CodeSystem/measure-population","code":"denominator-exception","display":"Denominator Exception"}]},"count":0}]}]},"request":{"method":"PUT","url":"MeasureReport/c34d8b2d-c393-4988-af1a-bd14d652349a"}}]}