{"resourceType":"Bundle","id":"tests-c787d9c8-9645-4da6-a607-85dbefdf129e-bundle","type":"transaction","entry":[{"fullUrl":"https://madie.cms.gov/Patient/c787d9c8-9645-4da6-a607-85dbefdf129e","resource":{"resourceType":"Patient","id":"c787d9c8-9645-4da6-a607-85dbefdf129e","meta":{"profile":["http://hl7.org/fhir/us/qicore/StructureDefinition/qicore-patient"]},"text":{"status":"generated","div":"<div xmlns=\"http://www.w3.org/1999/xhtml\"><div class=\"hapiHeaderText\">INRDayAftEnc_ED&lt;1hrObs&lt;1hrBFEncDayOf <b>DENEXCEPASS </b></div><table class=\"hapiPropertyTable\"><tbody><tr><td>Identifier</td><td>eb0390ddf5cccfdde210d05452662b986f9c97b164102446c8fbef7016593c62</td></tr><tr><td>Date of birth</td><td><span>26 September 1975</span></td></tr></tbody></table></div>"},"extension":[{"url":"http://hl7.org/fhir/us/core/StructureDefinition/us-core-race","extension":[{"url":"ombCategory","valueCoding":{"system":"urn:oid:2.16.840.1.113883.6.238","code":"2054-5","display":"Black or African American","userSelected":true}},{"url":"text","valueString":"Black or African American"}]},{"url":"http://hl7.org/fhir/us/core/StructureDefinition/us-core-ethnicity","extension":[{"url":"ombCategory","valueCoding":{"system":"urn:oid:2.16.840.1.113883.6.238","code":"2186-5","display":"Not Hispanic or Latino","userSelected":true}},{"url":"text","valueString":"Not Hispanic or Latino"}]}],"identifier":[{"type":{"coding":[{"system":"http://terminology.hl7.org/CodeSystem/v2-0203","code":"MR"}]},"system":"https://bonnie-fhir.healthit.gov/","value":"60f82c2f98086b570510e2a8"}],"active":true,"name":[{"use":"usual","family":"DENEXCEPass","given":["INRDayAftEnc_ED<1hrObs<1hrBFEncDayOf"]}],"gender":"female","birthDate":"1976-09-26"},"request":{"method":"PUT","url":"Patient/c787d9c8-9645-4da6-a607-85dbefdf129e"}},{"fullUrl":"https://madie.cms.gov/Encounter/347e3dea-ac38-4aa3-801b-47bc0abdc804","resource":{"resourceType":"Encounter","id":"347e3dea-ac38-4aa3-801b-47bc0abdc804","meta":{"profile":["http://hl7.org/fhir/us/qicore/StructureDefinition/qicore-encounter"]},"status":"finished","class":{"system":"http://terminology.hl7.org/CodeSystem/v3-ActCode","code":"EMER","display":"emergency","userSelected":true},"type":[{"coding":[{"system":"http://snomed.info/sct","code":"4525004"}]}],"subject":{"reference":"Patient/c787d9c8-9645-4da6-a607-85dbefdf129e"},"period":{"start":"2026-10-11T06:15:00+00:00","end":"2026-10-11T06:30:00+00:00"},"length":{"value":0,"unit":"days"}},"request":{"method":"PUT","url":"Encounter/347e3dea-ac38-4aa3-801b-47bc0abdc804"}},{"fullUrl":"https://madie.cms.gov/Encounter/c5e096ca-7976-43f5-ab01-c9a86bf01c43","resource":{"resourceType":"Encounter","id":"c5e096ca-7976-43f5-ab01-c9a86bf01c43","meta":{"profile":["http://hl7.org/fhir/us/qicore/StructureDefinition/qicore-encounter"]},"status":"finished","class":{"system":"http://terminology.hl7.org/CodeSystem/v3-ActCode","code":"OBSENC","display":"observation encounter","userSelected":true},"type":[{"coding":[{"system":"http://snomed.info/sct","code":"448851000124103"}]}],"subject":{"reference":"Patient/c787d9c8-9645-4da6-a607-85dbefdf129e"},"period":{"start":"2026-10-11T06:31:00+00:00","end":"2026-10-11T07:30:00+00:00"},"length":{"value":0,"unit":"days"}},"request":{"method":"PUT","url":"Encounter/c5e096ca-7976-43f5-ab01-c9a86bf01c43"}},{"fullUrl":"https://madie.cms.gov/Encounter/6ffae214-46e1-4f9d-8314-49acc311e6b8","resource":{"resourceType":"Encounter","id":"6ffae214-46e1-4f9d-8314-49acc311e6b8","meta":{"profile":["http://hl7.org/fhir/us/qicore/StructureDefinition/qicore-encounter"]},"status":"finished","class":{"system":"http://terminology.hl7.org/CodeSystem/v3-ActCode","code":"IMP","display":"inpatient encounter","userSelected":true},"type":[{"coding":[{"system":"http://snomed.info/sct","code":"32485007"}]}],"subject":{"reference":"Patient/c787d9c8-9645-4da6-a607-85dbefdf129e"},"period":{"start":"2026-10-11T07:31:00+00:00","end":"2026-10-15T11:30:00+00:00"},"length":{"value":4,"unit":"days"},"diagnosis":[{"condition":{"reference":"Condition/f22d4467-b614-437c-8056-17997736c68d"},"use":{"coding":[{"system":"http://terminology.hl7.org/CodeSystem/diagnosis-role","code":"billing","display":"Billing"}]},"rank":1}]},"request":{"method":"PUT","url":"Encounter/6ffae214-46e1-4f9d-8314-49acc311e6b8"}},{"fullUrl":"https://madie.cms.gov/Observation/d6abbd8b-c976-4dc4-b5f5-32fcb002d1cc","resource":{"resourceType":"Observation","id":"d6abbd8b-c976-4dc4-b5f5-32fcb002d1cc","meta":{"profile":["http://hl7.org/fhir/us/qicore/StructureDefinition/qicore-observation"]},"status":"final","category":[{"coding":[{"system":"http://terminology.hl7.org/CodeSystem/observation-category","code":"laboratory","display":"Laboratory"}]}],"code":{"coding":[{"system":"http://loinc.org","code":"34714-6"}]},"subject":{"reference":"Patient/c787d9c8-9645-4da6-a607-85dbefdf129e"},"effectivePeriod":{"start":"2026-10-10T06:14:00+00:00"},"issued":"2026-10-12T00:00:00.000+00:00","valueQuantity":{"value":3.6}},"request":{"method":"PUT","url":"Observation/d6abbd8b-c976-4dc4-b5f5-32fcb002d1cc"}},{"fullUrl":"https://madie.cms.gov/Coverage/86f963c9-615e-4941-84b4-4e429111dff8","resource":{"resourceType":"Coverage","id":"86f963c9-615e-4941-84b4-4e429111dff8","status":"active","beneficiary":{"reference":"Patient/c787d9c8-9645-4da6-a607-85dbefdf129e"},"period":{"start":"1976-09-26T08:00:00+00:00"},"payor":[{"reference":"Organization/f4907415-83c5-4eae-ab0b-cb63a840880d"}]},"request":{"method":"PUT","url":"Coverage/86f963c9-615e-4941-84b4-4e429111dff8"}},{"fullUrl":"https://madie.cms.gov/Condition/f22d4467-b614-437c-8056-17997736c68d","resource":{"resourceType":"Condition","id":"f22d4467-b614-437c-8056-17997736c68d","meta":{"profile":["http://hl7.org/fhir/us/qicore/StructureDefinition/qicore-condition"]},"clinicalStatus":{"coding":[{"system":"http://terminology.hl7.org/CodeSystem/condition-clinical","code":"active"}]},"verificationStatus":{"coding":[{"system":"http://terminology.hl7.org/CodeSystem/condition-ver-status","code":"confirmed"}]},"category":[{"coding":[{"system":"http://terminology.hl7.org/CodeSystem/condition-category","code":"encounter-diagnosis","display":"Encounter Diagnosis"}]}],"code":{"coding":[{"system":"http://snomed.info/sct","version":"2020-09","code":"111297002","display":"Nonparalytic stroke (disorder)","userSelected":true}]},"subject":{"reference":"Patient/c787d9c8-9645-4da6-a607-85dbefdf129e"},"recordedDate":"2026-08-06T08:00:00.000+00:00"},"request":{"method":"PUT","url":"Condition/f22d4467-b614-437c-8056-17997736c68d"}},{"fullUrl":"https://madie.cms.gov/Organization/f772ed9c-80cf-403f-8aff-46881ce7c856","resource":{"resourceType":"Organization","id":"f4907415-83c5-4eae-ab0b-cb63a840880d","meta":{"profile":["http://hl7.org/fhir/us/qicore/StructureDefinition/qicore-organization"]},"identifier":[{"use":"temp","system":"urn:oid:2.16.840.1.113883.4.4","value":"21-3259825"}],"active":true,"type":[{"coding":[{"system":"http://terminology.hl7.org/CodeSystem/organization-type","code":"pay","display":"Payer"}]}],"name":"Blue Cross Blue Shield of Texas","telecom":[{"system":"phone","value":"(+1) 972-766-6900"}],"address":[{"use":"billing","type":"postal","line":["P.O. Box 660044"],"city":"Dallas","state":"TX","postalCode":"75266-0044","country":"USA"}]},"request":{"method":"PUT","url":"Organization/f4907415-83c5-4eae-ab0b-cb63a840880d"}},{"fullUrl":"https://madie.cms.gov/Practitioner/b46dc64a-241d-4332-8a45-4a8d4682fa2b","resource":{"resourceType":"Practitioner","id":"b46dc64a-241d-4332-8a45-4a8d4682fa2b","identifier":[{"system":"http://hl7.org/fhir/sid/us-npi","value":"123456"}],"name":[{"family":"Evil","prefix":["Dr"]}]},"request":{"method":"PUT","url":"Practitioner/b46dc64a-241d-4332-8a45-4a8d4682fa2b"}},{"fullUrl":"https://madie.cms.gov/MeasureReport/def30cba-be51-4b0b-9625-fe0c86f87c2a","resource":{"resourceType":"MeasureReport","id":"def30cba-be51-4b0b-9625-fe0c86f87c2a","meta":{"profile":["http://hl7.org/fhir/us/cqfmeasures/StructureDefinition/test-case-cqfm"]},"contained":[{"resourceType":"Parameters","id":"e939146c-44d9-444c-b7a8-e345a900949f-parameters","parameter":[{"name":"subject","valueString":"c787d9c8-9645-4da6-a607-85dbefdf129e"}]}],"extension":[{"url":"http://hl7.org/fhir/us/cqfmeasures/StructureDefinition/cqfm-inputParameters","valueReference":{"reference":"#e939146c-44d9-444c-b7a8-e345a900949f-parameters"}}],"modifierExtension":[{"url":"http://hl7.org/fhir/us/cqfmeasures/StructureDefinition/cqfm-isTestCase","valueBoolean":true}],"status":"complete","type":"individual","measure":"https://madie.cms.gov/Measure/CMS72FHIRSTKAntithromboticDay2","period":{"start":"2026-01-01","end":"2026-12-31"},"group":[{"population":[{"code":{"coding":[{"system":"http://terminology.hl7.org/CodeSystem/measure-population","code":"initial-population","display":"Initial Population"}]},"count":1},{"code":{"coding":[{"system":"http://terminology.hl7.org/CodeSystem/measure-population","code":"denominator","display":"Denominator"}]},"count":1},{"code":{"coding":[{"system":"http://terminology.hl7.org/CodeSystem/measure-population","code":"denominator-exclusion","display":"Denominator Exclusion"}]},"count":0},{"code":{"coding":[{"system":"http://terminology.hl7.org/CodeSystem/measure-population","code":"numerator","display":"Numerator"}]},"count":0},{"code":{"coding":[{"system":"http://terminology.hl7.org/CodeSystem/measure-population","code":"denominator-exception","display":"Denominator Exception"}]},"count":1}]}]},"request":{"method":"PUT","url":"MeasureReport/def30cba-be51-4b0b-9625-fe0c86f87c2a"}}]}