{"resourceType":"Bundle","id":"tests-1216ea1e-aee7-4c75-8e5d-7f712f6ba3f7-bundle","type":"transaction","entry":[{"fullUrl":"https://madie.cms.gov/Patient/1216ea1e-aee7-4c75-8e5d-7f712f6ba3f7","resource":{"resourceType":"Patient","id":"1216ea1e-aee7-4c75-8e5d-7f712f6ba3f7","meta":{"profile":["http://hl7.org/fhir/us/qicore/StructureDefinition/qicore-patient"]},"text":{"status":"generated","div":"<div xmlns=\"http://www.w3.org/1999/xhtml\"><div class=\"hapiHeaderText\">INRDayOfObs_ED&lt;1hrDayOfObs&gt;1hrDayAftBFEnc2DayAft <b>DENEXCEPFAIL </b></div><table class=\"hapiPropertyTable\"><tbody><tr><td>Identifier</td><td>5057820c9f8087deb980c05c7852ae7b709590e0ebc4e0ba69449350b68c9e65</td></tr><tr><td>Date of birth</td><td><span>26 September 1975</span></td></tr></tbody></table></div>"},"extension":[{"url":"http://hl7.org/fhir/us/core/StructureDefinition/us-core-race","extension":[{"url":"ombCategory","valueCoding":{"system":"urn:oid:2.16.840.1.113883.6.238","code":"2054-5","display":"Black or African American","userSelected":true}},{"url":"text","valueString":"Black or African American"}]},{"url":"http://hl7.org/fhir/us/core/StructureDefinition/us-core-ethnicity","extension":[{"url":"ombCategory","valueCoding":{"system":"urn:oid:2.16.840.1.113883.6.238","code":"2186-5","display":"Not Hispanic or Latino","userSelected":true}},{"url":"text","valueString":"Not Hispanic or Latino"}]}],"identifier":[{"type":{"coding":[{"system":"http://terminology.hl7.org/CodeSystem/v2-0203","code":"MR"}]},"system":"https://bonnie-fhir.healthit.gov/","value":"60f82c2f98086b570510e2af"}],"active":true,"name":[{"use":"usual","family":"DENEXCEPFail","given":["INRDayOfObs_ED<1hrDayOfObs>1hrDayAftBFEnc2DayAft"]}],"gender":"female","birthDate":"1976-09-26"},"request":{"method":"PUT","url":"Patient/1216ea1e-aee7-4c75-8e5d-7f712f6ba3f7"}},{"fullUrl":"https://madie.cms.gov/Encounter/b7a78f3c-bd4f-4aee-ae1c-e3430e9cf234","resource":{"resourceType":"Encounter","id":"b7a78f3c-bd4f-4aee-ae1c-e3430e9cf234","meta":{"profile":["http://hl7.org/fhir/us/qicore/StructureDefinition/qicore-encounter"]},"status":"finished","class":{"system":"http://terminology.hl7.org/CodeSystem/v3-ActCode","code":"EMER","display":"emergency"},"type":[{"coding":[{"system":"http://snomed.info/sct","code":"4525004"}]}],"subject":{"reference":"Patient/1216ea1e-aee7-4c75-8e5d-7f712f6ba3f7"},"period":{"start":"2026-10-10T06:15:00.000+00:00","end":"2026-10-10T23:59:00.000+00:00"},"length":{"value":0,"unit":"days"}},"request":{"method":"PUT","url":"Encounter/b7a78f3c-bd4f-4aee-ae1c-e3430e9cf234"}},{"fullUrl":"https://madie.cms.gov/Encounter/9c9da6dd-e073-4d51-b657-6d7005c74fee","resource":{"resourceType":"Encounter","id":"9c9da6dd-e073-4d51-b657-6d7005c74fee","meta":{"profile":["http://hl7.org/fhir/us/qicore/StructureDefinition/qicore-encounter"]},"status":"finished","class":{"system":"http://terminology.hl7.org/CodeSystem/v3-ActCode","code":"OBSENC","display":"observation encounter"},"type":[{"coding":[{"system":"http://snomed.info/sct","code":"448851000124103"}]}],"subject":{"reference":"Patient/1216ea1e-aee7-4c75-8e5d-7f712f6ba3f7"},"period":{"start":"2026-10-11T01:00:00.000+00:00","end":"2026-10-11T23:59:00.000+00:00"},"length":{"value":0,"unit":"days"}},"request":{"method":"PUT","url":"Encounter/9c9da6dd-e073-4d51-b657-6d7005c74fee"}},{"fullUrl":"https://madie.cms.gov/Encounter/19f022ac-0f90-4c98-afd3-d67158fd79c4","resource":{"resourceType":"Encounter","id":"19f022ac-0f90-4c98-afd3-d67158fd79c4","meta":{"profile":["http://hl7.org/fhir/us/qicore/StructureDefinition/qicore-encounter"]},"status":"finished","class":{"system":"http://terminology.hl7.org/CodeSystem/v3-ActCode","code":"IMP","display":"inpatient encounter","userSelected":true},"type":[{"coding":[{"system":"http://snomed.info/sct","code":"32485007"}]}],"subject":{"reference":"Patient/1216ea1e-aee7-4c75-8e5d-7f712f6ba3f7"},"period":{"start":"2026-10-12T01:00:00.000+00:00","end":"2026-10-15T11:30:00.000+00:00"},"length":{"value":3,"unit":"days"},"diagnosis":[{"condition":{"reference":"Condition/a9d25655-c97b-4a26-9adc-730c5b6b697c"},"use":{"coding":[{"system":"http://terminology.hl7.org/CodeSystem/diagnosis-role","code":"billing","display":"Billing"}]},"rank":1}]},"request":{"method":"PUT","url":"Encounter/19f022ac-0f90-4c98-afd3-d67158fd79c4"}},{"fullUrl":"https://madie.cms.gov/Observation/15e0afb0-7591-4976-976c-cb67b16c2bb2","resource":{"resourceType":"Observation","id":"15e0afb0-7591-4976-976c-cb67b16c2bb2","meta":{"profile":["http://hl7.org/fhir/us/qicore/StructureDefinition/qicore-observation"]},"status":"final","category":[{"coding":[{"system":"http://terminology.hl7.org/CodeSystem/observation-category","code":"laboratory","display":"Laboratory"}]}],"code":{"coding":[{"system":"http://loinc.org","code":"34714-6"}]},"subject":{"reference":"Patient/1216ea1e-aee7-4c75-8e5d-7f712f6ba3f7"},"effectiveDateTime":"2026-10-11T08:00:00.000+00:00","issued":"2026-10-11T01:00:00.000+00:00","valueQuantity":{"value":3.6}},"request":{"method":"PUT","url":"Observation/15e0afb0-7591-4976-976c-cb67b16c2bb2"}},{"fullUrl":"https://madie.cms.gov/Coverage/f6678d4d-f4cc-4c6a-8526-5f28a946ebed","resource":{"resourceType":"Coverage","id":"f6678d4d-f4cc-4c6a-8526-5f28a946ebed","status":"active","beneficiary":{"reference":"Patient/1216ea1e-aee7-4c75-8e5d-7f712f6ba3f7"},"period":{"start":"1976-09-26T08:00:00+00:00"},"payor":[{"reference":"Organization/3e899f33-84eb-4634-a770-a5a0bd7a80e7"}]},"request":{"method":"PUT","url":"Coverage/f6678d4d-f4cc-4c6a-8526-5f28a946ebed"}},{"fullUrl":"https://madie.cms.gov/Condition/a9d25655-c97b-4a26-9adc-730c5b6b697c","resource":{"resourceType":"Condition","id":"a9d25655-c97b-4a26-9adc-730c5b6b697c","meta":{"profile":["http://hl7.org/fhir/us/qicore/StructureDefinition/qicore-condition"]},"clinicalStatus":{"coding":[{"system":"http://terminology.hl7.org/CodeSystem/condition-clinical","code":"active"}]},"verificationStatus":{"coding":[{"system":"http://terminology.hl7.org/CodeSystem/condition-ver-status","code":"confirmed"}]},"category":[{"coding":[{"system":"http://terminology.hl7.org/CodeSystem/condition-category","code":"encounter-diagnosis","display":"Encounter Diagnosis"}]}],"code":{"coding":[{"system":"http://snomed.info/sct","version":"2020-09","code":"111297002","display":"Nonparalytic stroke (disorder)","userSelected":true}]},"subject":{"reference":"Patient/1216ea1e-aee7-4c75-8e5d-7f712f6ba3f7"},"recordedDate":"2026-07-28T08:00:00.000+00:00"},"request":{"method":"PUT","url":"Condition/a9d25655-c97b-4a26-9adc-730c5b6b697c"}},{"fullUrl":"https://madie.cms.gov/Organization/e0db828d-3a9e-419f-ab05-73917d68a41c","resource":{"resourceType":"Organization","id":"3e899f33-84eb-4634-a770-a5a0bd7a80e7","meta":{"profile":["http://hl7.org/fhir/us/qicore/StructureDefinition/qicore-organization"]},"identifier":[{"use":"temp","system":"urn:oid:2.16.840.1.113883.4.4","value":"21-3259825"}],"active":true,"type":[{"coding":[{"system":"http://terminology.hl7.org/CodeSystem/organization-type","code":"pay","display":"Payer"}]}],"name":"Blue Cross Blue Shield of Texas","telecom":[{"system":"phone","value":"(+1) 972-766-6900"}],"address":[{"use":"billing","type":"postal","line":["P.O. Box 660044"],"city":"Dallas","state":"TX","postalCode":"75266-0044","country":"USA"}]},"request":{"method":"PUT","url":"Organization/3e899f33-84eb-4634-a770-a5a0bd7a80e7"}},{"fullUrl":"https://madie.cms.gov/MeasureReport/d98a8741-c443-4cec-a67a-183a33c2894f","resource":{"resourceType":"MeasureReport","id":"d98a8741-c443-4cec-a67a-183a33c2894f","meta":{"profile":["http://hl7.org/fhir/us/cqfmeasures/StructureDefinition/test-case-cqfm"]},"contained":[{"resourceType":"Parameters","id":"d6d86000-9699-4491-8faf-73c3e6dbf826-parameters","parameter":[{"name":"subject","valueString":"1216ea1e-aee7-4c75-8e5d-7f712f6ba3f7"}]}],"extension":[{"url":"http://hl7.org/fhir/us/cqfmeasures/StructureDefinition/cqfm-inputParameters","valueReference":{"reference":"#d6d86000-9699-4491-8faf-73c3e6dbf826-parameters"}},{"url":"http://hl7.org/fhir/us/cqfmeasures/StructureDefinition/cqfm-testCaseDescription","valueMarkdown":"Patient receives INR day of Obs, ED ends 1 min before Obs start at midnight, Obs ends 61 min before IP start at midnight the next day. Testing Day of operator with HospitalizationWithObservation function.\n"}],"modifierExtension":[{"url":"http://hl7.org/fhir/us/cqfmeasures/StructureDefinition/cqfm-isTestCase","valueBoolean":true}],"status":"complete","type":"individual","measure":"https://madie.cms.gov/Measure/CMS72FHIRSTKAntithromboticDay2","period":{"start":"2026-01-01","end":"2026-12-31"},"group":[{"population":[{"code":{"coding":[{"system":"http://terminology.hl7.org/CodeSystem/measure-population","code":"initial-population","display":"Initial Population"}]},"count":1},{"code":{"coding":[{"system":"http://terminology.hl7.org/CodeSystem/measure-population","code":"denominator","display":"Denominator"}]},"count":1},{"code":{"coding":[{"system":"http://terminology.hl7.org/CodeSystem/measure-population","code":"denominator-exclusion","display":"Denominator Exclusion"}]},"count":0},{"code":{"coding":[{"system":"http://terminology.hl7.org/CodeSystem/measure-population","code":"numerator","display":"Numerator"}]},"count":0},{"code":{"coding":[{"system":"http://terminology.hl7.org/CodeSystem/measure-population","code":"denominator-exception","display":"Denominator Exception"}]},"count":0}]}]},"request":{"method":"PUT","url":"MeasureReport/d98a8741-c443-4cec-a67a-183a33c2894f"}}]}