{"resourceType":"Bundle","id":"tests-96266910-a2b3-4294-9dc5-8a812622b70b-bundle","type":"transaction","entry":[{"fullUrl":"https://madie.cms.gov/Patient/96266910-a2b3-4294-9dc5-8a812622b70b","resource":{"resourceType":"Patient","id":"96266910-a2b3-4294-9dc5-8a812622b70b","meta":{"profile":["http://hl7.org/fhir/us/qicore/StructureDefinition/qicore-patient"]},"text":{"status":"generated","div":"<div xmlns=\"http://www.w3.org/1999/xhtml\"><div class=\"hapiHeaderText\">MedTPA&gt;EndIPEnd <b>DENEXFAIL </b></div><table class=\"hapiPropertyTable\"><tbody><tr><td>Identifier</td><td>ae500d350c70bd42ecd45e3b5b36ed31</td></tr><tr><td>Date of birth</td><td><span>26 September 1975</span></td></tr></tbody></table></div>"},"extension":[{"url":"http://hl7.org/fhir/us/core/StructureDefinition/us-core-race","extension":[{"url":"ombCategory","valueCoding":{"system":"urn:oid:2.16.840.1.113883.6.238","code":"2054-5","display":"Black or African American","userSelected":true}},{"url":"text","valueString":"Black or African American"}]},{"url":"http://hl7.org/fhir/us/core/StructureDefinition/us-core-ethnicity","extension":[{"url":"ombCategory","valueCoding":{"system":"urn:oid:2.16.840.1.113883.6.238","code":"2186-5","display":"Not Hispanic or Latino","userSelected":true}},{"url":"text","valueString":"Not Hispanic or Latino"}]}],"identifier":[{"type":{"coding":[{"system":"http://terminology.hl7.org/CodeSystem/v2-0203","code":"MR"}]},"system":"https://bonnie-fhir.healthit.gov/","value":"60f82c2e98086b570510e25f"}],"active":true,"name":[{"use":"usual","family":"DENEXFail","given":["MedTPA>EndIPEnd"]}],"gender":"female","birthDate":"1976-09-26"},"request":{"method":"PUT","url":"Patient/96266910-a2b3-4294-9dc5-8a812622b70b"}},{"fullUrl":"https://madie.cms.gov/Encounter/fc369d81-b3fc-4a6f-a526-b99cb8a889be","resource":{"resourceType":"Encounter","id":"fc369d81-b3fc-4a6f-a526-b99cb8a889be","meta":{"profile":["http://hl7.org/fhir/us/qicore/StructureDefinition/qicore-encounter"]},"status":"finished","class":{"system":"http://terminology.hl7.org/CodeSystem/v3-ActCode","code":"EMER","display":"emergency","userSelected":true},"type":[{"coding":[{"system":"http://snomed.info/sct","code":"4525004"}]}],"subject":{"reference":"Patient/96266910-a2b3-4294-9dc5-8a812622b70b"},"period":{"start":"2026-10-10T06:00:00+00:00","end":"2026-10-10T07:01:00+00:00"},"length":{"value":0,"unit":"days"}},"request":{"method":"PUT","url":"Encounter/fc369d81-b3fc-4a6f-a526-b99cb8a889be"}},{"fullUrl":"https://madie.cms.gov/Encounter/fb4876a6-a452-44eb-8b10-8555cdf144a1","resource":{"resourceType":"Encounter","id":"fb4876a6-a452-44eb-8b10-8555cdf144a1","meta":{"profile":["http://hl7.org/fhir/us/qicore/StructureDefinition/qicore-encounter"]},"status":"finished","class":{"system":"http://terminology.hl7.org/CodeSystem/v3-ActCode","code":"IMP","display":"inpatient encounter","userSelected":true},"type":[{"coding":[{"system":"http://snomed.info/sct","code":"32485007"}]}],"subject":{"reference":"Patient/96266910-a2b3-4294-9dc5-8a812622b70b"},"period":{"start":"2026-10-10T09:00:00+00:00","end":"2026-10-12T11:15:00+00:00"},"length":{"value":2,"unit":"days"},"diagnosis":[{"condition":{"reference":"Condition/c1e840f1-83c3-43e2-ad54-50eddb723889"},"use":{"coding":[{"system":"http://terminology.hl7.org/CodeSystem/diagnosis-role","code":"billing","display":"Billing"}]},"rank":1}]},"request":{"method":"PUT","url":"Encounter/fb4876a6-a452-44eb-8b10-8555cdf144a1"}},{"fullUrl":"https://madie.cms.gov/MedicationAdministration/3150a979-f977-42b2-88ee-3002fb88bb4d","resource":{"resourceType":"MedicationAdministration","id":"3150a979-f977-42b2-88ee-3002fb88bb4d","meta":{"profile":["http://hl7.org/fhir/us/qicore/StructureDefinition/qicore-medicationadministration"]},"status":"completed","medicationCodeableConcept":{"coding":[{"system":"http://www.nlm.nih.gov/research/umls/rxnorm","code":"1804799"}]},"subject":{"reference":"Patient/96266910-a2b3-4294-9dc5-8a812622b70b"},"effectivePeriod":{"start":"2026-10-12T11:16:00+00:00"}},"request":{"method":"PUT","url":"MedicationAdministration/3150a979-f977-42b2-88ee-3002fb88bb4d"}},{"fullUrl":"https://madie.cms.gov/Coverage/8a70de72-8849-45e5-a30f-d86ee8535eec","resource":{"resourceType":"Coverage","id":"8a70de72-8849-45e5-a30f-d86ee8535eec","status":"active","beneficiary":{"reference":"Patient/96266910-a2b3-4294-9dc5-8a812622b70b"},"period":{"start":"1976-09-26T08:00:00+00:00"},"payor":[{"reference":"Organization/9e9b3f13-a353-4173-b29b-947d6f1f2031"}]},"request":{"method":"PUT","url":"Coverage/8a70de72-8849-45e5-a30f-d86ee8535eec"}},{"fullUrl":"https://madie.cms.gov/Condition/c1e840f1-83c3-43e2-ad54-50eddb723889","resource":{"resourceType":"Condition","id":"c1e840f1-83c3-43e2-ad54-50eddb723889","meta":{"profile":["http://hl7.org/fhir/us/qicore/StructureDefinition/qicore-condition"]},"clinicalStatus":{"coding":[{"system":"http://terminology.hl7.org/CodeSystem/condition-clinical","code":"active"}]},"verificationStatus":{"coding":[{"system":"http://terminology.hl7.org/CodeSystem/condition-ver-status","code":"confirmed"}]},"category":[{"coding":[{"system":"http://terminology.hl7.org/CodeSystem/condition-category","code":"encounter-diagnosis","display":"Encounter Diagnosis"}]}],"code":{"coding":[{"system":"http://snomed.info/sct","version":"2020-09","code":"111297002","display":"Nonparalytic stroke (disorder)","userSelected":true}]},"subject":{"reference":"Patient/96266910-a2b3-4294-9dc5-8a812622b70b"},"recordedDate":"2026-08-12T08:00:00.000+00:00"},"request":{"method":"PUT","url":"Condition/c1e840f1-83c3-43e2-ad54-50eddb723889"}},{"fullUrl":"https://madie.cms.gov/Organization/936f290c-e0bd-431e-86a0-19ad8209f07c","resource":{"resourceType":"Organization","id":"9e9b3f13-a353-4173-b29b-947d6f1f2031","meta":{"profile":["http://hl7.org/fhir/us/qicore/StructureDefinition/qicore-organization"]},"identifier":[{"use":"temp","system":"urn:oid:2.16.840.1.113883.4.4","value":"21-3259825"}],"active":true,"type":[{"coding":[{"system":"http://terminology.hl7.org/CodeSystem/organization-type","code":"pay","display":"Payer"}]}],"name":"Blue Cross Blue Shield of Texas","telecom":[{"system":"phone","value":"(+1) 972-766-6900"}],"address":[{"use":"billing","type":"postal","line":["P.O. Box 660044"],"city":"Dallas","state":"TX","postalCode":"75266-0044","country":"USA"}]},"request":{"method":"PUT","url":"Organization/9e9b3f13-a353-4173-b29b-947d6f1f2031"}},{"fullUrl":"https://madie.cms.gov/MeasureReport/a0e77229-d63b-40b4-991b-894018953a63","resource":{"resourceType":"MeasureReport","id":"a0e77229-d63b-40b4-991b-894018953a63","meta":{"profile":["http://hl7.org/fhir/us/cqfmeasures/StructureDefinition/test-case-cqfm"]},"contained":[{"resourceType":"Parameters","id":"2284f2a2-319f-4302-b794-675700fd55f6-parameters","parameter":[{"name":"subject","valueString":"96266910-a2b3-4294-9dc5-8a812622b70b"}]}],"extension":[{"url":"http://hl7.org/fhir/us/cqfmeasures/StructureDefinition/cqfm-inputParameters","valueReference":{"reference":"#2284f2a2-319f-4302-b794-675700fd55f6-parameters"}},{"url":"http://hl7.org/fhir/us/cqfmeasures/StructureDefinition/cqfm-testCaseDescription","valueMarkdown":"Patient receives TPA after end of IP encounter\n"}],"modifierExtension":[{"url":"http://hl7.org/fhir/us/cqfmeasures/StructureDefinition/cqfm-isTestCase","valueBoolean":true}],"status":"complete","type":"individual","measure":"https://madie.cms.gov/Measure/CMS72FHIRSTKAntithromboticDay2","period":{"start":"2026-01-01","end":"2026-12-31"},"group":[{"population":[{"code":{"coding":[{"system":"http://terminology.hl7.org/CodeSystem/measure-population","code":"initial-population","display":"Initial Population"}]},"count":1},{"code":{"coding":[{"system":"http://terminology.hl7.org/CodeSystem/measure-population","code":"denominator","display":"Denominator"}]},"count":1},{"code":{"coding":[{"system":"http://terminology.hl7.org/CodeSystem/measure-population","code":"denominator-exclusion","display":"Denominator Exclusion"}]},"count":0},{"code":{"coding":[{"system":"http://terminology.hl7.org/CodeSystem/measure-population","code":"numerator","display":"Numerator"}]},"count":0},{"code":{"coding":[{"system":"http://terminology.hl7.org/CodeSystem/measure-population","code":"denominator-exception","display":"Denominator Exception"}]},"count":0}]}]},"request":{"method":"PUT","url":"MeasureReport/a0e77229-d63b-40b4-991b-894018953a63"}}]}