{"resourceType":"Bundle","id":"tests-c1ee2b07-f5a7-451c-8bc5-cb97b1cbcca2-bundle","type":"transaction","entry":[{"fullUrl":"https://madie.cms.gov/Patient/c1ee2b07-f5a7-451c-8bc5-cb97b1cbcca2","resource":{"resourceType":"Patient","id":"c1ee2b07-f5a7-451c-8bc5-cb97b1cbcca2","meta":{"profile":["http://hl7.org/fhir/us/qicore/StructureDefinition/qicore-patient"]},"text":{"status":"generated","div":"<div xmlns=\"http://www.w3.org/1999/xhtml\"><div class=\"hapiHeaderText\">MedOrdMedReason_gt1dayduringEncIPwEd <b>DENEXCEPFAIL </b></div><table class=\"hapiPropertyTable\"><tbody><tr><td>Identifier</td><td>d63fda8a0fb72cd195317700f701d509</td></tr><tr><td>Date of birth</td><td><span>26 September 1975</span></td></tr></tbody></table></div>"},"extension":[{"url":"http://hl7.org/fhir/us/core/StructureDefinition/us-core-race","extension":[{"url":"ombCategory","valueCoding":{"system":"urn:oid:2.16.840.1.113883.6.238","code":"2054-5","display":"Black or African American","userSelected":true}},{"url":"text","valueString":"Black or African American"}]},{"url":"http://hl7.org/fhir/us/core/StructureDefinition/us-core-ethnicity","extension":[{"url":"ombCategory","valueCoding":{"system":"urn:oid:2.16.840.1.113883.6.238","code":"2186-5","display":"Not Hispanic or Latino","userSelected":true}},{"url":"text","valueString":"Not Hispanic or Latino"}]}],"identifier":[{"type":{"coding":[{"system":"http://terminology.hl7.org/CodeSystem/v2-0203","code":"MR"}]},"system":"https://bonnie-fhir.healthit.gov/","value":"60f82c2e98086b570510e272"}],"name":[{"use":"usual","family":"DENEXCEPFail","given":["MedOrdMedReason_gt1dayduringEncIPwEd"]}],"gender":"female","birthDate":"1976-09-26"},"request":{"method":"PUT","url":"Patient/c1ee2b07-f5a7-451c-8bc5-cb97b1cbcca2"}},{"fullUrl":"https://madie.cms.gov/Encounter/d14e673e-2895-4de0-872e-667e8b7bd0a6","resource":{"resourceType":"Encounter","id":"d14e673e-2895-4de0-872e-667e8b7bd0a6","meta":{"profile":["http://hl7.org/fhir/us/qicore/StructureDefinition/qicore-encounter"]},"status":"finished","class":{"system":"http://terminology.hl7.org/CodeSystem/v3-ActCode","code":"EMER","display":"emergency","userSelected":true},"type":[{"coding":[{"system":"http://snomed.info/sct","code":"4525004"}]}],"subject":{"reference":"Patient/c1ee2b07-f5a7-451c-8bc5-cb97b1cbcca2"},"period":{"start":"2026-10-10T08:00:00.000+00:00","end":"2026-10-10T08:15:00.000+00:00"},"length":{"value":0,"unit":"days"}},"request":{"method":"PUT","url":"Encounter/d14e673e-2895-4de0-872e-667e8b7bd0a6"}},{"fullUrl":"https://madie.cms.gov/Encounter/8b4c3c53-7f85-4cb8-aa7c-535b10f1ce94","resource":{"resourceType":"Encounter","id":"8b4c3c53-7f85-4cb8-aa7c-535b10f1ce94","meta":{"profile":["http://hl7.org/fhir/us/qicore/StructureDefinition/qicore-encounter"]},"status":"finished","class":{"system":"http://terminology.hl7.org/CodeSystem/v3-ActCode","code":"IMP","display":"inpatient encounter","userSelected":true},"type":[{"coding":[{"system":"http://snomed.info/sct","code":"32485007"}]}],"subject":{"reference":"Patient/c1ee2b07-f5a7-451c-8bc5-cb97b1cbcca2"},"period":{"start":"2026-10-10T09:00:00.000+00:00","end":"2026-10-12T11:15:00.000+00:00"},"length":{"value":2,"unit":"days"},"diagnosis":[{"condition":{"reference":"Condition/0372ebe6-908e-4d37-98b5-49214ca6675d"},"use":{"coding":[{"system":"http://terminology.hl7.org/CodeSystem/diagnosis-role","code":"billing","display":"Billing"}]},"rank":1}]},"request":{"method":"PUT","url":"Encounter/8b4c3c53-7f85-4cb8-aa7c-535b10f1ce94"}},{"fullUrl":"https://madie.cms.gov/MedicationRequest/f6a8b7d0-aadf-46c0-bbb8-3f4ae7521e61","resource":{"resourceType":"MedicationRequest","id":"f6a8b7d0-aadf-46c0-bbb8-3f4ae7521e61","meta":{"profile":["http://hl7.org/fhir/us/qicore/StructureDefinition/qicore-mednotrequested"]},"status":"completed","intent":"order","category":[{"coding":[{"system":"http://terminology.hl7.org/CodeSystem/medicationrequest-category","code":"community"}]}],"doNotPerform":true,"medicationCodeableConcept":{"coding":[{"system":"http://www.nlm.nih.gov/research/umls/rxnorm","code":"1037045"}]},"subject":{"reference":"Patient/c1ee2b07-f5a7-451c-8bc5-cb97b1cbcca2"},"authoredOn":"2026-10-12T11:00:00.000+00:00","requester":{"reference":"Practitioner/example"},"reasonCode":[{"coding":[{"system":"http://snomed.info/sct","code":"183932001","display":"Procedure contraindicated (situation)","userSelected":true}]}],"dosageInstruction":[{"timing":{"repeat":{"boundsPeriod":{"start":"2026-10-12T11:00:00.000+00:00"}}}}]},"request":{"method":"PUT","url":"MedicationRequest/f6a8b7d0-aadf-46c0-bbb8-3f4ae7521e61"}},{"fullUrl":"https://madie.cms.gov/Coverage/18937a9f-6a93-4787-bb20-6c40fc5125b6","resource":{"resourceType":"Coverage","id":"18937a9f-6a93-4787-bb20-6c40fc5125b6","status":"active","beneficiary":{"reference":"Patient/c1ee2b07-f5a7-451c-8bc5-cb97b1cbcca2"},"period":{"start":"1976-09-26T08:00:00+00:00"},"payor":[{"reference":"Organization/3e899f33-84eb-4634-a770-a5a0bd7a80e7"}]},"request":{"method":"PUT","url":"Coverage/18937a9f-6a93-4787-bb20-6c40fc5125b6"}},{"fullUrl":"https://madie.cms.gov/Condition/0372ebe6-908e-4d37-98b5-49214ca6675d","resource":{"resourceType":"Condition","id":"0372ebe6-908e-4d37-98b5-49214ca6675d","meta":{"profile":["http://hl7.org/fhir/us/qicore/StructureDefinition/qicore-condition"]},"clinicalStatus":{"coding":[{"system":"http://terminology.hl7.org/CodeSystem/condition-clinical","code":"active"}]},"verificationStatus":{"coding":[{"system":"http://terminology.hl7.org/CodeSystem/condition-ver-status","code":"confirmed"}]},"category":[{"coding":[{"system":"http://terminology.hl7.org/CodeSystem/condition-category","code":"encounter-diagnosis","display":"Encounter Diagnosis"}]}],"code":{"coding":[{"system":"http://snomed.info/sct","version":"2020-09","code":"111297002","display":"Nonparalytic stroke (disorder)","userSelected":true}]},"subject":{"reference":"Patient/c1ee2b07-f5a7-451c-8bc5-cb97b1cbcca2"},"recordedDate":"2026-07-28T08:00:00.000+00:00"},"request":{"method":"PUT","url":"Condition/0372ebe6-908e-4d37-98b5-49214ca6675d"}},{"fullUrl":"https://madie.cms.gov/Organization/7bb66c9d-27f7-4741-8ed6-e2c5e184e211","resource":{"resourceType":"Organization","id":"3e899f33-84eb-4634-a770-a5a0bd7a80e7","meta":{"profile":["http://hl7.org/fhir/us/qicore/StructureDefinition/qicore-organization"]},"identifier":[{"use":"temp","system":"urn:oid:2.16.840.1.113883.4.4","value":"21-3259825"}],"active":true,"type":[{"coding":[{"system":"http://terminology.hl7.org/CodeSystem/organization-type","code":"pay","display":"Payer"}]}],"name":"Blue Cross Blue Shield of Texas","telecom":[{"system":"phone","value":"(+1) 972-766-6900"}],"address":[{"use":"billing","type":"postal","line":["P.O. Box 660044"],"city":"Dallas","state":"TX","postalCode":"75266-0044","country":"USA"}]},"request":{"method":"PUT","url":"Organization/3e899f33-84eb-4634-a770-a5a0bd7a80e7"}},{"fullUrl":"https://madie.cms.gov/MeasureReport/9b9625cb-3d6e-4431-8e9e-44900cc7d17b","resource":{"resourceType":"MeasureReport","id":"9b9625cb-3d6e-4431-8e9e-44900cc7d17b","meta":{"profile":["http://hl7.org/fhir/us/cqfmeasures/StructureDefinition/test-case-cqfm"]},"contained":[{"resourceType":"Parameters","id":"e7f5171f-c49e-4a21-ad68-17df7a35f43a-parameters","parameter":[{"name":"subject","valueString":"c1ee2b07-f5a7-451c-8bc5-cb97b1cbcca2"}]}],"extension":[{"url":"http://hl7.org/fhir/us/cqfmeasures/StructureDefinition/cqfm-inputParameters","valueReference":{"reference":"#e7f5171f-c49e-4a21-ad68-17df7a35f43a-parameters"}},{"url":"http://hl7.org/fhir/us/cqfmeasures/StructureDefinition/cqfm-testCaseDescription","valueMarkdown":"ED visit AND antithrombotic is not ordered due to medical reason but > 1 day after start of ED visit,  global.\"Hospitalization\" =(Ed+IP)\n"}],"modifierExtension":[{"url":"http://hl7.org/fhir/us/cqfmeasures/StructureDefinition/cqfm-isTestCase","valueBoolean":true}],"status":"complete","type":"individual","measure":"https://madie.cms.gov/Measure/CMS72FHIRSTKAntithromboticDay2","period":{"start":"2026-01-01","end":"2026-12-31"},"group":[{"population":[{"code":{"coding":[{"system":"http://terminology.hl7.org/CodeSystem/measure-population","code":"initial-population","display":"Initial Population"}]},"count":1},{"code":{"coding":[{"system":"http://terminology.hl7.org/CodeSystem/measure-population","code":"denominator","display":"Denominator"}]},"count":1},{"code":{"coding":[{"system":"http://terminology.hl7.org/CodeSystem/measure-population","code":"denominator-exclusion","display":"Denominator Exclusion"}]},"count":0},{"code":{"coding":[{"system":"http://terminology.hl7.org/CodeSystem/measure-population","code":"numerator","display":"Numerator"}]},"count":0},{"code":{"coding":[{"system":"http://terminology.hl7.org/CodeSystem/measure-population","code":"denominator-exception","display":"Denominator Exception"}]},"count":0}]}]},"request":{"method":"PUT","url":"MeasureReport/9b9625cb-3d6e-4431-8e9e-44900cc7d17b"}}]}