{"resourceType":"Bundle","id":"tests-a5feebb4-d3c0-4435-aed5-9579b75a8a52-bundle","type":"transaction","entry":[{"fullUrl":"https://madie.cms.gov/Patient/a5feebb4-d3c0-4435-aed5-9579b75a8a52","resource":{"resourceType":"Patient","id":"a5feebb4-d3c0-4435-aed5-9579b75a8a52","meta":{"profile":["http://hl7.org/fhir/us/qicore/StructureDefinition/qicore-patient"]},"text":{"status":"generated","div":"<div xmlns=\"http://www.w3.org/1999/xhtml\"><div class=\"hapiHeaderText\">LOS=2DaysNoED <b>DENEXFAIL </b></div><table class=\"hapiPropertyTable\"><tbody><tr><td>Identifier</td><td>6983b1628854f0699e341e1d182d73e4</td></tr><tr><td>Date of birth</td><td><span>20 August 1994</span></td></tr></tbody></table></div>"},"extension":[{"url":"http://hl7.org/fhir/us/core/StructureDefinition/us-core-race","extension":[{"url":"ombCategory","valueCoding":{"system":"urn:oid:2.16.840.1.113883.6.238","code":"1002-5","display":"American Indian or Alaska Native","userSelected":true}},{"url":"text","valueString":"American Indian or Alaska Native"}]},{"url":"http://hl7.org/fhir/us/core/StructureDefinition/us-core-ethnicity","extension":[{"url":"ombCategory","valueCoding":{"system":"urn:oid:2.16.840.1.113883.6.238","code":"2135-2","display":"Hispanic or Latino","userSelected":true}},{"url":"text","valueString":"Hispanic or Latino"}]}],"identifier":[{"type":{"coding":[{"system":"http://terminology.hl7.org/CodeSystem/v2-0203","code":"MR"}]},"system":"https://bonnie-fhir.healthit.gov/","value":"60f82c2d98086b570510e255"}],"active":true,"name":[{"use":"usual","family":"DENEXFail","given":["LOS=2DaysNoED"]}],"gender":"male","birthDate":"1995-08-20"},"request":{"method":"PUT","url":"Patient/a5feebb4-d3c0-4435-aed5-9579b75a8a52"}},{"fullUrl":"https://madie.cms.gov/Encounter/a83d8623-9a53-4a67-8498-dfefa24c87f8","resource":{"resourceType":"Encounter","id":"a83d8623-9a53-4a67-8498-dfefa24c87f8","meta":{"profile":["http://hl7.org/fhir/us/qicore/StructureDefinition/qicore-encounter"]},"status":"finished","class":{"system":"http://terminology.hl7.org/CodeSystem/v3-ActCode","code":"IMP","display":"inpatient encounter","userSelected":true},"type":[{"coding":[{"system":"http://snomed.info/sct","code":"32485007"}]}],"subject":{"reference":"Patient/a5feebb4-d3c0-4435-aed5-9579b75a8a52"},"period":{"start":"2026-08-21T00:00:00+00:00","end":"2026-08-23T12:00:00+00:00"},"length":{"value":2,"unit":"days"},"diagnosis":[{"condition":{"reference":"Condition/005239a7-db2c-4dd0-9d04-3f0334fe2502"},"use":{"coding":[{"system":"http://terminology.hl7.org/CodeSystem/diagnosis-role","code":"billing","display":"Billing"}]},"rank":1}]},"request":{"method":"PUT","url":"Encounter/a83d8623-9a53-4a67-8498-dfefa24c87f8"}},{"fullUrl":"https://madie.cms.gov/Coverage/2bc377b9-aa71-4f4a-aac7-5c312b674083","resource":{"resourceType":"Coverage","id":"2bc377b9-aa71-4f4a-aac7-5c312b674083","status":"active","beneficiary":{"reference":"Patient/a5feebb4-d3c0-4435-aed5-9579b75a8a52"},"period":{"start":"1995-08-20T07:00:00+00:00"},"payor":[{"reference":"Organization/80e3e0d1-b2aa-43a6-b1d2-00bfa3164a0f"}]},"request":{"method":"PUT","url":"Coverage/2bc377b9-aa71-4f4a-aac7-5c312b674083"}},{"fullUrl":"https://madie.cms.gov/Condition/005239a7-db2c-4dd0-9d04-3f0334fe2502","resource":{"resourceType":"Condition","id":"005239a7-db2c-4dd0-9d04-3f0334fe2502","meta":{"profile":["http://hl7.org/fhir/us/qicore/StructureDefinition/qicore-condition"]},"clinicalStatus":{"coding":[{"system":"http://terminology.hl7.org/CodeSystem/condition-clinical","code":"active"}]},"verificationStatus":{"coding":[{"system":"http://terminology.hl7.org/CodeSystem/condition-ver-status","code":"confirmed"}]},"category":[{"coding":[{"system":"http://terminology.hl7.org/CodeSystem/condition-category","code":"encounter-diagnosis","display":"Encounter Diagnosis"}]}],"code":{"coding":[{"system":"http://snomed.info/sct","version":"2020-09","code":"111297002","display":"Nonparalytic stroke (disorder)","userSelected":true}]},"subject":{"reference":"Patient/a5feebb4-d3c0-4435-aed5-9579b75a8a52"},"recordedDate":"2026-08-12T08:00:00.000+00:00"},"request":{"method":"PUT","url":"Condition/005239a7-db2c-4dd0-9d04-3f0334fe2502"}},{"fullUrl":"https://madie.cms.gov/Organization/4838fd8a-0ac4-4613-bd79-a4d873ebd790","resource":{"resourceType":"Organization","id":"80e3e0d1-b2aa-43a6-b1d2-00bfa3164a0f","meta":{"profile":["http://hl7.org/fhir/us/qicore/StructureDefinition/qicore-organization"]},"identifier":[{"use":"temp","system":"urn:oid:2.16.840.1.113883.4.4","value":"21-3259825"}],"active":true,"type":[{"coding":[{"system":"http://terminology.hl7.org/CodeSystem/organization-type","code":"pay","display":"Payer"}]}],"name":"Blue Cross Blue Shield of Texas","telecom":[{"system":"phone","value":"(+1) 972-766-6900"}],"address":[{"use":"billing","type":"postal","line":["P.O. Box 660044"],"city":"Dallas","state":"TX","postalCode":"75266-0044","country":"USA"}]},"request":{"method":"PUT","url":"Organization/80e3e0d1-b2aa-43a6-b1d2-00bfa3164a0f"}},{"fullUrl":"https://madie.cms.gov/MeasureReport/e8cda5ed-3beb-4ebe-901c-c84627e78d4d","resource":{"resourceType":"MeasureReport","id":"e8cda5ed-3beb-4ebe-901c-c84627e78d4d","meta":{"profile":["http://hl7.org/fhir/us/cqfmeasures/StructureDefinition/test-case-cqfm"]},"contained":[{"resourceType":"Parameters","id":"6d826a02-3a21-4976-844a-3862251dd035-parameters","parameter":[{"name":"subject","valueString":"a5feebb4-d3c0-4435-aed5-9579b75a8a52"}]}],"extension":[{"url":"http://hl7.org/fhir/us/cqfmeasures/StructureDefinition/cqfm-inputParameters","valueReference":{"reference":"#6d826a02-3a21-4976-844a-3862251dd035-parameters"}},{"url":"http://hl7.org/fhir/us/cqfmeasures/StructureDefinition/cqfm-testCaseDescription","valueMarkdown":"\"Patient has LOS = 2 days AND without an ED Visit , \nglobal.Hospitalization( =Enc IP)\"\n"}],"modifierExtension":[{"url":"http://hl7.org/fhir/us/cqfmeasures/StructureDefinition/cqfm-isTestCase","valueBoolean":true}],"status":"complete","type":"individual","measure":"https://madie.cms.gov/Measure/CMS72FHIRSTKAntithromboticDay2","period":{"start":"2026-01-01","end":"2026-12-31"},"group":[{"population":[{"code":{"coding":[{"system":"http://terminology.hl7.org/CodeSystem/measure-population","code":"initial-population","display":"Initial Population"}]},"count":1},{"code":{"coding":[{"system":"http://terminology.hl7.org/CodeSystem/measure-population","code":"denominator","display":"Denominator"}]},"count":1},{"code":{"coding":[{"system":"http://terminology.hl7.org/CodeSystem/measure-population","code":"denominator-exclusion","display":"Denominator Exclusion"}]},"count":0},{"code":{"coding":[{"system":"http://terminology.hl7.org/CodeSystem/measure-population","code":"numerator","display":"Numerator"}]},"count":0},{"code":{"coding":[{"system":"http://terminology.hl7.org/CodeSystem/measure-population","code":"denominator-exception","display":"Denominator Exception"}]},"count":0}]}]},"request":{"method":"PUT","url":"MeasureReport/e8cda5ed-3beb-4ebe-901c-c84627e78d4d"}}]}