{"resourceType":"Bundle","id":"tests-9843e92a-751f-4b3c-86b8-50397a64c8fd-bundle","type":"transaction","entry":[{"fullUrl":"https://madie.cms.gov/Patient/9843e92a-751f-4b3c-86b8-50397a64c8fd","resource":{"resourceType":"Patient","id":"9843e92a-751f-4b3c-86b8-50397a64c8fd","meta":{"profile":["http://hl7.org/fhir/us/qicore/StructureDefinition/qicore-patient"]},"text":{"status":"generated","div":"<div xmlns=\"http://www.w3.org/1999/xhtml\"><div class=\"hapiHeaderText\">INRDayOfObs_ED&lt;1hrDayOfObs&lt;1hrDayAftBFEncDayAft <b>DENEXCEPASS </b></div><table class=\"hapiPropertyTable\"><tbody><tr><td>Identifier</td><td>e43c076b9afcb907f634df4ae6afd4d155fdd8ea59212e07cc71af3a9ba2e49c</td></tr><tr><td>Date of birth</td><td><span>26 September 1975</span></td></tr></tbody></table></div>"},"extension":[{"url":"http://hl7.org/fhir/us/core/StructureDefinition/us-core-race","extension":[{"url":"ombCategory","valueCoding":{"system":"urn:oid:2.16.840.1.113883.6.238","code":"2054-5","display":"Black or African American","userSelected":true}},{"url":"text","valueString":"Black or African American"}]},{"url":"http://hl7.org/fhir/us/core/StructureDefinition/us-core-ethnicity","extension":[{"url":"ombCategory","valueCoding":{"system":"urn:oid:2.16.840.1.113883.6.238","code":"2186-5","display":"Not Hispanic or Latino","userSelected":true}},{"url":"text","valueString":"Not Hispanic or Latino"}]}],"identifier":[{"type":{"coding":[{"system":"http://terminology.hl7.org/CodeSystem/v2-0203","code":"MR"}]},"system":"https://bonnie-fhir.healthit.gov/","value":"60f82c2f98086b570510e2ad"}],"active":true,"name":[{"use":"usual","family":"DENEXCEPass","given":["INRDayOfObs_ED<1hrDayOfObs<1hrDayAftBFEncDayAft"]}],"gender":"female","birthDate":"1976-09-26"},"request":{"method":"PUT","url":"Patient/9843e92a-751f-4b3c-86b8-50397a64c8fd"}},{"fullUrl":"https://madie.cms.gov/Encounter/8397c13a-01c1-43b1-86c7-f216db08be30","resource":{"resourceType":"Encounter","id":"8397c13a-01c1-43b1-86c7-f216db08be30","meta":{"profile":["http://hl7.org/fhir/us/qicore/StructureDefinition/qicore-encounter"]},"status":"finished","class":{"system":"http://terminology.hl7.org/CodeSystem/v3-ActCode","code":"EMER","display":"emergency","userSelected":true},"type":[{"coding":[{"system":"http://snomed.info/sct","code":"4525004"}]}],"subject":{"reference":"Patient/9843e92a-751f-4b3c-86b8-50397a64c8fd"},"period":{"start":"2026-10-10T06:15:00+00:00","end":"2026-10-10T23:59:00+00:00"},"length":{"value":0,"unit":"days"}},"request":{"method":"PUT","url":"Encounter/8397c13a-01c1-43b1-86c7-f216db08be30"}},{"fullUrl":"https://madie.cms.gov/Encounter/05ff4db2-a373-460c-9b77-b1919ed5b460","resource":{"resourceType":"Encounter","id":"05ff4db2-a373-460c-9b77-b1919ed5b460","meta":{"profile":["http://hl7.org/fhir/us/qicore/StructureDefinition/qicore-encounter"]},"status":"finished","class":{"system":"http://terminology.hl7.org/CodeSystem/v3-ActCode","code":"OBSENC","display":"observation encounter","userSelected":true},"type":[{"coding":[{"system":"http://snomed.info/sct","code":"448851000124103"}]}],"subject":{"reference":"Patient/9843e92a-751f-4b3c-86b8-50397a64c8fd"},"period":{"start":"2026-10-11T00:00:00+00:00","end":"2026-10-11T00:59:00+00:00"},"length":{"value":0,"unit":"days"}},"request":{"method":"PUT","url":"Encounter/05ff4db2-a373-460c-9b77-b1919ed5b460"}},{"fullUrl":"https://madie.cms.gov/Encounter/7853ea48-ac4f-4922-8405-943155df2d7c","resource":{"resourceType":"Encounter","id":"7853ea48-ac4f-4922-8405-943155df2d7c","meta":{"profile":["http://hl7.org/fhir/us/qicore/StructureDefinition/qicore-encounter"]},"status":"finished","class":{"system":"http://terminology.hl7.org/CodeSystem/v3-ActCode","code":"IMP","display":"inpatient encounter","userSelected":true},"type":[{"coding":[{"system":"http://snomed.info/sct","code":"32485007"}]}],"subject":{"reference":"Patient/9843e92a-751f-4b3c-86b8-50397a64c8fd"},"period":{"start":"2026-10-11T01:00:00+00:00","end":"2026-10-15T11:30:00+00:00"},"length":{"value":4,"unit":"days"},"diagnosis":[{"condition":{"reference":"Condition/122a2663-e1b2-4dba-a675-f3056c0bd32c"},"use":{"coding":[{"system":"http://terminology.hl7.org/CodeSystem/diagnosis-role","code":"billing","display":"Billing"}]},"rank":1}]},"request":{"method":"PUT","url":"Encounter/7853ea48-ac4f-4922-8405-943155df2d7c"}},{"fullUrl":"https://madie.cms.gov/Observation/42e9aed3-c192-45c0-b8a8-dde5fdd25c4d","resource":{"resourceType":"Observation","id":"42e9aed3-c192-45c0-b8a8-dde5fdd25c4d","meta":{"profile":["http://hl7.org/fhir/us/qicore/StructureDefinition/qicore-observation"]},"status":"final","category":[{"coding":[{"system":"http://terminology.hl7.org/CodeSystem/observation-category","code":"laboratory","display":"Laboratory"}]}],"code":{"coding":[{"system":"http://loinc.org","code":"34714-6"}]},"subject":{"reference":"Patient/9843e92a-751f-4b3c-86b8-50397a64c8fd"},"effectivePeriod":{"start":"2026-10-11T08:00:00+00:00"},"issued":"2026-10-11T00:01:00.000+00:00","valueQuantity":{"value":3.6}},"request":{"method":"PUT","url":"Observation/42e9aed3-c192-45c0-b8a8-dde5fdd25c4d"}},{"fullUrl":"https://madie.cms.gov/Coverage/b642007d-4ee7-43b6-9729-194e6b6fbc60","resource":{"resourceType":"Coverage","id":"b642007d-4ee7-43b6-9729-194e6b6fbc60","status":"active","beneficiary":{"reference":"Patient/9843e92a-751f-4b3c-86b8-50397a64c8fd"},"period":{"start":"1976-09-26T08:00:00+00:00"},"payor":[{"reference":"Organization/890316dc-a4ad-43b4-ba6f-9fb9e6eca282"}]},"request":{"method":"PUT","url":"Coverage/b642007d-4ee7-43b6-9729-194e6b6fbc60"}},{"fullUrl":"https://madie.cms.gov/Condition/122a2663-e1b2-4dba-a675-f3056c0bd32c","resource":{"resourceType":"Condition","id":"122a2663-e1b2-4dba-a675-f3056c0bd32c","meta":{"profile":["http://hl7.org/fhir/us/qicore/StructureDefinition/qicore-condition"]},"clinicalStatus":{"coding":[{"system":"http://terminology.hl7.org/CodeSystem/condition-clinical","code":"active"}]},"verificationStatus":{"coding":[{"system":"http://terminology.hl7.org/CodeSystem/condition-ver-status","code":"confirmed"}]},"category":[{"coding":[{"system":"http://terminology.hl7.org/CodeSystem/condition-category","code":"encounter-diagnosis","display":"Encounter Diagnosis"}]}],"code":{"coding":[{"system":"http://snomed.info/sct","version":"2020-09","code":"111297002","display":"Nonparalytic stroke (disorder)","userSelected":true}]},"subject":{"reference":"Patient/9843e92a-751f-4b3c-86b8-50397a64c8fd"},"recordedDate":"2026-08-06T08:00:00.000+00:00"},"request":{"method":"PUT","url":"Condition/122a2663-e1b2-4dba-a675-f3056c0bd32c"}},{"fullUrl":"https://madie.cms.gov/Organization/ed62461a-77d5-4979-9b87-0124b99dc3bd","resource":{"resourceType":"Organization","id":"890316dc-a4ad-43b4-ba6f-9fb9e6eca282","meta":{"profile":["http://hl7.org/fhir/us/qicore/StructureDefinition/qicore-organization"]},"identifier":[{"use":"temp","system":"urn:oid:2.16.840.1.113883.4.4","value":"21-3259825"}],"active":true,"type":[{"coding":[{"system":"http://terminology.hl7.org/CodeSystem/organization-type","code":"pay","display":"Payer"}]}],"name":"Blue Cross Blue Shield of Texas","telecom":[{"system":"phone","value":"(+1) 972-766-6900"}],"address":[{"use":"billing","type":"postal","line":["P.O. Box 660044"],"city":"Dallas","state":"TX","postalCode":"75266-0044","country":"USA"}]},"request":{"method":"PUT","url":"Organization/890316dc-a4ad-43b4-ba6f-9fb9e6eca282"}},{"fullUrl":"https://madie.cms.gov/MeasureReport/837b7934-1d9f-43b8-90c5-d8f25ca59438","resource":{"resourceType":"MeasureReport","id":"837b7934-1d9f-43b8-90c5-d8f25ca59438","meta":{"profile":["http://hl7.org/fhir/us/cqfmeasures/StructureDefinition/test-case-cqfm"]},"contained":[{"resourceType":"Parameters","id":"9ad7a3d7-0a10-4d22-8c81-307bfffc9150-parameters","parameter":[{"name":"subject","valueString":"9843e92a-751f-4b3c-86b8-50397a64c8fd"}]}],"extension":[{"url":"http://hl7.org/fhir/us/cqfmeasures/StructureDefinition/cqfm-inputParameters","valueReference":{"reference":"#9ad7a3d7-0a10-4d22-8c81-307bfffc9150-parameters"}},{"url":"http://hl7.org/fhir/us/cqfmeasures/StructureDefinition/cqfm-testCaseDescription","valueMarkdown":"Patient receives INR day of Obs, ED ends 1 min before Obs start at midnight, Obs ends 1 min before IP start. Testing Day of operator with HospitalizationWithObservation function.\n"}],"modifierExtension":[{"url":"http://hl7.org/fhir/us/cqfmeasures/StructureDefinition/cqfm-isTestCase","valueBoolean":true}],"status":"complete","type":"individual","measure":"https://madie.cms.gov/Measure/CMS72FHIRSTKAntithromboticDay2","period":{"start":"2026-01-01","end":"2026-12-31"},"group":[{"population":[{"code":{"coding":[{"system":"http://terminology.hl7.org/CodeSystem/measure-population","code":"initial-population","display":"Initial Population"}]},"count":1},{"code":{"coding":[{"system":"http://terminology.hl7.org/CodeSystem/measure-population","code":"denominator","display":"Denominator"}]},"count":1},{"code":{"coding":[{"system":"http://terminology.hl7.org/CodeSystem/measure-population","code":"denominator-exclusion","display":"Denominator Exclusion"}]},"count":0},{"code":{"coding":[{"system":"http://terminology.hl7.org/CodeSystem/measure-population","code":"numerator","display":"Numerator"}]},"count":0},{"code":{"coding":[{"system":"http://terminology.hl7.org/CodeSystem/measure-population","code":"denominator-exception","display":"Denominator Exception"}]},"count":1}]}]},"request":{"method":"PUT","url":"MeasureReport/837b7934-1d9f-43b8-90c5-d8f25ca59438"}}]}