{"resourceType":"Bundle","id":"tests-91c80186-6eab-4021-b80d-03aa63b6eaa0-bundle","type":"transaction","entry":[{"fullUrl":"https://madie.cms.gov/Patient/91c80186-6eab-4021-b80d-03aa63b6eaa0","resource":{"resourceType":"Patient","id":"91c80186-6eab-4021-b80d-03aa63b6eaa0","meta":{"profile":["http://hl7.org/fhir/us/qicore/StructureDefinition/qicore-patient"]},"text":{"status":"generated","div":"<div xmlns=\"http://www.w3.org/1999/xhtml\"><div class=\"hapiHeaderText\">CMP_DayOf_RelvDat_1minAftIPStart_EDEndLT1hrB4Obs_ObsEndLT1hrB4IP <b>DENEXPASS </b></div><table class=\"hapiPropertyTable\"><tbody><tr><td>Date of birth</td><td><span>01 January 1980</span></td></tr></tbody></table></div>"},"extension":[{"url":"http://hl7.org/fhir/us/core/StructureDefinition/us-core-race","extension":[{"url":"ombCategory","valueCoding":{"system":"urn:oid:2.16.840.1.113883.6.238","code":"2106-3","display":"White","userSelected":true}},{"url":"text","valueString":"White"}]},{"url":"http://hl7.org/fhir/us/core/StructureDefinition/us-core-ethnicity","extension":[{"url":"ombCategory","valueCoding":{"system":"urn:oid:2.16.840.1.113883.6.238","code":"2186-5","display":"Not Hispanic or Latino","userSelected":true}},{"url":"text","valueString":"Not Hispanic or Latino"}]}],"identifier":[{"type":{"coding":[{"system":"http://terminology.hl7.org/CodeSystem/v2-0203","code":"MR"}]},"system":"https://bonnie-fhir.healthit.gov/","value":"60f82c3098086b570510e2e0"}],"active":true,"name":[{"use":"usual","family":"DENEXPass","given":["CMP_DayOf_RelvDat_1minAftIPStart_EDEndLT1hrB4Obs_ObsEndLT1hrB4IP"]}],"gender":"female","birthDate":"1981-01-01"},"request":{"method":"PUT","url":"Patient/91c80186-6eab-4021-b80d-03aa63b6eaa0"}},{"fullUrl":"https://madie.cms.gov/Encounter/5362e700-a5a1-413c-915e-0610de6ea2a6","resource":{"resourceType":"Encounter","id":"5362e700-a5a1-413c-915e-0610de6ea2a6","meta":{"profile":["http://hl7.org/fhir/us/qicore/StructureDefinition/qicore-encounter"]},"status":"finished","class":{"system":"http://terminology.hl7.org/CodeSystem/v3-ActCode","code":"EMER","display":"emergency","userSelected":true},"type":[{"coding":[{"system":"http://snomed.info/sct","code":"4525004"}]}],"subject":{"reference":"Patient/91c80186-6eab-4021-b80d-03aa63b6eaa0"},"period":{"start":"2026-11-18T07:00:00+00:00","end":"2026-11-18T08:01:00+00:00"},"diagnosis":[{"condition":{"reference":"Condition/da959d75-42a8-4a04-b6ba-e715b22c5df7"},"use":{"coding":[{"system":"http://snomed.info/sct","code":"111297002","display":"Nonparalytic stroke (disorder)"}]},"rank":1}]},"request":{"method":"PUT","url":"Encounter/5362e700-a5a1-413c-915e-0610de6ea2a6"}},{"fullUrl":"https://madie.cms.gov/Encounter/14496437-36dd-4491-a5dd-ff09529c7184","resource":{"resourceType":"Encounter","id":"14496437-36dd-4491-a5dd-ff09529c7184","meta":{"profile":["http://hl7.org/fhir/us/qicore/StructureDefinition/qicore-encounter"]},"status":"finished","class":{"system":"http://terminology.hl7.org/CodeSystem/v3-ActCode","code":"OBSENC","display":"observation encounter","userSelected":true},"type":[{"coding":[{"system":"http://snomed.info/sct","code":"448951000124107"}]}],"subject":{"reference":"Patient/91c80186-6eab-4021-b80d-03aa63b6eaa0"},"period":{"start":"2026-11-18T09:00:00+00:00","end":"2026-11-18T10:01:00+00:00"}},"request":{"method":"PUT","url":"Encounter/14496437-36dd-4491-a5dd-ff09529c7184"}},{"fullUrl":"https://madie.cms.gov/Encounter/29b5fac0-c0d5-422a-bd00-45cc4a078c90","resource":{"resourceType":"Encounter","id":"29b5fac0-c0d5-422a-bd00-45cc4a078c90","meta":{"profile":["http://hl7.org/fhir/us/qicore/StructureDefinition/qicore-encounter"]},"status":"finished","class":{"system":"http://terminology.hl7.org/CodeSystem/v3-ActCode","code":"IMP","display":"inpatient encounter","userSelected":true},"type":[{"coding":[{"system":"http://snomed.info/sct","code":"183452005"}]}],"subject":{"reference":"Patient/91c80186-6eab-4021-b80d-03aa63b6eaa0"},"period":{"start":"2026-11-18T11:00:00+00:00","end":"2026-11-20T08:15:00+00:00"},"diagnosis":[{"condition":{"reference":"Condition/da959d75-42a8-4a04-b6ba-e715b22c5df7"},"use":{"coding":[{"system":"http://terminology.hl7.org/CodeSystem/diagnosis-role","code":"billing","display":"Billing"}]},"rank":1}]},"request":{"method":"PUT","url":"Encounter/29b5fac0-c0d5-422a-bd00-45cc4a078c90"}},{"fullUrl":"https://madie.cms.gov/Procedure/3c496788-feae-4d64-b87e-8c5eafadd190","resource":{"resourceType":"Procedure","id":"3c496788-feae-4d64-b87e-8c5eafadd190","meta":{"profile":["http://hl7.org/fhir/us/qicore/StructureDefinition/qicore-procedure"]},"extension":[{"url":"http://hl7.org/fhir/us/qicore/StructureDefinition/qicore-recorded","valueDateTime":"2026-11-18T11:01:00.000+00:00"}],"status":"completed","code":{"coding":[{"system":"http://snomed.info/sct","code":"133918004"}]},"subject":{"reference":"Patient/91c80186-6eab-4021-b80d-03aa63b6eaa0"},"performedDateTime":"2026-11-18T11:01:00.000+00:00"},"request":{"method":"PUT","url":"Procedure/3c496788-feae-4d64-b87e-8c5eafadd190"}},{"fullUrl":"https://madie.cms.gov/Condition/da959d75-42a8-4a04-b6ba-e715b22c5df7","resource":{"resourceType":"Condition","id":"da959d75-42a8-4a04-b6ba-e715b22c5df7","meta":{"profile":["http://hl7.org/fhir/us/qicore/StructureDefinition/qicore-condition"]},"clinicalStatus":{"coding":[{"system":"http://terminology.hl7.org/CodeSystem/condition-clinical","code":"active"}]},"verificationStatus":{"coding":[{"system":"http://terminology.hl7.org/CodeSystem/condition-ver-status","code":"confirmed"}]},"category":[{"coding":[{"system":"http://terminology.hl7.org/CodeSystem/condition-category","code":"encounter-diagnosis","display":"Encounter Diagnosis"}]}],"code":{"coding":[{"system":"http://snomed.info/sct","version":"2020-09","code":"111297002","display":"Nonparalytic stroke (disorder)","userSelected":true}]},"subject":{"reference":"Patient/91c80186-6eab-4021-b80d-03aa63b6eaa0"},"recordedDate":"2026-08-13T08:00:00.000+00:00"},"request":{"method":"PUT","url":"Condition/da959d75-42a8-4a04-b6ba-e715b22c5df7"}},{"fullUrl":"https://madie.cms.gov/Coverage/d237c8f8-14dd-4a75-bc68-b2d1f8490a24","resource":{"resourceType":"Coverage","id":"d237c8f8-14dd-4a75-bc68-b2d1f8490a24","meta":{"profile":["http://hl7.org/fhir/us/qicore/StructureDefinition/qicore-coverage"]},"status":"active","beneficiary":{"reference":"Patient/91c80186-6eab-4021-b80d-03aa63b6eaa0"},"payor":[{"reference":"Organization/9e9b3f13-a353-4173-b29b-947d6f1f2031"}]},"request":{"method":"PUT","url":"Coverage/d237c8f8-14dd-4a75-bc68-b2d1f8490a24"}},{"fullUrl":"https://madie.cms.gov/Organization/6f8f3823-ef74-4262-ae57-56a2c1b20ad3","resource":{"resourceType":"Organization","id":"9e9b3f13-a353-4173-b29b-947d6f1f2031","meta":{"profile":["http://hl7.org/fhir/us/qicore/StructureDefinition/qicore-organization"]},"identifier":[{"use":"temp","system":"urn:oid:2.16.840.1.113883.4.4","value":"21-3259825"}],"active":true,"type":[{"coding":[{"system":"http://terminology.hl7.org/CodeSystem/organization-type","code":"pay","display":"Payer"}]}],"name":"Blue Cross Blue Shield of Texas","telecom":[{"system":"phone","value":"(+1) 972-766-6900"}],"address":[{"use":"billing","type":"postal","line":["P.O. Box 660044"],"city":"Dallas","state":"TX","postalCode":"75266-0044","country":"USA"}]},"request":{"method":"PUT","url":"Organization/9e9b3f13-a353-4173-b29b-947d6f1f2031"}},{"fullUrl":"https://madie.cms.gov/MeasureReport/77f3042d-a46e-43e8-b975-003f2ec42397","resource":{"resourceType":"MeasureReport","id":"77f3042d-a46e-43e8-b975-003f2ec42397","meta":{"profile":["http://hl7.org/fhir/us/cqfmeasures/StructureDefinition/test-case-cqfm"]},"contained":[{"resourceType":"Parameters","id":"52c4e314-26ee-4549-9b3c-a2fa0cb3534d-parameters","parameter":[{"name":"subject","valueString":"91c80186-6eab-4021-b80d-03aa63b6eaa0"}]}],"extension":[{"url":"http://hl7.org/fhir/us/cqfmeasures/StructureDefinition/cqfm-inputParameters","valueReference":{"reference":"#52c4e314-26ee-4549-9b3c-a2fa0cb3534d-parameters"}},{"url":"http://hl7.org/fhir/us/cqfmeasures/StructureDefinition/cqfm-testCaseDescription","valueMarkdown":"Patient receives comfort measures performed on the day of hospital arrival, 1 min after IP start. ED ends less than 1 hour before Obs Start, Obs ends less than 1 hour before IP start.\n"}],"modifierExtension":[{"url":"http://hl7.org/fhir/us/cqfmeasures/StructureDefinition/cqfm-isTestCase","valueBoolean":true}],"status":"complete","type":"individual","measure":"https://madie.cms.gov/Measure/CMS72FHIRSTKAntithromboticDay2","period":{"start":"2026-01-01","end":"2026-12-31"},"group":[{"population":[{"code":{"coding":[{"system":"http://terminology.hl7.org/CodeSystem/measure-population","code":"initial-population","display":"Initial Population"}]},"count":1},{"code":{"coding":[{"system":"http://terminology.hl7.org/CodeSystem/measure-population","code":"denominator","display":"Denominator"}]},"count":1},{"code":{"coding":[{"system":"http://terminology.hl7.org/CodeSystem/measure-population","code":"denominator-exclusion","display":"Denominator Exclusion"}]},"count":1},{"code":{"coding":[{"system":"http://terminology.hl7.org/CodeSystem/measure-population","code":"numerator","display":"Numerator"}]},"count":0},{"code":{"coding":[{"system":"http://terminology.hl7.org/CodeSystem/measure-population","code":"denominator-exception","display":"Denominator Exception"}]},"count":0}]}]},"request":{"method":"PUT","url":"MeasureReport/77f3042d-a46e-43e8-b975-003f2ec42397"}}]}