{"resourceType":"Bundle","id":"tests-09e893a2-26c7-4b6c-8686-7dec938a1c36-bundle","type":"transaction","entry":[{"fullUrl":"https://madie.cms.gov/Patient/09e893a2-26c7-4b6c-8686-7dec938a1c36","resource":{"resourceType":"Patient","id":"09e893a2-26c7-4b6c-8686-7dec938a1c36","meta":{"profile":["http://hl7.org/fhir/us/qicore/StructureDefinition/qicore-patient"]},"text":{"status":"generated","div":"<div xmlns=\"http://www.w3.org/1999/xhtml\"><div class=\"hapiHeaderText\">CMP_DayOf_RelvPerStart_1minAftIPStart_EDEndLT1hrB4Obs_ObsEndLT1hrB4IP <b>DENEXPASS </b></div><table class=\"hapiPropertyTable\"><tbody><tr><td>Date of birth</td><td><span>01 January 1980</span></td></tr></tbody></table></div>"},"extension":[{"url":"http://hl7.org/fhir/us/core/StructureDefinition/us-core-race","extension":[{"url":"ombCategory","valueCoding":{"system":"urn:oid:2.16.840.1.113883.6.238","code":"2106-3","display":"White","userSelected":true}},{"url":"text","valueString":"White"}]},{"url":"http://hl7.org/fhir/us/core/StructureDefinition/us-core-ethnicity","extension":[{"url":"ombCategory","valueCoding":{"system":"urn:oid:2.16.840.1.113883.6.238","code":"2186-5","display":"Not Hispanic or Latino","userSelected":true}},{"url":"text","valueString":"Not Hispanic or Latino"}]}],"identifier":[{"type":{"coding":[{"system":"http://terminology.hl7.org/CodeSystem/v2-0203","code":"MR"}]},"system":"https://bonnie-fhir.healthit.gov/","value":"60f82c3098086b570510e2f0"}],"active":true,"name":[{"use":"usual","family":"DENEXPass","given":["CMP_DayOf_RelvPerStart_1minAftIPStart_EDEndLT1hrB4Obs_ObsEndLT1hrB4IP"]}],"gender":"female","birthDate":"1981-01-01"},"request":{"method":"PUT","url":"Patient/09e893a2-26c7-4b6c-8686-7dec938a1c36"}},{"fullUrl":"https://madie.cms.gov/Encounter/58aa9ddf-1ef9-4ed7-bd5a-a6e680a045d6","resource":{"resourceType":"Encounter","id":"58aa9ddf-1ef9-4ed7-bd5a-a6e680a045d6","meta":{"profile":["http://hl7.org/fhir/us/qicore/StructureDefinition/qicore-encounter"]},"status":"finished","class":{"system":"http://terminology.hl7.org/CodeSystem/v3-ActCode","code":"EMER","display":"emergency"},"type":[{"coding":[{"system":"http://snomed.info/sct","code":"4525004"}]}],"subject":{"reference":"Patient/09e893a2-26c7-4b6c-8686-7dec938a1c36"},"period":{"start":"2026-11-18T07:00:00+00:00","end":"2026-11-18T08:01:00+00:00"},"diagnosis":[{"condition":{"reference":"Condition/92a720ea-e46c-4618-b20e-7b7ff73fe474"},"use":{"coding":[{"system":"http://terminology.hl7.org/CodeSystem/diagnosis-role","code":"billing","display":"Billing"}]},"rank":1}]},"request":{"method":"PUT","url":"Encounter/58aa9ddf-1ef9-4ed7-bd5a-a6e680a045d6"}},{"fullUrl":"https://madie.cms.gov/Encounter/df4a8fb5-28ac-4013-8c0c-c682725b69fc","resource":{"resourceType":"Encounter","id":"df4a8fb5-28ac-4013-8c0c-c682725b69fc","meta":{"profile":["http://hl7.org/fhir/us/qicore/StructureDefinition/qicore-encounter"]},"status":"finished","class":{"system":"http://terminology.hl7.org/CodeSystem/v3-ActCode","code":"OBSENC","display":"observation encounter"},"type":[{"coding":[{"system":"http://snomed.info/sct","code":"448951000124107"}]}],"subject":{"reference":"Patient/09e893a2-26c7-4b6c-8686-7dec938a1c36"},"period":{"start":"2026-11-18T09:00:00+00:00","end":"2026-11-18T10:01:00+00:00"}},"request":{"method":"PUT","url":"Encounter/df4a8fb5-28ac-4013-8c0c-c682725b69fc"}},{"fullUrl":"https://madie.cms.gov/Encounter/5b6e446f-c462-4fce-8dbb-849ee7f3f0ba","resource":{"resourceType":"Encounter","id":"5b6e446f-c462-4fce-8dbb-849ee7f3f0ba","meta":{"profile":["http://hl7.org/fhir/us/qicore/StructureDefinition/qicore-encounter"]},"status":"finished","class":{"system":"http://terminology.hl7.org/CodeSystem/v3-ActCode","code":"IMP","display":"inpatient encounter"},"type":[{"coding":[{"system":"http://snomed.info/sct","code":"183452005"}]}],"subject":{"reference":"Patient/09e893a2-26c7-4b6c-8686-7dec938a1c36"},"period":{"start":"2026-11-18T11:00:00+00:00","end":"2026-11-20T08:15:00+00:00"},"diagnosis":[{"condition":{"reference":"Condition/92a720ea-e46c-4618-b20e-7b7ff73fe474"},"use":{"coding":[{"system":"http://terminology.hl7.org/CodeSystem/diagnosis-role","code":"billing","display":"Billing"}]},"rank":1}]},"request":{"method":"PUT","url":"Encounter/5b6e446f-c462-4fce-8dbb-849ee7f3f0ba"}},{"fullUrl":"https://madie.cms.gov/Procedure/af6c08e3-8008-4ee4-9d57-b1097187e4ba","resource":{"resourceType":"Procedure","id":"af6c08e3-8008-4ee4-9d57-b1097187e4ba","meta":{"profile":["http://hl7.org/fhir/us/qicore/StructureDefinition/qicore-procedure"]},"extension":[{"url":"http://hl7.org/fhir/us/qicore/StructureDefinition/qicore-recorded","valueDateTime":"2026-11-19T09:35:00-04:00"}],"status":"completed","code":{"coding":[{"system":"http://snomed.info/sct","code":"133918004"}]},"subject":{"reference":"Patient/09e893a2-26c7-4b6c-8686-7dec938a1c36"},"performedPeriod":{"start":"2026-11-18T11:01:00+00:00","end":"2026-11-20T08:15:00+00:00"}},"request":{"method":"PUT","url":"Procedure/af6c08e3-8008-4ee4-9d57-b1097187e4ba"}},{"fullUrl":"https://madie.cms.gov/Condition/92a720ea-e46c-4618-b20e-7b7ff73fe474","resource":{"resourceType":"Condition","id":"92a720ea-e46c-4618-b20e-7b7ff73fe474","meta":{"profile":["http://hl7.org/fhir/us/qicore/StructureDefinition/qicore-condition"]},"clinicalStatus":{"coding":[{"system":"http://terminology.hl7.org/CodeSystem/condition-clinical","code":"active"}]},"verificationStatus":{"coding":[{"system":"http://terminology.hl7.org/CodeSystem/condition-ver-status","code":"confirmed"}]},"category":[{"coding":[{"system":"http://terminology.hl7.org/CodeSystem/condition-category","code":"encounter-diagnosis","display":"Encounter Diagnosis"}]}],"code":{"coding":[{"system":"http://snomed.info/sct","version":"2020-09","code":"111297002","display":"Nonparalytic stroke (disorder)","userSelected":true}]},"subject":{"reference":"Patient/09e893a2-26c7-4b6c-8686-7dec938a1c36"},"recordedDate":"2026-08-13T08:00:00.000+00:00"},"request":{"method":"PUT","url":"Condition/92a720ea-e46c-4618-b20e-7b7ff73fe474"}},{"fullUrl":"https://madie.cms.gov/Coverage/490894a9-a53c-49c3-9411-f38392161c2f","resource":{"resourceType":"Coverage","id":"490894a9-a53c-49c3-9411-f38392161c2f","meta":{"profile":["http://hl7.org/fhir/us/qicore/StructureDefinition/qicore-coverage"]},"status":"active","beneficiary":{"reference":"Patient/09e893a2-26c7-4b6c-8686-7dec938a1c36"},"payor":[{"reference":"Organization/3778262e-e084-4bb5-9a47-1a144735f786"}]},"request":{"method":"PUT","url":"Coverage/490894a9-a53c-49c3-9411-f38392161c2f"}},{"fullUrl":"https://madie.cms.gov/Organization/78f31d9e-d4a9-4834-acb8-bb0e0ee8ebb8","resource":{"resourceType":"Organization","id":"3778262e-e084-4bb5-9a47-1a144735f786","meta":{"profile":["http://hl7.org/fhir/us/qicore/StructureDefinition/qicore-organization"]},"identifier":[{"use":"temp","system":"urn:oid:2.16.840.1.113883.4.4","value":"21-3259825"}],"active":true,"type":[{"coding":[{"system":"http://terminology.hl7.org/CodeSystem/organization-type","code":"pay","display":"Payer"}]}],"name":"Blue Cross Blue Shield of Texas","telecom":[{"system":"phone","value":"(+1) 972-766-6900"}],"address":[{"use":"billing","type":"postal","line":["P.O. Box 660044"],"city":"Dallas","state":"TX","postalCode":"75266-0044","country":"USA"}]},"request":{"method":"PUT","url":"Organization/3778262e-e084-4bb5-9a47-1a144735f786"}},{"fullUrl":"https://madie.cms.gov/MeasureReport/2b760070-7cd6-4396-b1df-cffe191bdc06","resource":{"resourceType":"MeasureReport","id":"2b760070-7cd6-4396-b1df-cffe191bdc06","meta":{"profile":["http://hl7.org/fhir/us/cqfmeasures/StructureDefinition/test-case-cqfm"]},"contained":[{"resourceType":"Parameters","id":"2ca0ac89-c94e-408a-8423-a7ebf7bba9c9-parameters","parameter":[{"name":"subject","valueString":"09e893a2-26c7-4b6c-8686-7dec938a1c36"}]}],"extension":[{"url":"http://hl7.org/fhir/us/cqfmeasures/StructureDefinition/cqfm-inputParameters","valueReference":{"reference":"#2ca0ac89-c94e-408a-8423-a7ebf7bba9c9-parameters"}},{"url":"http://hl7.org/fhir/us/cqfmeasures/StructureDefinition/cqfm-testCaseDescription","valueMarkdown":"Patient receives comfort measures performed on the day of hospital arrival, 1 min after IP start. ED ends less than 1 hour before Obs Start, Obs ends less than 1 hour before IP start.\n"}],"modifierExtension":[{"url":"http://hl7.org/fhir/us/cqfmeasures/StructureDefinition/cqfm-isTestCase","valueBoolean":true}],"status":"complete","type":"individual","measure":"https://madie.cms.gov/Measure/CMS72FHIRSTKAntithromboticDay2","period":{"start":"2026-01-01","end":"2026-12-31"},"group":[{"population":[{"code":{"coding":[{"system":"http://terminology.hl7.org/CodeSystem/measure-population","code":"initial-population","display":"Initial Population"}]},"count":1},{"code":{"coding":[{"system":"http://terminology.hl7.org/CodeSystem/measure-population","code":"denominator","display":"Denominator"}]},"count":1},{"code":{"coding":[{"system":"http://terminology.hl7.org/CodeSystem/measure-population","code":"denominator-exclusion","display":"Denominator Exclusion"}]},"count":1},{"code":{"coding":[{"system":"http://terminology.hl7.org/CodeSystem/measure-population","code":"numerator","display":"Numerator"}]},"count":0},{"code":{"coding":[{"system":"http://terminology.hl7.org/CodeSystem/measure-population","code":"denominator-exception","display":"Denominator Exception"}]},"count":0}]}]},"request":{"method":"PUT","url":"MeasureReport/2b760070-7cd6-4396-b1df-cffe191bdc06"}}]}