{"resourceType":"Bundle","id":"tests-20b51a78-5526-4bb9-8d97-a6f149c89182-bundle","type":"transaction","entry":[{"fullUrl":"https://madie.cms.gov/Patient/20b51a78-5526-4bb9-8d97-a6f149c89182","resource":{"resourceType":"Patient","id":"20b51a78-5526-4bb9-8d97-a6f149c89182","meta":{"profile":["http://hl7.org/fhir/us/qicore/StructureDefinition/qicore-patient"]},"text":{"status":"generated","div":"<div xmlns=\"http://www.w3.org/1999/xhtml\"><div class=\"hapiHeaderText\">MedTPA_EQ24hrB4_EncIP <b>DENEXPASS </b></div><table class=\"hapiPropertyTable\"><tbody><tr><td>Identifier</td><td>9603de4f7d5456ac92af8f8840850f2b</td></tr><tr><td>Date of birth</td><td><span>26 September 1975</span></td></tr></tbody></table></div>"},"extension":[{"url":"http://hl7.org/fhir/us/core/StructureDefinition/us-core-race","extension":[{"url":"ombCategory","valueCoding":{"system":"urn:oid:2.16.840.1.113883.6.238","code":"2054-5","display":"Black or African American","userSelected":true}},{"url":"text","valueString":"Black or African American"}]},{"url":"http://hl7.org/fhir/us/core/StructureDefinition/us-core-ethnicity","extension":[{"url":"ombCategory","valueCoding":{"system":"urn:oid:2.16.840.1.113883.6.238","code":"2186-5","display":"Not Hispanic or Latino","userSelected":true}},{"url":"text","valueString":"Not Hispanic or Latino"}]}],"identifier":[{"type":{"coding":[{"system":"http://terminology.hl7.org/CodeSystem/v2-0203","code":"MR"}]},"system":"https://bonnie-fhir.healthit.gov/","value":"60f82c2e98086b570510e261"}],"active":true,"name":[{"use":"usual","family":"DENEXPass","given":["MedTPA_EQ24hrB4_EncIP  "]}],"gender":"female","birthDate":"1976-09-26"},"request":{"method":"PUT","url":"Patient/20b51a78-5526-4bb9-8d97-a6f149c89182"}},{"fullUrl":"https://madie.cms.gov/Encounter/d2ce482a-d0ce-4377-aee3-379b1820a2ca","resource":{"resourceType":"Encounter","id":"d2ce482a-d0ce-4377-aee3-379b1820a2ca","meta":{"profile":["http://hl7.org/fhir/us/qicore/StructureDefinition/qicore-encounter"]},"status":"finished","class":{"system":"http://terminology.hl7.org/CodeSystem/v3-ActCode","code":"IMP","display":"inpatient encounter"},"type":[{"coding":[{"system":"http://snomed.info/sct","code":"32485007"}]}],"subject":{"reference":"Patient/20b51a78-5526-4bb9-8d97-a6f149c89182"},"period":{"start":"2026-10-10T09:00:00+00:00","end":"2026-10-12T11:15:00+00:00"},"length":{"value":2,"unit":"days"},"diagnosis":[{"condition":{"reference":"Condition/4fdd0d65-86cb-4e30-a641-7e02e67ef091"},"use":{"coding":[{"system":"http://terminology.hl7.org/CodeSystem/diagnosis-role","code":"billing","display":"Billing"}]},"rank":1}]},"request":{"method":"PUT","url":"Encounter/d2ce482a-d0ce-4377-aee3-379b1820a2ca"}},{"fullUrl":"https://madie.cms.gov/MedicationAdministration/1284798a-618d-4732-b8ed-cdfc71a8da6e","resource":{"resourceType":"MedicationAdministration","id":"1284798a-618d-4732-b8ed-cdfc71a8da6e","meta":{"profile":["http://hl7.org/fhir/us/qicore/StructureDefinition/qicore-medicationadministration"]},"extension":[{"url":"http://hl7.org/fhir/us/qicore/StructureDefinition/qicore-recorded","valueDateTime":"2026-10-09T09:00:00+00:00"}],"status":"completed","medicationCodeableConcept":{"coding":[{"system":"http://www.nlm.nih.gov/research/umls/rxnorm","code":"1804799"}]},"subject":{"reference":"Patient/20b51a78-5526-4bb9-8d97-a6f149c89182"},"effectivePeriod":{"start":"2026-10-10T09:00:00+00:00","end":"2026-10-12T11:15:00+00:00"}},"request":{"method":"PUT","url":"MedicationAdministration/1284798a-618d-4732-b8ed-cdfc71a8da6e"}},{"fullUrl":"https://madie.cms.gov/Coverage/c1d33a60-b045-44dd-bf5a-768fd7e75479","resource":{"resourceType":"Coverage","id":"c1d33a60-b045-44dd-bf5a-768fd7e75479","status":"active","beneficiary":{"reference":"Patient/20b51a78-5526-4bb9-8d97-a6f149c89182"},"period":{"start":"1976-09-26T08:00:00+00:00"},"payor":[{"reference":"Organization/aeb2c6be-6577-4bba-a6b6-6eab95111f1b"}]},"request":{"method":"PUT","url":"Coverage/c1d33a60-b045-44dd-bf5a-768fd7e75479"}},{"fullUrl":"https://madie.cms.gov/Condition/4fdd0d65-86cb-4e30-a641-7e02e67ef091","resource":{"resourceType":"Condition","id":"4fdd0d65-86cb-4e30-a641-7e02e67ef091","meta":{"profile":["http://hl7.org/fhir/us/qicore/StructureDefinition/qicore-condition"]},"clinicalStatus":{"coding":[{"system":"http://terminology.hl7.org/CodeSystem/condition-clinical","code":"active"}]},"verificationStatus":{"coding":[{"system":"http://terminology.hl7.org/CodeSystem/condition-ver-status","code":"confirmed"}]},"category":[{"coding":[{"system":"http://terminology.hl7.org/CodeSystem/condition-category","code":"encounter-diagnosis","display":"Encounter Diagnosis"}]}],"code":{"coding":[{"system":"http://snomed.info/sct","version":"2020-09","code":"111297002","display":"Nonparalytic stroke (disorder)","userSelected":true}]},"subject":{"reference":"Patient/20b51a78-5526-4bb9-8d97-a6f149c89182"},"recordedDate":"2026-08-13T08:00:00.000+00:00"},"request":{"method":"PUT","url":"Condition/4fdd0d65-86cb-4e30-a641-7e02e67ef091"}},{"fullUrl":"https://madie.cms.gov/Organization/af191bc9-5757-47a1-973f-dd8080141d5b","resource":{"resourceType":"Organization","id":"aeb2c6be-6577-4bba-a6b6-6eab95111f1b","meta":{"profile":["http://hl7.org/fhir/us/qicore/StructureDefinition/qicore-organization"]},"identifier":[{"use":"temp","system":"urn:oid:2.16.840.1.113883.4.4","value":"21-3259825"}],"active":true,"type":[{"coding":[{"system":"http://terminology.hl7.org/CodeSystem/organization-type","code":"pay","display":"Payer"}]}],"name":"Blue Cross Blue Shield of Texas","telecom":[{"system":"phone","value":"(+1) 972-766-6900"}],"address":[{"use":"billing","type":"postal","line":["P.O. Box 660044"],"city":"Dallas","state":"TX","postalCode":"75266-0044","country":"USA"}]},"request":{"method":"PUT","url":"Organization/aeb2c6be-6577-4bba-a6b6-6eab95111f1b"}},{"fullUrl":"https://madie.cms.gov/MeasureReport/583944ee-1de9-48e5-afd0-48b89db1275d","resource":{"resourceType":"MeasureReport","id":"583944ee-1de9-48e5-afd0-48b89db1275d","meta":{"profile":["http://hl7.org/fhir/us/cqfmeasures/StructureDefinition/test-case-cqfm"]},"contained":[{"resourceType":"Parameters","id":"74dc7a18-7688-470f-a2a9-40b9e583b730-parameters","parameter":[{"name":"subject","valueString":"20b51a78-5526-4bb9-8d97-a6f149c89182"}]}],"extension":[{"url":"http://hl7.org/fhir/us/cqfmeasures/StructureDefinition/cqfm-inputParameters","valueReference":{"reference":"#74dc7a18-7688-470f-a2a9-40b9e583b730-parameters"}},{"url":"http://hl7.org/fhir/us/cqfmeasures/StructureDefinition/cqfm-testCaseDescription","valueMarkdown":"Patient receives TPA =24 hours before IP encounter starts\n"}],"modifierExtension":[{"url":"http://hl7.org/fhir/us/cqfmeasures/StructureDefinition/cqfm-isTestCase","valueBoolean":true}],"status":"complete","type":"individual","measure":"https://madie.cms.gov/Measure/CMS72FHIRSTKAntithromboticDay2","period":{"start":"2026-01-01","end":"2026-12-31"},"group":[{"population":[{"code":{"coding":[{"system":"http://terminology.hl7.org/CodeSystem/measure-population","code":"initial-population","display":"Initial Population"}]},"count":1},{"code":{"coding":[{"system":"http://terminology.hl7.org/CodeSystem/measure-population","code":"denominator","display":"Denominator"}]},"count":1},{"code":{"coding":[{"system":"http://terminology.hl7.org/CodeSystem/measure-population","code":"denominator-exclusion","display":"Denominator Exclusion"}]},"count":1},{"code":{"coding":[{"system":"http://terminology.hl7.org/CodeSystem/measure-population","code":"numerator","display":"Numerator"}]},"count":0},{"code":{"coding":[{"system":"http://terminology.hl7.org/CodeSystem/measure-population","code":"denominator-exception","display":"Denominator Exception"}]},"count":0}]}]},"request":{"method":"PUT","url":"MeasureReport/583944ee-1de9-48e5-afd0-48b89db1275d"}}]}