{"resourceType":"Bundle","id":"tests-911c7730-4c4e-4c4c-ae6b-2e7a6391a98c-bundle","type":"transaction","entry":[{"fullUrl":"https://madie.cms.gov/Patient/911c7730-4c4e-4c4c-ae6b-2e7a6391a98c","resource":{"resourceType":"Patient","id":"911c7730-4c4e-4c4c-ae6b-2e7a6391a98c","meta":{"profile":["http://hl7.org/fhir/us/qicore/StructureDefinition/qicore-patient"]},"text":{"status":"generated","div":"<div xmlns=\"http://www.w3.org/1999/xhtml\"><div class=\"hapiHeaderText\">MedAntithromboticStart_gt1dayDuringEd <b>NUMERFAIL </b></div><table class=\"hapiPropertyTable\"><tbody><tr><td>Identifier</td><td>a5e30d399f249a9c074a30cd5f10a75b</td></tr><tr><td>Date of birth</td><td><span>26 September 1975</span></td></tr></tbody></table></div>"},"extension":[{"url":"http://hl7.org/fhir/us/core/StructureDefinition/us-core-race","extension":[{"url":"ombCategory","valueCoding":{"system":"urn:oid:2.16.840.1.113883.6.238","code":"2054-5","display":"Black or African American","userSelected":true}},{"url":"text","valueString":"Black or African American"}]},{"url":"http://hl7.org/fhir/us/core/StructureDefinition/us-core-ethnicity","extension":[{"url":"ombCategory","valueCoding":{"system":"urn:oid:2.16.840.1.113883.6.238","code":"2186-5","display":"Not Hispanic or Latino","userSelected":true}},{"url":"text","valueString":"Not Hispanic or Latino"}]}],"identifier":[{"type":{"coding":[{"system":"http://terminology.hl7.org/CodeSystem/v2-0203","code":"MR"}]},"system":"https://bonnie-fhir.healthit.gov/","value":"60f82c2d98086b570510e25b"}],"active":true,"name":[{"use":"usual","family":"NUMERFail","given":["MedAntithromboticStart_gt1dayDuringEd"]}],"gender":"female","birthDate":"1976-09-26"},"request":{"method":"PUT","url":"Patient/911c7730-4c4e-4c4c-ae6b-2e7a6391a98c"}},{"fullUrl":"https://madie.cms.gov/Encounter/dabdc5bb-e6af-452e-89a5-ac8d58b1033b","resource":{"resourceType":"Encounter","id":"dabdc5bb-e6af-452e-89a5-ac8d58b1033b","meta":{"profile":["http://hl7.org/fhir/us/qicore/StructureDefinition/qicore-encounter"]},"status":"finished","class":{"system":"http://terminology.hl7.org/CodeSystem/v3-ActCode","code":"EMER","display":"emergency"},"type":[{"coding":[{"system":"http://snomed.info/sct","code":"4525004"}]}],"subject":{"reference":"Patient/911c7730-4c4e-4c4c-ae6b-2e7a6391a98c"},"period":{"start":"2026-10-08T23:59:00+00:00","end":"2026-10-10T08:15:00+00:00"},"length":{"value":2,"unit":"days"}},"request":{"method":"PUT","url":"Encounter/dabdc5bb-e6af-452e-89a5-ac8d58b1033b"}},{"fullUrl":"https://madie.cms.gov/Encounter/7e17b2fa-6ad2-4244-807e-b5c27e39b253","resource":{"resourceType":"Encounter","id":"7e17b2fa-6ad2-4244-807e-b5c27e39b253","meta":{"profile":["http://hl7.org/fhir/us/qicore/StructureDefinition/qicore-encounter"]},"status":"finished","class":{"system":"http://terminology.hl7.org/CodeSystem/v3-ActCode","code":"IMP","display":"inpatient encounter"},"type":[{"coding":[{"system":"http://snomed.info/sct","code":"32485007"}]}],"subject":{"reference":"Patient/911c7730-4c4e-4c4c-ae6b-2e7a6391a98c"},"period":{"start":"2026-10-10T09:00:00+00:00","end":"2026-10-12T11:15:00+00:00"},"length":{"value":2,"unit":"days"},"diagnosis":[{"condition":{"reference":"Condition/aabbd05a-c321-4795-bcad-dd617201a087"},"use":{"coding":[{"system":"http://terminology.hl7.org/CodeSystem/diagnosis-role","code":"billing","display":"Billing"}]},"rank":1}]},"request":{"method":"PUT","url":"Encounter/7e17b2fa-6ad2-4244-807e-b5c27e39b253"}},{"fullUrl":"https://madie.cms.gov/MedicationAdministration/710c24ba-2c32-46db-bdb9-970e68d41acb","resource":{"resourceType":"MedicationAdministration","id":"710c24ba-2c32-46db-bdb9-970e68d41acb","meta":{"profile":["http://hl7.org/fhir/us/qicore/StructureDefinition/qicore-medicationadministration"]},"status":"completed","medicationCodeableConcept":{"coding":[{"system":"http://www.nlm.nih.gov/research/umls/rxnorm","code":"198466"}]},"subject":{"reference":"Patient/911c7730-4c4e-4c4c-ae6b-2e7a6391a98c"},"effectivePeriod":{"start":"2026-10-10T08:01:00+00:00","end":"2026-10-10T08:45:00+00:00"}},"request":{"method":"PUT","url":"MedicationAdministration/710c24ba-2c32-46db-bdb9-970e68d41acb"}},{"fullUrl":"https://madie.cms.gov/Coverage/14488c9d-8976-4c96-88fc-2f2e5dea0df9","resource":{"resourceType":"Coverage","id":"14488c9d-8976-4c96-88fc-2f2e5dea0df9","status":"active","beneficiary":{"reference":"Patient/911c7730-4c4e-4c4c-ae6b-2e7a6391a98c"},"period":{"start":"1976-09-26T08:00:00+00:00"},"payor":[{"reference":"Organization/607fdef9-3983-4cef-ab1a-95434d29b463"}]},"request":{"method":"PUT","url":"Coverage/14488c9d-8976-4c96-88fc-2f2e5dea0df9"}},{"fullUrl":"https://madie.cms.gov/Condition/aabbd05a-c321-4795-bcad-dd617201a087","resource":{"resourceType":"Condition","id":"aabbd05a-c321-4795-bcad-dd617201a087","meta":{"profile":["http://hl7.org/fhir/us/qicore/StructureDefinition/qicore-condition"]},"clinicalStatus":{"coding":[{"system":"http://terminology.hl7.org/CodeSystem/condition-clinical","code":"active"}]},"verificationStatus":{"coding":[{"system":"http://terminology.hl7.org/CodeSystem/condition-ver-status","code":"confirmed"}]},"category":[{"coding":[{"system":"http://terminology.hl7.org/CodeSystem/condition-category","code":"encounter-diagnosis","display":"Encounter Diagnosis"}]}],"code":{"coding":[{"system":"http://snomed.info/sct","version":"2020-09","code":"111297002","display":"Nonparalytic stroke (disorder)","userSelected":true}]},"subject":{"reference":"Patient/911c7730-4c4e-4c4c-ae6b-2e7a6391a98c"},"recordedDate":"2026-08-16T08:00:00.000+00:00"},"request":{"method":"PUT","url":"Condition/aabbd05a-c321-4795-bcad-dd617201a087"}},{"fullUrl":"https://madie.cms.gov/Organization/1a46b025-abd7-420a-a489-7903aa40d193","resource":{"resourceType":"Organization","id":"607fdef9-3983-4cef-ab1a-95434d29b463","meta":{"profile":["http://hl7.org/fhir/us/qicore/StructureDefinition/qicore-organization"]},"identifier":[{"use":"temp","system":"urn:oid:2.16.840.1.113883.4.4","value":"21-3259825"}],"active":true,"type":[{"coding":[{"system":"http://terminology.hl7.org/CodeSystem/organization-type","code":"pay","display":"Payer"}]}],"name":"Blue Cross Blue Shield of Texas","telecom":[{"system":"phone","value":"(+1) 972-766-6900"}],"address":[{"use":"billing","type":"postal","line":["P.O. Box 660044"],"city":"Dallas","state":"TX","postalCode":"75266-0044","country":"USA"}]},"request":{"method":"PUT","url":"Organization/607fdef9-3983-4cef-ab1a-95434d29b463"}},{"fullUrl":"https://madie.cms.gov/Practitioner/4e540d1e-a4fc-4047-8995-3aacce728fd1","resource":{"resourceType":"Practitioner","id":"4e540d1e-a4fc-4047-8995-3aacce728fd1","identifier":[{"system":"http://hl7.org/fhir/sid/us-npi","value":"123456"}],"name":[{"family":"Evil","prefix":["Dr"]}]},"request":{"method":"PUT","url":"Practitioner/4e540d1e-a4fc-4047-8995-3aacce728fd1"}},{"fullUrl":"https://madie.cms.gov/MeasureReport/b00ea84f-391e-4894-a36b-75b66275628b","resource":{"resourceType":"MeasureReport","id":"b00ea84f-391e-4894-a36b-75b66275628b","meta":{"profile":["http://hl7.org/fhir/us/cqfmeasures/StructureDefinition/test-case-cqfm"]},"contained":[{"resourceType":"Parameters","id":"5c886914-711a-4656-b87c-37cf7c615525-parameters","parameter":[{"name":"subject","valueString":"911c7730-4c4e-4c4c-ae6b-2e7a6391a98c"}]}],"extension":[{"url":"http://hl7.org/fhir/us/cqfmeasures/StructureDefinition/cqfm-inputParameters","valueReference":{"reference":"#5c886914-711a-4656-b87c-37cf7c615525-parameters"}},{"url":"http://hl7.org/fhir/us/cqfmeasures/StructureDefinition/cqfm-testCaseDescription","valueMarkdown":"\"antithrombotic therapy 2 days after ED start\n global.\"\"Hospitalization\"\" =(Ed+IP)\"\n"}],"modifierExtension":[{"url":"http://hl7.org/fhir/us/cqfmeasures/StructureDefinition/cqfm-isTestCase","valueBoolean":true}],"status":"complete","type":"individual","measure":"https://madie.cms.gov/Measure/CMS72FHIRSTKAntithromboticDay2","period":{"start":"2026-01-01","end":"2026-12-31"},"group":[{"population":[{"code":{"coding":[{"system":"http://terminology.hl7.org/CodeSystem/measure-population","code":"initial-population","display":"Initial Population"}]},"count":1},{"code":{"coding":[{"system":"http://terminology.hl7.org/CodeSystem/measure-population","code":"denominator","display":"Denominator"}]},"count":1},{"code":{"coding":[{"system":"http://terminology.hl7.org/CodeSystem/measure-population","code":"denominator-exclusion","display":"Denominator Exclusion"}]},"count":0},{"code":{"coding":[{"system":"http://terminology.hl7.org/CodeSystem/measure-population","code":"numerator","display":"Numerator"}]},"count":0},{"code":{"coding":[{"system":"http://terminology.hl7.org/CodeSystem/measure-population","code":"denominator-exception","display":"Denominator Exception"}]},"count":0}]}]},"request":{"method":"PUT","url":"MeasureReport/b00ea84f-391e-4894-a36b-75b66275628b"}}]}