{"resourceType":"Bundle","id":"tests-9a8c51a0-bf53-42b6-927d-c1f90b81a31a-bundle","type":"transaction","entry":[{"fullUrl":"https://madie.cms.gov/Patient/9a8c51a0-bf53-42b6-927d-c1f90b81a31a","resource":{"resourceType":"Patient","id":"9a8c51a0-bf53-42b6-927d-c1f90b81a31a","meta":{"profile":["http://hl7.org/fhir/us/qicore/StructureDefinition/qicore-patient"]},"text":{"status":"generated","div":"<div xmlns=\"http://www.w3.org/1999/xhtml\"><div class=\"hapiHeaderText\">LOS=2Days_ED_EQ1hr <b>DENEXFAIL </b></div><table class=\"hapiPropertyTable\"><tbody><tr><td>Identifier</td><td>47952b1442c8dc3c6d8daf3fe023d33d</td></tr><tr><td>Date of birth</td><td><span>21 August 1993</span></td></tr></tbody></table></div>"},"extension":[{"url":"http://hl7.org/fhir/us/core/StructureDefinition/us-core-race","extension":[{"url":"ombCategory","valueCoding":{"system":"urn:oid:2.16.840.1.113883.6.238","code":"1002-5","display":"American Indian or Alaska Native","userSelected":true}},{"url":"text","valueString":"American Indian or Alaska Native"}]},{"url":"http://hl7.org/fhir/us/core/StructureDefinition/us-core-ethnicity","extension":[{"url":"ombCategory","valueCoding":{"system":"urn:oid:2.16.840.1.113883.6.238","code":"2135-2","display":"Hispanic or Latino","userSelected":true}},{"url":"text","valueString":"Hispanic or Latino"}]}],"identifier":[{"type":{"coding":[{"system":"http://terminology.hl7.org/CodeSystem/v2-0203","code":"MR"}]},"system":"https://bonnie-fhir.healthit.gov/","value":"60f82c2e98086b570510e27e"}],"active":true,"name":[{"use":"usual","family":"DENEXFail","given":["LOS=2Days_ED_EQ1hr "]}],"gender":"male","birthDate":"1994-08-21"},"request":{"method":"PUT","url":"Patient/9a8c51a0-bf53-42b6-927d-c1f90b81a31a"}},{"fullUrl":"https://madie.cms.gov/Encounter/a36b67a8-b8db-4814-8908-9c4509df24f2","resource":{"resourceType":"Encounter","id":"a36b67a8-b8db-4814-8908-9c4509df24f2","meta":{"profile":["http://hl7.org/fhir/us/qicore/StructureDefinition/qicore-encounter"]},"status":"finished","class":{"system":"http://terminology.hl7.org/CodeSystem/v3-ActCode","code":"EMER","display":"emergency","userSelected":true},"type":[{"coding":[{"system":"http://snomed.info/sct","code":"4525004"}]}],"subject":{"reference":"Patient/9a8c51a0-bf53-42b6-927d-c1f90b81a31a"},"period":{"start":"2026-08-20T08:00:00+00:00","end":"2026-08-20T21:00:00+00:00"},"length":{"value":0,"unit":"days"}},"request":{"method":"PUT","url":"Encounter/a36b67a8-b8db-4814-8908-9c4509df24f2"}},{"fullUrl":"https://madie.cms.gov/Encounter/f73b14d8-9f1a-46b4-868a-64160445887c","resource":{"resourceType":"Encounter","id":"f73b14d8-9f1a-46b4-868a-64160445887c","meta":{"profile":["http://hl7.org/fhir/us/qicore/StructureDefinition/qicore-encounter"]},"status":"finished","class":{"system":"http://terminology.hl7.org/CodeSystem/v3-ActCode","code":"IMP","display":"inpatient encounter","userSelected":true},"type":[{"coding":[{"system":"http://snomed.info/sct","code":"32485007"}]}],"subject":{"reference":"Patient/9a8c51a0-bf53-42b6-927d-c1f90b81a31a"},"period":{"start":"2026-08-20T22:00:00+00:00","end":"2026-08-22T12:00:00+00:00"},"length":{"value":2,"unit":"days"},"diagnosis":[{"condition":{"reference":"Condition/877a15fa-48b7-432f-936b-5dfb53bb6f51"},"use":{"coding":[{"system":"http://terminology.hl7.org/CodeSystem/diagnosis-role","code":"billing","display":"Billing"}]},"rank":1}]},"request":{"method":"PUT","url":"Encounter/f73b14d8-9f1a-46b4-868a-64160445887c"}},{"fullUrl":"https://madie.cms.gov/Coverage/eb7fa3e8-5602-4a5f-8e83-bbb6a8b2297c","resource":{"resourceType":"Coverage","id":"eb7fa3e8-5602-4a5f-8e83-bbb6a8b2297c","status":"active","beneficiary":{"reference":"Patient/9a8c51a0-bf53-42b6-927d-c1f90b81a31a"},"period":{"start":"1994-08-21T07:00:00+00:00"},"payor":[{"reference":"Organization/f7da4368-fb6d-4d73-a75b-f78024cbb18d"}]},"request":{"method":"PUT","url":"Coverage/eb7fa3e8-5602-4a5f-8e83-bbb6a8b2297c"}},{"fullUrl":"https://madie.cms.gov/Condition/877a15fa-48b7-432f-936b-5dfb53bb6f51","resource":{"resourceType":"Condition","id":"877a15fa-48b7-432f-936b-5dfb53bb6f51","meta":{"profile":["http://hl7.org/fhir/us/qicore/StructureDefinition/qicore-condition"]},"clinicalStatus":{"coding":[{"system":"http://terminology.hl7.org/CodeSystem/condition-clinical","code":"active"}]},"verificationStatus":{"coding":[{"system":"http://terminology.hl7.org/CodeSystem/condition-ver-status","code":"confirmed"}]},"category":[{"coding":[{"system":"http://terminology.hl7.org/CodeSystem/condition-category","code":"encounter-diagnosis","display":"Encounter Diagnosis"}]}],"code":{"coding":[{"system":"http://snomed.info/sct","version":"2020-09","code":"111297002","display":"Nonparalytic stroke (disorder)","userSelected":true}]},"subject":{"reference":"Patient/9a8c51a0-bf53-42b6-927d-c1f90b81a31a"},"recordedDate":"2026-08-12T08:00:00.000+00:00"},"request":{"method":"PUT","url":"Condition/877a15fa-48b7-432f-936b-5dfb53bb6f51"}},{"fullUrl":"https://madie.cms.gov/Organization/6302d1a1-9be9-4f6d-b955-e0c4e33e7546","resource":{"resourceType":"Organization","id":"f7da4368-fb6d-4d73-a75b-f78024cbb18d","meta":{"profile":["http://hl7.org/fhir/us/qicore/StructureDefinition/qicore-organization"]},"identifier":[{"use":"temp","system":"urn:oid:2.16.840.1.113883.4.4","value":"21-3259825"}],"active":true,"type":[{"coding":[{"system":"http://terminology.hl7.org/CodeSystem/organization-type","code":"pay","display":"Payer"}]}],"name":"Blue Cross Blue Shield of Texas","telecom":[{"system":"phone","value":"(+1) 972-766-6900"}],"address":[{"use":"billing","type":"postal","line":["P.O. Box 660044"],"city":"Dallas","state":"TX","postalCode":"75266-0044","country":"USA"}]},"request":{"method":"PUT","url":"Organization/f7da4368-fb6d-4d73-a75b-f78024cbb18d"}},{"fullUrl":"https://madie.cms.gov/MeasureReport/f70fcbf0-d392-4417-86a3-5e36299100f6","resource":{"resourceType":"MeasureReport","id":"f70fcbf0-d392-4417-86a3-5e36299100f6","meta":{"profile":["http://hl7.org/fhir/us/cqfmeasures/StructureDefinition/test-case-cqfm"]},"contained":[{"resourceType":"Parameters","id":"e6bfe280-89bf-488a-820b-ddaddbd9bc98-parameters","parameter":[{"name":"subject","valueString":"9a8c51a0-bf53-42b6-927d-c1f90b81a31a"}]}],"extension":[{"url":"http://hl7.org/fhir/us/cqfmeasures/StructureDefinition/cqfm-inputParameters","valueReference":{"reference":"#e6bfe280-89bf-488a-820b-ddaddbd9bc98-parameters"}},{"url":"http://hl7.org/fhir/us/cqfmeasures/StructureDefinition/cqfm-testCaseDescription","valueMarkdown":"Patient has  ED Visit = 1 hour ends before IP encounter and starts = 2 days before end of IP , global.Hospitalization ( = Ed +IP)\n"}],"modifierExtension":[{"url":"http://hl7.org/fhir/us/cqfmeasures/StructureDefinition/cqfm-isTestCase","valueBoolean":true}],"status":"complete","type":"individual","measure":"https://madie.cms.gov/Measure/CMS72FHIRSTKAntithromboticDay2","period":{"start":"2026-01-01","end":"2026-12-31"},"group":[{"population":[{"code":{"coding":[{"system":"http://terminology.hl7.org/CodeSystem/measure-population","code":"initial-population","display":"Initial Population"}]},"count":1},{"code":{"coding":[{"system":"http://terminology.hl7.org/CodeSystem/measure-population","code":"denominator","display":"Denominator"}]},"count":1},{"code":{"coding":[{"system":"http://terminology.hl7.org/CodeSystem/measure-population","code":"denominator-exclusion","display":"Denominator Exclusion"}]},"count":0},{"code":{"coding":[{"system":"http://terminology.hl7.org/CodeSystem/measure-population","code":"numerator","display":"Numerator"}]},"count":0},{"code":{"coding":[{"system":"http://terminology.hl7.org/CodeSystem/measure-population","code":"denominator-exception","display":"Denominator Exception"}]},"count":0}]}]},"request":{"method":"PUT","url":"MeasureReport/f70fcbf0-d392-4417-86a3-5e36299100f6"}}]}