{"resourceType":"Bundle","id":"tests-fc921a1f-5847-4aed-82da-c65347b31dae-bundle","type":"transaction","entry":[{"fullUrl":"https://madie.cms.gov/Patient/fc921a1f-5847-4aed-82da-c65347b31dae","resource":{"resourceType":"Patient","id":"fc921a1f-5847-4aed-82da-c65347b31dae","meta":{"profile":["http://hl7.org/fhir/us/qicore/StructureDefinition/qicore-patient"]},"text":{"status":"generated","div":"<div xmlns=\"http://www.w3.org/1999/xhtml\"><div class=\"hapiHeaderText\">CMP_DayOf_RelvPerStart_OnObsStart_EDEndLT1hrB4Obs_ObsEndLT1hrB4IP <b>DENEXPASS </b></div><table class=\"hapiPropertyTable\"><tbody><tr><td>Date of birth</td><td><span>01 January 1980</span></td></tr></tbody></table></div>"},"extension":[{"url":"http://hl7.org/fhir/us/core/StructureDefinition/us-core-race","extension":[{"url":"ombCategory","valueCoding":{"system":"urn:oid:2.16.840.1.113883.6.238","code":"2106-3","display":"White","userSelected":true}},{"url":"text","valueString":"White"}]},{"url":"http://hl7.org/fhir/us/core/StructureDefinition/us-core-ethnicity","extension":[{"url":"ombCategory","valueCoding":{"system":"urn:oid:2.16.840.1.113883.6.238","code":"2186-5","display":"Not Hispanic or Latino","userSelected":true}},{"url":"text","valueString":"Not Hispanic or Latino"}]}],"identifier":[{"type":{"coding":[{"system":"http://terminology.hl7.org/CodeSystem/v2-0203","code":"MR"}]},"system":"https://bonnie-fhir.healthit.gov/","value":"60f82c3098086b570510e2e9"}],"active":true,"name":[{"use":"usual","family":"DENEXPass","given":["CMP_DayOf_RelvPerStart_OnObsStart_EDEndLT1hrB4Obs_ObsEndLT1hrB4IP"]}],"gender":"female","birthDate":"1981-01-01"},"request":{"method":"PUT","url":"Patient/fc921a1f-5847-4aed-82da-c65347b31dae"}},{"fullUrl":"https://madie.cms.gov/Encounter/09d29cb8-4f28-4d25-bdc4-13191e3949ca","resource":{"resourceType":"Encounter","id":"09d29cb8-4f28-4d25-bdc4-13191e3949ca","meta":{"profile":["http://hl7.org/fhir/us/qicore/StructureDefinition/qicore-encounter"]},"status":"finished","class":{"system":"http://terminology.hl7.org/CodeSystem/v3-ActCode","code":"EMER","display":"emergency"},"type":[{"coding":[{"system":"http://snomed.info/sct","code":"4525004"}]}],"subject":{"reference":"Patient/fc921a1f-5847-4aed-82da-c65347b31dae"},"period":{"start":"2026-11-18T07:00:00+00:00","end":"2026-11-18T08:01:00+00:00"},"diagnosis":[{"condition":{"reference":"Condition/b3f59cd7-c22e-4383-b776-35e052043937"},"use":{"coding":[{"system":"http://terminology.hl7.org/CodeSystem/diagnosis-role","code":"billing","display":"Billing"}]},"rank":1}]},"request":{"method":"PUT","url":"Encounter/09d29cb8-4f28-4d25-bdc4-13191e3949ca"}},{"fullUrl":"https://madie.cms.gov/Encounter/64be7b0b-5076-4bff-9cbf-feb4bf4fcfdf","resource":{"resourceType":"Encounter","id":"64be7b0b-5076-4bff-9cbf-feb4bf4fcfdf","meta":{"profile":["http://hl7.org/fhir/us/qicore/StructureDefinition/qicore-encounter"]},"status":"finished","class":{"system":"http://terminology.hl7.org/CodeSystem/v3-ActCode","code":"OBSENC","display":"observation encounter"},"type":[{"coding":[{"system":"http://snomed.info/sct","code":"448951000124107"}]}],"subject":{"reference":"Patient/fc921a1f-5847-4aed-82da-c65347b31dae"},"period":{"start":"2026-11-18T09:00:00+00:00","end":"2026-11-18T10:01:00+00:00"}},"request":{"method":"PUT","url":"Encounter/64be7b0b-5076-4bff-9cbf-feb4bf4fcfdf"}},{"fullUrl":"https://madie.cms.gov/Encounter/c4913a28-29a1-4768-a6f1-e57ee08ec5ca","resource":{"resourceType":"Encounter","id":"c4913a28-29a1-4768-a6f1-e57ee08ec5ca","meta":{"profile":["http://hl7.org/fhir/us/qicore/StructureDefinition/qicore-encounter"]},"status":"finished","class":{"system":"http://terminology.hl7.org/CodeSystem/v3-ActCode","code":"IMP","display":"inpatient encounter"},"type":[{"coding":[{"system":"http://snomed.info/sct","code":"183452005"}]}],"subject":{"reference":"Patient/fc921a1f-5847-4aed-82da-c65347b31dae"},"period":{"start":"2026-11-18T11:00:00+00:00","end":"2026-11-20T08:15:00+00:00"},"diagnosis":[{"condition":{"reference":"Condition/b3f59cd7-c22e-4383-b776-35e052043937"},"use":{"coding":[{"system":"http://terminology.hl7.org/CodeSystem/diagnosis-role","code":"billing","display":"Billing"}]},"rank":1}]},"request":{"method":"PUT","url":"Encounter/c4913a28-29a1-4768-a6f1-e57ee08ec5ca"}},{"fullUrl":"https://madie.cms.gov/Procedure/61ce54e6-3dfa-4cc9-a282-5382b87272e2","resource":{"resourceType":"Procedure","id":"61ce54e6-3dfa-4cc9-a282-5382b87272e2","meta":{"profile":["http://hl7.org/fhir/us/qicore/StructureDefinition/qicore-procedure"]},"extension":[{"url":"http://hl7.org/fhir/us/qicore/StructureDefinition/qicore-recorded","valueDateTime":"2026-11-19T09:35:00-04:00"}],"status":"completed","code":{"coding":[{"system":"http://snomed.info/sct","code":"133918004"}]},"subject":{"reference":"Patient/fc921a1f-5847-4aed-82da-c65347b31dae"},"performedPeriod":{"start":"2026-11-18T09:00:00+00:00","end":"2026-11-18T10:01:00+00:00"}},"request":{"method":"PUT","url":"Procedure/61ce54e6-3dfa-4cc9-a282-5382b87272e2"}},{"fullUrl":"https://madie.cms.gov/Condition/b3f59cd7-c22e-4383-b776-35e052043937","resource":{"resourceType":"Condition","id":"b3f59cd7-c22e-4383-b776-35e052043937","meta":{"profile":["http://hl7.org/fhir/us/qicore/StructureDefinition/qicore-condition"]},"clinicalStatus":{"coding":[{"system":"http://terminology.hl7.org/CodeSystem/condition-clinical","code":"active"}]},"verificationStatus":{"coding":[{"system":"http://terminology.hl7.org/CodeSystem/condition-ver-status","code":"confirmed"}]},"category":[{"coding":[{"system":"http://terminology.hl7.org/CodeSystem/condition-category","code":"encounter-diagnosis","display":"Encounter Diagnosis"}]}],"code":{"coding":[{"system":"http://snomed.info/sct","version":"2020-09","code":"111297002","display":"Nonparalytic stroke (disorder)","userSelected":true}]},"subject":{"reference":"Patient/fc921a1f-5847-4aed-82da-c65347b31dae"},"recordedDate":"2026-08-13T08:00:00.000+00:00"},"request":{"method":"PUT","url":"Condition/b3f59cd7-c22e-4383-b776-35e052043937"}},{"fullUrl":"https://madie.cms.gov/Coverage/28dcd0d8-3b33-47f6-a0ab-02ec19d97eba","resource":{"resourceType":"Coverage","id":"28dcd0d8-3b33-47f6-a0ab-02ec19d97eba","meta":{"profile":["http://hl7.org/fhir/us/qicore/StructureDefinition/qicore-coverage"]},"status":"active","beneficiary":{"reference":"Patient/fc921a1f-5847-4aed-82da-c65347b31dae"},"payor":[{"reference":"Organization/880a275e-1cf2-4fb9-869b-f1d2173fdc2b"}]},"request":{"method":"PUT","url":"Coverage/28dcd0d8-3b33-47f6-a0ab-02ec19d97eba"}},{"fullUrl":"https://madie.cms.gov/Organization/e1775c25-66ce-450f-b004-2c71371e3f0e","resource":{"resourceType":"Organization","id":"880a275e-1cf2-4fb9-869b-f1d2173fdc2b","meta":{"profile":["http://hl7.org/fhir/us/qicore/StructureDefinition/qicore-organization"]},"identifier":[{"use":"temp","system":"urn:oid:2.16.840.1.113883.4.4","value":"21-3259825"}],"active":true,"type":[{"coding":[{"system":"http://terminology.hl7.org/CodeSystem/organization-type","code":"pay","display":"Payer"}]}],"name":"Blue Cross Blue Shield of Texas","telecom":[{"system":"phone","value":"(+1) 972-766-6900"}],"address":[{"use":"billing","type":"postal","line":["P.O. Box 660044"],"city":"Dallas","state":"TX","postalCode":"75266-0044","country":"USA"}]},"request":{"method":"PUT","url":"Organization/880a275e-1cf2-4fb9-869b-f1d2173fdc2b"}},{"fullUrl":"https://madie.cms.gov/MeasureReport/027e68a4-e32f-4707-891b-d4ddd35ff24b","resource":{"resourceType":"MeasureReport","id":"027e68a4-e32f-4707-891b-d4ddd35ff24b","meta":{"profile":["http://hl7.org/fhir/us/cqfmeasures/StructureDefinition/test-case-cqfm"]},"contained":[{"resourceType":"Parameters","id":"fa0fbd35-af3d-4f88-b827-33f4adf78f12-parameters","parameter":[{"name":"subject","valueString":"fc921a1f-5847-4aed-82da-c65347b31dae"}]}],"extension":[{"url":"http://hl7.org/fhir/us/cqfmeasures/StructureDefinition/cqfm-inputParameters","valueReference":{"reference":"#fa0fbd35-af3d-4f88-b827-33f4adf78f12-parameters"}},{"url":"http://hl7.org/fhir/us/cqfmeasures/StructureDefinition/cqfm-testCaseDescription","valueMarkdown":"Patient receives comfort measures performed on the day of hospital arrival, on Obs start. ED ends less than 1 hour before Obs Start, Obs ends less than 1 hour before IP start.\n"}],"modifierExtension":[{"url":"http://hl7.org/fhir/us/cqfmeasures/StructureDefinition/cqfm-isTestCase","valueBoolean":true}],"status":"complete","type":"individual","measure":"https://madie.cms.gov/Measure/CMS72FHIRSTKAntithromboticDay2","period":{"start":"2026-01-01","end":"2026-12-31"},"group":[{"population":[{"code":{"coding":[{"system":"http://terminology.hl7.org/CodeSystem/measure-population","code":"initial-population","display":"Initial Population"}]},"count":1},{"code":{"coding":[{"system":"http://terminology.hl7.org/CodeSystem/measure-population","code":"denominator","display":"Denominator"}]},"count":1},{"code":{"coding":[{"system":"http://terminology.hl7.org/CodeSystem/measure-population","code":"denominator-exclusion","display":"Denominator Exclusion"}]},"count":1},{"code":{"coding":[{"system":"http://terminology.hl7.org/CodeSystem/measure-population","code":"numerator","display":"Numerator"}]},"count":0},{"code":{"coding":[{"system":"http://terminology.hl7.org/CodeSystem/measure-population","code":"denominator-exception","display":"Denominator Exception"}]},"count":0}]}]},"request":{"method":"PUT","url":"MeasureReport/027e68a4-e32f-4707-891b-d4ddd35ff24b"}}]}