{"resourceType":"Bundle","id":"tests-98fca12d-7318-4ed9-9267-4a8604553ed4-bundle","type":"transaction","entry":[{"fullUrl":"https://madie.cms.gov/Patient/98fca12d-7318-4ed9-9267-4a8604553ed4","resource":{"resourceType":"Patient","id":"98fca12d-7318-4ed9-9267-4a8604553ed4","meta":{"profile":["http://hl7.org/fhir/us/qicore/StructureDefinition/qicore-patient"]},"text":{"status":"generated","div":"<div xmlns=\"http://www.w3.org/1999/xhtml\"><div class=\"hapiHeaderText\">CMOdurED_ED=1hrNoObsBFEnc <b>DENEXPASS </b></div><table class=\"hapiPropertyTable\"><tbody><tr><td>Identifier</td><td>670854918483ca8b7894283bd5cddbcf5037c5392991b8777bf3c4f78ed05f0b</td></tr><tr><td>Date of birth</td><td><span>18 September 1985</span></td></tr></tbody></table></div>"},"extension":[{"url":"http://hl7.org/fhir/us/core/StructureDefinition/us-core-race","extension":[{"url":"ombCategory","valueCoding":{"system":"urn:oid:2.16.840.1.113883.6.238","code":"1002-5","display":"American Indian or Alaska Native","userSelected":true}},{"url":"text","valueString":"American Indian or Alaska Native"}]},{"url":"http://hl7.org/fhir/us/core/StructureDefinition/us-core-ethnicity","extension":[{"url":"ombCategory","valueCoding":{"system":"urn:oid:2.16.840.1.113883.6.238","code":"2135-2","display":"Hispanic or Latino","userSelected":true}},{"url":"text","valueString":"Hispanic or Latino"}]}],"identifier":[{"type":{"coding":[{"system":"http://terminology.hl7.org/CodeSystem/v2-0203","code":"MR"}]},"system":"https://bonnie-fhir.healthit.gov/","value":"633c9d040968f8012250fca3"}],"active":true,"name":[{"use":"usual","family":"DENEXFail","given":["CMOdurEDEDEQ1hrNoObsBFEncdoNotPerform"]}],"gender":"female","birthDate":"1986-09-18"},"request":{"method":"PUT","url":"Patient/98fca12d-7318-4ed9-9267-4a8604553ed4"}},{"fullUrl":"https://madie.cms.gov/Condition/c12603b8-fd9b-4289-a4ee-c9512295673b","resource":{"resourceType":"Condition","id":"c12603b8-fd9b-4289-a4ee-c9512295673b","meta":{"profile":["http://hl7.org/fhir/us/qicore/StructureDefinition/qicore-condition"]},"clinicalStatus":{"coding":[{"system":"http://terminology.hl7.org/CodeSystem/condition-clinical","code":"inactive"}]},"verificationStatus":{"coding":[{"system":"http://terminology.hl7.org/CodeSystem/condition-ver-status","code":"confirmed"}]},"category":[{"coding":[{"system":"http://terminology.hl7.org/CodeSystem/condition-category","code":"encounter-diagnosis","display":"Encounter Diagnosis"}]}],"code":{"coding":[{"system":"http://hl7.org/fhir/sid/icd-10-cm","code":"I48.20"},{"system":"http://hl7.org/fhir/sid/icd-10-cm","code":"I48.0"},{"system":"http://snomed.info/sct","code":"5370000"}]},"subject":{"reference":"Patient/98fca12d-7318-4ed9-9267-4a8604553ed4"},"onsetDateTime":"2026-10-01T09:01:00.000Z","abatementDateTime":"2026-10-12T00:15:00.000Z"},"request":{"method":"PUT","url":"Condition/c12603b8-fd9b-4289-a4ee-c9512295673b"}},{"fullUrl":"https://madie.cms.gov/Encounter/1b371175-967c-44e7-a3df-97496ab9a50b","resource":{"resourceType":"Encounter","id":"1b371175-967c-44e7-a3df-97496ab9a50b","meta":{"profile":["http://hl7.org/fhir/us/qicore/StructureDefinition/qicore-encounter"]},"status":"finished","class":{"system":"http://terminology.hl7.org/CodeSystem/v3-ActCode","code":"EMER","display":"emergency"},"type":[{"coding":[{"system":"http://snomed.info/sct","code":"4525004"}]}],"subject":{"reference":"Patient/98fca12d-7318-4ed9-9267-4a8604553ed4"},"period":{"start":"2026-10-01T09:01:00.000Z","end":"2026-10-01T12:15:00.000Z"},"length":{"value":0,"unit":"days"}},"request":{"method":"PUT","url":"Encounter/1b371175-967c-44e7-a3df-97496ab9a50b"}},{"fullUrl":"https://madie.cms.gov/Encounter/5be73f31-0109-4d06-a4fb-ce93dcd71adc","resource":{"resourceType":"Encounter","id":"5be73f31-0109-4d06-a4fb-ce93dcd71adc","meta":{"profile":["http://hl7.org/fhir/us/qicore/StructureDefinition/qicore-encounter"]},"status":"finished","class":{"system":"http://terminology.hl7.org/CodeSystem/v3-ActCode","code":"IMP","display":"inpatient encounter"},"type":[{"coding":[{"system":"http://snomed.info/sct","code":"32485007"}]}],"subject":{"reference":"Patient/98fca12d-7318-4ed9-9267-4a8604553ed4"},"period":{"start":"2026-10-01T13:15:00.000Z","end":"2026-10-12T00:15:00.000Z"},"length":{"value":11,"unit":"days"},"diagnosis":[{"condition":{"reference":"Condition/b7cc315f-a03a-42b9-8df1-20f7b0b027b1"},"use":{"coding":[{"system":"http://terminology.hl7.org/CodeSystem/diagnosis-role","code":"billing","display":"Billing"}]},"rank":1}]},"request":{"method":"PUT","url":"Encounter/5be73f31-0109-4d06-a4fb-ce93dcd71adc"}},{"fullUrl":"https://madie.cms.gov/ServiceRequest/ebb5e10e-be62-459a-9425-1909b5f8aa81","resource":{"resourceType":"ServiceRequest","id":"ebb5e10e-be62-459a-9425-1909b5f8aa81","meta":{"profile":["http://hl7.org/fhir/us/qicore/StructureDefinition/qicore-servicerequest"]},"status":"active","intent":"order","doNotPerform":true,"code":{"coding":[{"system":"http://snomed.info/sct","code":"133918004"}]},"subject":{"reference":"Patient/98fca12d-7318-4ed9-9267-4a8604553ed4"},"authoredOn":"2026-10-01T09:15:00.000+00:00"},"request":{"method":"PUT","url":"ServiceRequest/ebb5e10e-be62-459a-9425-1909b5f8aa81"}},{"fullUrl":"https://madie.cms.gov/Coverage/9c1163e8-5299-4026-8f7b-2ae71ba78e0e","resource":{"resourceType":"Coverage","id":"9c1163e8-5299-4026-8f7b-2ae71ba78e0e","status":"active","beneficiary":{"reference":"Patient/98fca12d-7318-4ed9-9267-4a8604553ed4"},"period":{"start":"1986-09-18T08:00:00.000Z"},"payor":[{"reference":"Organization/880a275e-1cf2-4fb9-869b-f1d2173fdc2b"}]},"request":{"method":"PUT","url":"Coverage/9c1163e8-5299-4026-8f7b-2ae71ba78e0e"}},{"fullUrl":"https://madie.cms.gov/Condition/b7cc315f-a03a-42b9-8df1-20f7b0b027b1","resource":{"resourceType":"Condition","id":"b7cc315f-a03a-42b9-8df1-20f7b0b027b1","meta":{"profile":["http://hl7.org/fhir/us/qicore/StructureDefinition/qicore-condition"]},"clinicalStatus":{"coding":[{"system":"http://terminology.hl7.org/CodeSystem/condition-clinical","code":"active"}]},"verificationStatus":{"coding":[{"system":"http://terminology.hl7.org/CodeSystem/condition-ver-status","code":"confirmed"}]},"category":[{"coding":[{"system":"http://terminology.hl7.org/CodeSystem/condition-category","code":"encounter-diagnosis","display":"Encounter Diagnosis"}]}],"code":{"coding":[{"system":"http://snomed.info/sct","version":"2021-09","code":"111297002","display":"Nonparalytic stroke (disorder)","userSelected":true}]},"subject":{"reference":"Patient/98fca12d-7318-4ed9-9267-4a8604553ed4"},"recordedDate":"2026-10-13T08:00:00.000+00:00"},"request":{"method":"PUT","url":"Condition/b7cc315f-a03a-42b9-8df1-20f7b0b027b1"}},{"fullUrl":"https://madie.cms.gov/Organization/73d920ea-fff2-4d8c-9934-e50c07f4bbbb","resource":{"resourceType":"Organization","id":"880a275e-1cf2-4fb9-869b-f1d2173fdc2b","meta":{"profile":["http://hl7.org/fhir/us/qicore/StructureDefinition/qicore-organization"]},"identifier":[{"use":"temp","system":"urn:oid:2.16.840.1.113883.4.4","value":"21-3259825"}],"active":true,"type":[{"coding":[{"system":"http://terminology.hl7.org/CodeSystem/organization-type","code":"pay","display":"Payer"}]}],"name":"Blue Cross Blue Shield of Texas","telecom":[{"system":"phone","value":"(+1) 972-766-6900"}],"address":[{"use":"billing","type":"postal","line":["P.O. Box 660044"],"city":"Dallas","state":"TX","postalCode":"75266-0044","country":"USA"}]},"request":{"method":"PUT","url":"Organization/880a275e-1cf2-4fb9-869b-f1d2173fdc2b"}},{"fullUrl":"https://madie.cms.gov/Practitioner/5d8ffeb8-19ea-4381-bbad-14bdb8ce4b0d","resource":{"resourceType":"Practitioner","id":"5d8ffeb8-19ea-4381-bbad-14bdb8ce4b0d","identifier":[{"system":"http://hl7.org/fhir/sid/us-npi","value":"123456"}],"name":[{"family":"Evil","prefix":["Dr"]}]},"request":{"method":"PUT","url":"Practitioner/5d8ffeb8-19ea-4381-bbad-14bdb8ce4b0d"}},{"fullUrl":"https://madie.cms.gov/MeasureReport/4f0870b2-d05d-427c-a437-03b5118a0228","resource":{"resourceType":"MeasureReport","id":"4f0870b2-d05d-427c-a437-03b5118a0228","meta":{"profile":["http://hl7.org/fhir/us/cqfmeasures/StructureDefinition/test-case-cqfm"]},"contained":[{"resourceType":"Parameters","id":"45659473-2d3e-4e81-9bca-63a858b5c9de-parameters","parameter":[{"name":"subject","valueString":"98fca12d-7318-4ed9-9267-4a8604553ed4"}]}],"extension":[{"url":"http://hl7.org/fhir/us/cqfmeasures/StructureDefinition/cqfm-inputParameters","valueReference":{"reference":"#45659473-2d3e-4e81-9bca-63a858b5c9de-parameters"}},{"url":"http://hl7.org/fhir/us/cqfmeasures/StructureDefinition/cqfm-testCaseDescription","valueMarkdown":"Testing do not perform coverage"}],"modifierExtension":[{"url":"http://hl7.org/fhir/us/cqfmeasures/StructureDefinition/cqfm-isTestCase","valueBoolean":true}],"status":"complete","type":"individual","measure":"https://madie.cms.gov/Measure/CMS72FHIRSTKAntithromboticDay2","period":{"start":"2026-01-01","end":"2026-12-31"},"group":[{"population":[{"code":{"coding":[{"system":"http://terminology.hl7.org/CodeSystem/measure-population","code":"initial-population","display":"Initial Population"}]},"count":1},{"code":{"coding":[{"system":"http://terminology.hl7.org/CodeSystem/measure-population","code":"denominator","display":"Denominator"}]},"count":1},{"code":{"coding":[{"system":"http://terminology.hl7.org/CodeSystem/measure-population","code":"denominator-exclusion","display":"Denominator Exclusion"}]},"count":0},{"code":{"coding":[{"system":"http://terminology.hl7.org/CodeSystem/measure-population","code":"numerator","display":"Numerator"}]},"count":0},{"code":{"coding":[{"system":"http://terminology.hl7.org/CodeSystem/measure-population","code":"denominator-exception","display":"Denominator Exception"}]},"count":0}]}]},"request":{"method":"PUT","url":"MeasureReport/4f0870b2-d05d-427c-a437-03b5118a0228"}}]}