{"resourceType":"Bundle","id":"tests-2f903eca-0960-478a-b9d6-6f63cc587fe5-bundle","type":"transaction","entry":[{"fullUrl":"https://madie.cms.gov/Patient/2f903eca-0960-478a-b9d6-6f63cc587fe5","resource":{"resourceType":"Patient","id":"2f903eca-0960-478a-b9d6-6f63cc587fe5","meta":{"profile":["http://hl7.org/fhir/us/qicore/StructureDefinition/qicore-patient"]},"text":{"status":"generated","div":"<div xmlns=\"http://www.w3.org/1999/xhtml\"><div class=\"hapiHeaderText\">MedAdmPatRefus_eq1dayduringEncIP <b>DENEXCEPPASS </b></div><table class=\"hapiPropertyTable\"><tbody><tr><td>Identifier</td><td>010e27e50a0e91003709500e7c217129</td></tr><tr><td>Date of birth</td><td><span>26 September 1975</span></td></tr></tbody></table></div>"},"extension":[{"url":"http://hl7.org/fhir/us/core/StructureDefinition/us-core-race","extension":[{"url":"ombCategory","valueCoding":{"system":"urn:oid:2.16.840.1.113883.6.238","code":"2054-5","display":"Black or African American","userSelected":true}},{"url":"text","valueString":"Black or African American"}]},{"url":"http://hl7.org/fhir/us/core/StructureDefinition/us-core-ethnicity","extension":[{"url":"ombCategory","valueCoding":{"system":"urn:oid:2.16.840.1.113883.6.238","code":"2186-5","display":"Not Hispanic or Latino","userSelected":true}},{"url":"text","valueString":"Not Hispanic or Latino"}]}],"identifier":[{"type":{"coding":[{"system":"http://terminology.hl7.org/CodeSystem/v2-0203","code":"MR"}]},"system":"https://bonnie-fhir.healthit.gov/","value":"60f82c2e98086b570510e296"}],"active":true,"name":[{"use":"usual","family":"DENEXCEPPass","given":["MedAdmPatRefus_eq1dayduringEncIP"]}],"gender":"female","birthDate":"1976-09-26"},"request":{"method":"PUT","url":"Patient/2f903eca-0960-478a-b9d6-6f63cc587fe5"}},{"fullUrl":"https://madie.cms.gov/Encounter/c76cd0cc-6f55-401a-bd25-1ab1163363a0","resource":{"resourceType":"Encounter","id":"c76cd0cc-6f55-401a-bd25-1ab1163363a0","meta":{"profile":["http://hl7.org/fhir/us/qicore/StructureDefinition/qicore-encounter"]},"status":"finished","class":{"system":"http://terminology.hl7.org/CodeSystem/v3-ActCode","code":"IMP","display":"inpatient encounter","userSelected":true},"type":[{"coding":[{"system":"http://snomed.info/sct","code":"32485007"}]}],"subject":{"reference":"Patient/2f903eca-0960-478a-b9d6-6f63cc587fe5"},"period":{"start":"2026-10-10T09:00:00+00:00","end":"2026-10-12T11:15:00+00:00"},"length":{"value":2,"unit":"days"},"diagnosis":[{"condition":{"reference":"Condition/b3b9e129-a864-45fe-945e-09fb151c1d46"},"use":{"coding":[{"system":"http://terminology.hl7.org/CodeSystem/diagnosis-role","code":"billing","display":"Billing"}]},"rank":1}]},"request":{"method":"PUT","url":"Encounter/c76cd0cc-6f55-401a-bd25-1ab1163363a0"}},{"fullUrl":"https://madie.cms.gov/MedicationAdministration/cb9dc932-f5e4-4344-b324-c4d0db302812","resource":{"resourceType":"MedicationAdministration","id":"cb9dc932-f5e4-4344-b324-c4d0db302812","meta":{"profile":["http://hl7.org/fhir/us/qicore/StructureDefinition/qicore-mednotadministered"]},"extension":[{"url":"http://hl7.org/fhir/us/qicore/StructureDefinition/qicore-recorded","valueDateTime":"2026-10-11T09:00:00+00:00"}],"status":"not-done","statusReason":[{"coding":[{"system":"http://snomed.info/sct","code":"443390004"}]}],"medicationCodeableConcept":{"coding":[{"system":"http://www.nlm.nih.gov/research/umls/rxnorm","code":"1037045"}]},"subject":{"reference":"Patient/2f903eca-0960-478a-b9d6-6f63cc587fe5"},"effectivePeriod":{"start":"2026-10-11T09:00:00+00:00"}},"request":{"method":"PUT","url":"MedicationAdministration/cb9dc932-f5e4-4344-b324-c4d0db302812"}},{"fullUrl":"https://madie.cms.gov/Coverage/076e9c72-c1fc-46c1-a9a1-b9a6d62d228d","resource":{"resourceType":"Coverage","id":"076e9c72-c1fc-46c1-a9a1-b9a6d62d228d","status":"active","beneficiary":{"reference":"Patient/2f903eca-0960-478a-b9d6-6f63cc587fe5"},"period":{"start":"1976-09-26T08:00:00+00:00"},"payor":[{"reference":"Organization/f7da4368-fb6d-4d73-a75b-f78024cbb18d"}]},"request":{"method":"PUT","url":"Coverage/076e9c72-c1fc-46c1-a9a1-b9a6d62d228d"}},{"fullUrl":"https://madie.cms.gov/Condition/b3b9e129-a864-45fe-945e-09fb151c1d46","resource":{"resourceType":"Condition","id":"b3b9e129-a864-45fe-945e-09fb151c1d46","meta":{"profile":["http://hl7.org/fhir/us/qicore/StructureDefinition/qicore-condition"]},"clinicalStatus":{"coding":[{"system":"http://terminology.hl7.org/CodeSystem/condition-clinical","code":"active"}]},"verificationStatus":{"coding":[{"system":"http://terminology.hl7.org/CodeSystem/condition-ver-status","code":"confirmed"}]},"category":[{"coding":[{"system":"http://terminology.hl7.org/CodeSystem/condition-category","code":"encounter-diagnosis","display":"Encounter Diagnosis"}]}],"code":{"coding":[{"system":"http://snomed.info/sct","version":"2020-09","code":"111297002","display":"Nonparalytic stroke (disorder)","userSelected":true}]},"subject":{"reference":"Patient/2f903eca-0960-478a-b9d6-6f63cc587fe5"},"recordedDate":"2026-08-06T08:00:00.000+00:00"},"request":{"method":"PUT","url":"Condition/b3b9e129-a864-45fe-945e-09fb151c1d46"}},{"fullUrl":"https://madie.cms.gov/Organization/0007c8a0-c034-4e49-a57a-bd518049591f","resource":{"resourceType":"Organization","id":"f7da4368-fb6d-4d73-a75b-f78024cbb18d","meta":{"profile":["http://hl7.org/fhir/us/qicore/StructureDefinition/qicore-organization"]},"identifier":[{"use":"temp","system":"urn:oid:2.16.840.1.113883.4.4","value":"21-3259825"}],"active":true,"type":[{"coding":[{"system":"http://terminology.hl7.org/CodeSystem/organization-type","code":"pay","display":"Payer"}]}],"name":"Blue Cross Blue Shield of Texas","telecom":[{"system":"phone","value":"(+1) 972-766-6900"}],"address":[{"use":"billing","type":"postal","line":["P.O. Box 660044"],"city":"Dallas","state":"TX","postalCode":"75266-0044","country":"USA"}]},"request":{"method":"PUT","url":"Organization/f7da4368-fb6d-4d73-a75b-f78024cbb18d"}},{"fullUrl":"https://madie.cms.gov/MeasureReport/33253d75-9e04-405f-8d9b-d62f58811db4","resource":{"resourceType":"MeasureReport","id":"33253d75-9e04-405f-8d9b-d62f58811db4","meta":{"profile":["http://hl7.org/fhir/us/cqfmeasures/StructureDefinition/test-case-cqfm"]},"contained":[{"resourceType":"Parameters","id":"e29a45d8-6544-47f5-b63d-50581bf7c1f2-parameters","parameter":[{"name":"subject","valueString":"2f903eca-0960-478a-b9d6-6f63cc587fe5"}]}],"extension":[{"url":"http://hl7.org/fhir/us/cqfmeasures/StructureDefinition/cqfm-inputParameters","valueReference":{"reference":"#e29a45d8-6544-47f5-b63d-50581bf7c1f2-parameters"}},{"url":"http://hl7.org/fhir/us/cqfmeasures/StructureDefinition/cqfm-testCaseDescription","valueMarkdown":"antithrombotic order not done due to patient refusal = 1 day after IP encounter starts AND NOT ED visit\n"}],"modifierExtension":[{"url":"http://hl7.org/fhir/us/cqfmeasures/StructureDefinition/cqfm-isTestCase","valueBoolean":true}],"status":"complete","type":"individual","measure":"https://madie.cms.gov/Measure/CMS72FHIRSTKAntithromboticDay2","period":{"start":"2026-01-01","end":"2026-12-31"},"group":[{"population":[{"code":{"coding":[{"system":"http://terminology.hl7.org/CodeSystem/measure-population","code":"initial-population","display":"Initial Population"}]},"count":1},{"code":{"coding":[{"system":"http://terminology.hl7.org/CodeSystem/measure-population","code":"denominator","display":"Denominator"}]},"count":1},{"code":{"coding":[{"system":"http://terminology.hl7.org/CodeSystem/measure-population","code":"denominator-exclusion","display":"Denominator Exclusion"}]},"count":0},{"code":{"coding":[{"system":"http://terminology.hl7.org/CodeSystem/measure-population","code":"numerator","display":"Numerator"}]},"count":0},{"code":{"coding":[{"system":"http://terminology.hl7.org/CodeSystem/measure-population","code":"denominator-exception","display":"Denominator Exception"}]},"count":1}]}]},"request":{"method":"PUT","url":"MeasureReport/33253d75-9e04-405f-8d9b-d62f58811db4"}}]}