{"resourceType":"Bundle","id":"tests-838686e9-cf68-4c08-8865-cb7fa2f257fb-bundle","type":"transaction","entry":[{"fullUrl":"https://madie.cms.gov/Patient/838686e9-cf68-4c08-8865-cb7fa2f257fb","resource":{"resourceType":"Patient","id":"838686e9-cf68-4c08-8865-cb7fa2f257fb","meta":{"profile":["http://hl7.org/fhir/us/qicore/StructureDefinition/qicore-patient"]},"text":{"status":"generated","div":"<div xmlns=\"http://www.w3.org/1999/xhtml\"><div class=\"hapiHeaderText\">CMP=1Day_DuringEncIP_noEd <b>DENEXPASS </b></div><table class=\"hapiPropertyTable\"><tbody><tr><td>Identifier</td><td>f0673fe2527f04d98550daeffb2b49c3</td></tr><tr><td>Date of birth</td><td><span>26 September 1975</span></td></tr></tbody></table></div>"},"extension":[{"url":"http://hl7.org/fhir/us/core/StructureDefinition/us-core-race","extension":[{"url":"ombCategory","valueCoding":{"system":"urn:oid:2.16.840.1.113883.6.238","code":"2054-5","display":"Black or African American","userSelected":true}},{"url":"text","valueString":"Black or African American"}]},{"url":"http://hl7.org/fhir/us/core/StructureDefinition/us-core-ethnicity","extension":[{"url":"ombCategory","valueCoding":{"system":"urn:oid:2.16.840.1.113883.6.238","code":"2186-5","display":"Not Hispanic or Latino","userSelected":true}},{"url":"text","valueString":"Not Hispanic or Latino"}]}],"identifier":[{"type":{"coding":[{"system":"http://terminology.hl7.org/CodeSystem/v2-0203","code":"MR"}]},"system":"https://bonnie-fhir.healthit.gov/","value":"60f82c2e98086b570510e289"}],"active":true,"name":[{"use":"usual","family":"DENEXPass","given":["CMP=1Day_DuringEncIP_noEd"]}],"gender":"female","birthDate":"1976-09-26"},"request":{"method":"PUT","url":"Patient/838686e9-cf68-4c08-8865-cb7fa2f257fb"}},{"fullUrl":"https://madie.cms.gov/Encounter/f8c3749c-6c62-443c-8e1e-100e50117802","resource":{"resourceType":"Encounter","id":"f8c3749c-6c62-443c-8e1e-100e50117802","meta":{"profile":["http://hl7.org/fhir/us/qicore/StructureDefinition/qicore-encounter"]},"status":"finished","class":{"system":"http://terminology.hl7.org/CodeSystem/v3-ActCode","code":"IMP","display":"inpatient encounter","userSelected":true},"type":[{"coding":[{"system":"http://snomed.info/sct","code":"32485007"}]}],"subject":{"reference":"Patient/838686e9-cf68-4c08-8865-cb7fa2f257fb"},"period":{"start":"2026-10-10T06:16:00+00:00","end":"2026-10-12T06:31:00+00:00"},"length":{"value":2,"unit":"days"},"diagnosis":[{"condition":{"reference":"Condition/d29d1886-f719-4ed1-b0dd-f13c811f8aba"},"use":{"coding":[{"system":"http://terminology.hl7.org/CodeSystem/diagnosis-role","code":"billing","display":"Billing"}]},"rank":1}]},"request":{"method":"PUT","url":"Encounter/f8c3749c-6c62-443c-8e1e-100e50117802"}},{"fullUrl":"https://madie.cms.gov/Procedure/a52d6c0b-d74c-4797-834a-f0d699a100b6","resource":{"resourceType":"Procedure","id":"a52d6c0b-d74c-4797-834a-f0d699a100b6","meta":{"profile":["http://hl7.org/fhir/us/qicore/StructureDefinition/qicore-procedure"]},"extension":[{"url":"http://hl7.org/fhir/us/qicore/StructureDefinition/qicore-recorded","valueDateTime":"2026-11-19T09:35:00-04:00"}],"status":"completed","code":{"coding":[{"system":"http://snomed.info/sct","code":"133918004"}]},"subject":{"reference":"Patient/838686e9-cf68-4c08-8865-cb7fa2f257fb"},"performedPeriod":{"start":"2026-10-11T23:59:00+00:00"}},"request":{"method":"PUT","url":"Procedure/a52d6c0b-d74c-4797-834a-f0d699a100b6"}},{"fullUrl":"https://madie.cms.gov/Coverage/f5ef4320-444a-4516-bd15-20b82fc548ea","resource":{"resourceType":"Coverage","id":"f5ef4320-444a-4516-bd15-20b82fc548ea","status":"active","beneficiary":{"reference":"Patient/838686e9-cf68-4c08-8865-cb7fa2f257fb"},"period":{"start":"1976-09-26T08:00:00+00:00"},"payor":[{"reference":"Organization/3e899f33-84eb-4634-a770-a5a0bd7a80e7"}]},"request":{"method":"PUT","url":"Coverage/f5ef4320-444a-4516-bd15-20b82fc548ea"}},{"fullUrl":"https://madie.cms.gov/Condition/d29d1886-f719-4ed1-b0dd-f13c811f8aba","resource":{"resourceType":"Condition","id":"d29d1886-f719-4ed1-b0dd-f13c811f8aba","meta":{"profile":["http://hl7.org/fhir/us/qicore/StructureDefinition/qicore-condition"]},"clinicalStatus":{"coding":[{"system":"http://terminology.hl7.org/CodeSystem/condition-clinical","code":"active"}]},"verificationStatus":{"coding":[{"system":"http://terminology.hl7.org/CodeSystem/condition-ver-status","code":"confirmed"}]},"category":[{"coding":[{"system":"http://terminology.hl7.org/CodeSystem/condition-category","code":"encounter-diagnosis","display":"Encounter Diagnosis"}]}],"code":{"coding":[{"system":"http://snomed.info/sct","version":"2020-09","code":"111297002","display":"Nonparalytic stroke (disorder)","userSelected":true}]},"subject":{"reference":"Patient/838686e9-cf68-4c08-8865-cb7fa2f257fb"},"recordedDate":"2026-08-13T08:00:00.000+00:00"},"request":{"method":"PUT","url":"Condition/d29d1886-f719-4ed1-b0dd-f13c811f8aba"}},{"fullUrl":"https://madie.cms.gov/Organization/42b1f961-a159-435d-b140-0d14509afd74","resource":{"resourceType":"Organization","id":"3e899f33-84eb-4634-a770-a5a0bd7a80e7","meta":{"profile":["http://hl7.org/fhir/us/qicore/StructureDefinition/qicore-organization"]},"identifier":[{"use":"temp","system":"urn:oid:2.16.840.1.113883.4.4","value":"21-3259825"}],"active":true,"type":[{"coding":[{"system":"http://terminology.hl7.org/CodeSystem/organization-type","code":"pay","display":"Payer"}]}],"name":"Blue Cross Blue Shield of Texas","telecom":[{"system":"phone","value":"(+1) 972-766-6900"}],"address":[{"use":"billing","type":"postal","line":["P.O. Box 660044"],"city":"Dallas","state":"TX","postalCode":"75266-0044","country":"USA"}]},"request":{"method":"PUT","url":"Organization/3e899f33-84eb-4634-a770-a5a0bd7a80e7"}},{"fullUrl":"https://madie.cms.gov/MeasureReport/3332b91d-f59c-4ddc-867e-756165d5f7aa","resource":{"resourceType":"MeasureReport","id":"3332b91d-f59c-4ddc-867e-756165d5f7aa","meta":{"profile":["http://hl7.org/fhir/us/cqfmeasures/StructureDefinition/test-case-cqfm"]},"contained":[{"resourceType":"Parameters","id":"0aa6f40d-d357-45ff-8b0e-9076d2bb9da4-parameters","parameter":[{"name":"subject","valueString":"838686e9-cf68-4c08-8865-cb7fa2f257fb"}]}],"extension":[{"url":"http://hl7.org/fhir/us/cqfmeasures/StructureDefinition/cqfm-inputParameters","valueReference":{"reference":"#0aa6f40d-d357-45ff-8b0e-9076d2bb9da4-parameters"}},{"url":"http://hl7.org/fhir/us/cqfmeasures/StructureDefinition/cqfm-testCaseDescription","valueMarkdown":"Patient receives comfort measures performed <= 1 (=1 day) of IP encounter\n"}],"modifierExtension":[{"url":"http://hl7.org/fhir/us/cqfmeasures/StructureDefinition/cqfm-isTestCase","valueBoolean":true}],"status":"complete","type":"individual","measure":"https://madie.cms.gov/Measure/CMS72FHIRSTKAntithromboticDay2","period":{"start":"2026-01-01","end":"2026-12-31"},"group":[{"population":[{"code":{"coding":[{"system":"http://terminology.hl7.org/CodeSystem/measure-population","code":"initial-population","display":"Initial Population"}]},"count":1},{"code":{"coding":[{"system":"http://terminology.hl7.org/CodeSystem/measure-population","code":"denominator","display":"Denominator"}]},"count":1},{"code":{"coding":[{"system":"http://terminology.hl7.org/CodeSystem/measure-population","code":"denominator-exclusion","display":"Denominator Exclusion"}]},"count":1},{"code":{"coding":[{"system":"http://terminology.hl7.org/CodeSystem/measure-population","code":"numerator","display":"Numerator"}]},"count":0},{"code":{"coding":[{"system":"http://terminology.hl7.org/CodeSystem/measure-population","code":"denominator-exception","display":"Denominator Exception"}]},"count":0}]}]},"request":{"method":"PUT","url":"MeasureReport/3332b91d-f59c-4ddc-867e-756165d5f7aa"}}]}