{"resourceType":"Bundle","id":"tests-7d9affce-5c31-4fcb-b9e5-c0304c3f9406-bundle","type":"transaction","entry":[{"fullUrl":"https://madie.cms.gov/Patient/7d9affce-5c31-4fcb-b9e5-c0304c3f9406","resource":{"resourceType":"Patient","id":"7d9affce-5c31-4fcb-b9e5-c0304c3f9406","meta":{"profile":["http://hl7.org/fhir/us/qicore/StructureDefinition/qicore-patient"]},"text":{"status":"generated","div":"<div xmlns=\"http://www.w3.org/1999/xhtml\"><div class=\"hapiHeaderText\">PharmContraDayOfObs_ED&gt;1hrObs&gt;1hrBFEncDayOf <b>DENEXCEPPASS </b></div><table class=\"hapiPropertyTable\"><tbody><tr><td>Identifier</td><td>dbfd2d599cefda8ae73cccaed9a99adfa89e85cfcce7bb076766e3c2add6d39c</td></tr><tr><td>Date of birth</td><td><span>26 September 1975</span></td></tr></tbody></table></div>"},"extension":[{"url":"http://hl7.org/fhir/us/core/StructureDefinition/us-core-race","extension":[{"url":"ombCategory","valueCoding":{"system":"urn:oid:2.16.840.1.113883.6.238","code":"2054-5","display":"Black or African American","userSelected":true}},{"url":"text","valueString":"Black or African American"}]},{"url":"http://hl7.org/fhir/us/core/StructureDefinition/us-core-ethnicity","extension":[{"url":"ombCategory","valueCoding":{"system":"urn:oid:2.16.840.1.113883.6.238","code":"2186-5","display":"Not Hispanic or Latino","userSelected":true}},{"url":"text","valueString":"Not Hispanic or Latino"}]}],"identifier":[{"type":{"coding":[{"system":"http://terminology.hl7.org/CodeSystem/v2-0203","code":"MR"}]},"system":"https://bonnie-fhir.healthit.gov/","value":"60f82c2f98086b570510e2a3"}],"active":true,"name":[{"use":"usual","family":"DENEXCEPPass","given":["PharmContraDayOfObs_ED>1hrObs>1hrBFEncDayOf"]}],"gender":"female","birthDate":"1976-09-26"},"request":{"method":"PUT","url":"Patient/7d9affce-5c31-4fcb-b9e5-c0304c3f9406"}},{"fullUrl":"https://madie.cms.gov/Encounter/c28ba666-a2f6-4840-b1a4-1a05688e2fac","resource":{"resourceType":"Encounter","id":"c28ba666-a2f6-4840-b1a4-1a05688e2fac","meta":{"profile":["http://hl7.org/fhir/us/qicore/StructureDefinition/qicore-encounter"]},"status":"finished","class":{"system":"http://terminology.hl7.org/CodeSystem/v3-ActCode","code":"EMER","display":"emergency","userSelected":true},"type":[{"coding":[{"system":"http://snomed.info/sct","code":"4525004"}]}],"subject":{"reference":"Patient/7d9affce-5c31-4fcb-b9e5-c0304c3f9406"},"period":{"start":"2026-10-10T09:00:00+00:00","end":"2026-10-10T09:15:00+00:00"},"length":{"value":0,"unit":"days"}},"request":{"method":"PUT","url":"Encounter/c28ba666-a2f6-4840-b1a4-1a05688e2fac"}},{"fullUrl":"https://madie.cms.gov/Encounter/b411e863-feb3-4315-af1f-863b3edc54c6","resource":{"resourceType":"Encounter","id":"b411e863-feb3-4315-af1f-863b3edc54c6","meta":{"profile":["http://hl7.org/fhir/us/qicore/StructureDefinition/qicore-encounter"]},"status":"finished","class":{"system":"http://terminology.hl7.org/CodeSystem/v3-ActCode","code":"OBSENC","display":"observation encounter","userSelected":true},"type":[{"coding":[{"system":"http://snomed.info/sct","code":"448851000124103"}]}],"subject":{"reference":"Patient/7d9affce-5c31-4fcb-b9e5-c0304c3f9406"},"period":{"start":"2026-10-10T10:16:00+00:00","end":"2026-10-10T11:15:00+00:00"},"length":{"value":0,"unit":"days"}},"request":{"method":"PUT","url":"Encounter/b411e863-feb3-4315-af1f-863b3edc54c6"}},{"fullUrl":"https://madie.cms.gov/Encounter/1bf91dda-1b25-4999-bb8e-2f1ba0101cd0","resource":{"resourceType":"Encounter","id":"1bf91dda-1b25-4999-bb8e-2f1ba0101cd0","meta":{"profile":["http://hl7.org/fhir/us/qicore/StructureDefinition/qicore-encounter"]},"status":"finished","class":{"system":"http://terminology.hl7.org/CodeSystem/v3-ActCode","code":"IMP","display":"inpatient encounter","userSelected":true},"type":[{"coding":[{"system":"http://snomed.info/sct","code":"32485007"}]}],"subject":{"reference":"Patient/7d9affce-5c31-4fcb-b9e5-c0304c3f9406"},"period":{"start":"2026-10-10T12:16:00+00:00","end":"2026-10-13T10:15:00+00:00"},"length":{"value":3,"unit":"days"},"diagnosis":[{"condition":{"reference":"Condition/90201b35-108b-489a-9773-1d9b38047e08"},"use":{"coding":[{"system":"http://terminology.hl7.org/CodeSystem/diagnosis-role","code":"billing","display":"Billing"}]},"rank":1}]},"request":{"method":"PUT","url":"Encounter/1bf91dda-1b25-4999-bb8e-2f1ba0101cd0"}},{"fullUrl":"https://madie.cms.gov/MedicationAdministration/9a14c771-9822-48d5-a0e6-becc6e6f4f27","resource":{"resourceType":"MedicationAdministration","id":"9a14c771-9822-48d5-a0e6-becc6e6f4f27","meta":{"profile":["http://hl7.org/fhir/us/qicore/StructureDefinition/qicore-medicationadministration"]},"status":"completed","medicationCodeableConcept":{"coding":[{"system":"http://www.nlm.nih.gov/research/umls/rxnorm","code":"855812","display":"prasugrel 10 MG Oral Tablet","userSelected":true}]},"subject":{"reference":"Patient/7d9affce-5c31-4fcb-b9e5-c0304c3f9406"},"effectivePeriod":{"start":"2026-10-10T10:16:00+00:00"}},"request":{"method":"PUT","url":"MedicationAdministration/9a14c771-9822-48d5-a0e6-becc6e6f4f27"}},{"fullUrl":"https://madie.cms.gov/Coverage/a3e38243-a993-4f29-9d0a-0f22c5161b29","resource":{"resourceType":"Coverage","id":"a3e38243-a993-4f29-9d0a-0f22c5161b29","status":"active","beneficiary":{"reference":"Patient/7d9affce-5c31-4fcb-b9e5-c0304c3f9406"},"period":{"start":"1976-09-26T08:00:00+00:00"},"payor":[{"reference":"Organization/f4907415-83c5-4eae-ab0b-cb63a840880d"}]},"request":{"method":"PUT","url":"Coverage/a3e38243-a993-4f29-9d0a-0f22c5161b29"}},{"fullUrl":"https://madie.cms.gov/Condition/90201b35-108b-489a-9773-1d9b38047e08","resource":{"resourceType":"Condition","id":"90201b35-108b-489a-9773-1d9b38047e08","meta":{"profile":["http://hl7.org/fhir/us/qicore/StructureDefinition/qicore-condition"]},"clinicalStatus":{"coding":[{"system":"http://terminology.hl7.org/CodeSystem/condition-clinical","code":"active"}]},"verificationStatus":{"coding":[{"system":"http://terminology.hl7.org/CodeSystem/condition-ver-status","code":"confirmed"}]},"category":[{"coding":[{"system":"http://terminology.hl7.org/CodeSystem/condition-category","code":"encounter-diagnosis","display":"Encounter Diagnosis"}]}],"code":{"coding":[{"system":"http://snomed.info/sct","version":"2020-09","code":"111297002","display":"Nonparalytic stroke (disorder)","userSelected":true}]},"subject":{"reference":"Patient/7d9affce-5c31-4fcb-b9e5-c0304c3f9406"},"recordedDate":"2026-08-06T08:00:00.000+00:00"},"request":{"method":"PUT","url":"Condition/90201b35-108b-489a-9773-1d9b38047e08"}},{"fullUrl":"https://madie.cms.gov/Organization/03bd57bb-a0a8-458d-9697-f1ebe9424b96","resource":{"resourceType":"Organization","id":"f4907415-83c5-4eae-ab0b-cb63a840880d","meta":{"profile":["http://hl7.org/fhir/us/qicore/StructureDefinition/qicore-organization"]},"identifier":[{"use":"temp","system":"urn:oid:2.16.840.1.113883.4.4","value":"21-3259825"}],"active":true,"type":[{"coding":[{"system":"http://terminology.hl7.org/CodeSystem/organization-type","code":"pay","display":"Payer"}]}],"name":"Blue Cross Blue Shield of Texas","telecom":[{"system":"phone","value":"(+1) 972-766-6900"}],"address":[{"use":"billing","type":"postal","line":["P.O. Box 660044"],"city":"Dallas","state":"TX","postalCode":"75266-0044","country":"USA"}]},"request":{"method":"PUT","url":"Organization/f4907415-83c5-4eae-ab0b-cb63a840880d"}},{"fullUrl":"https://madie.cms.gov/MeasureReport/5db99cee-c088-4d35-ac16-0b0cfd5aa33b","resource":{"resourceType":"MeasureReport","id":"5db99cee-c088-4d35-ac16-0b0cfd5aa33b","meta":{"profile":["http://hl7.org/fhir/us/cqfmeasures/StructureDefinition/test-case-cqfm"]},"contained":[{"resourceType":"Parameters","id":"27d80c38-2fa0-4348-9a07-4ec2964a3adf-parameters","parameter":[{"name":"subject","valueString":"7d9affce-5c31-4fcb-b9e5-c0304c3f9406"}]}],"extension":[{"url":"http://hl7.org/fhir/us/cqfmeasures/StructureDefinition/cqfm-inputParameters","valueReference":{"reference":"#27d80c38-2fa0-4348-9a07-4ec2964a3adf-parameters"}},{"url":"http://hl7.org/fhir/us/cqfmeasures/StructureDefinition/cqfm-testCaseDescription","valueMarkdown":"Patient receives Ticagrelor the day of Obs. ED ends 61 min before Obs.Obs ends 61 min before IP all on the same day. Testing Day of operator with HospitalizationWithObservation function.\n"}],"modifierExtension":[{"url":"http://hl7.org/fhir/us/cqfmeasures/StructureDefinition/cqfm-isTestCase","valueBoolean":true}],"status":"complete","type":"individual","measure":"https://madie.cms.gov/Measure/CMS72FHIRSTKAntithromboticDay2","period":{"start":"2026-01-01","end":"2026-12-31"},"group":[{"population":[{"code":{"coding":[{"system":"http://terminology.hl7.org/CodeSystem/measure-population","code":"initial-population","display":"Initial Population"}]},"count":1},{"code":{"coding":[{"system":"http://terminology.hl7.org/CodeSystem/measure-population","code":"denominator","display":"Denominator"}]},"count":1},{"code":{"coding":[{"system":"http://terminology.hl7.org/CodeSystem/measure-population","code":"denominator-exclusion","display":"Denominator Exclusion"}]},"count":0},{"code":{"coding":[{"system":"http://terminology.hl7.org/CodeSystem/measure-population","code":"numerator","display":"Numerator"}]},"count":0},{"code":{"coding":[{"system":"http://terminology.hl7.org/CodeSystem/measure-population","code":"denominator-exception","display":"Denominator Exception"}]},"count":1}]}]},"request":{"method":"PUT","url":"MeasureReport/5db99cee-c088-4d35-ac16-0b0cfd5aa33b"}}]}