{"resourceType":"Bundle","id":"tests-c21e25c9-a450-4e08-b9be-f0ca9dac5389-bundle","type":"transaction","entry":[{"fullUrl":"https://madie.cms.gov/Patient/c21e25c9-a450-4e08-b9be-f0ca9dac5389","resource":{"resourceType":"Patient","id":"c21e25c9-a450-4e08-b9be-f0ca9dac5389","meta":{"profile":["http://hl7.org/fhir/us/qicore/StructureDefinition/qicore-patient"]},"text":{"status":"generated","div":"<div xmlns=\"http://www.w3.org/1999/xhtml\"><div class=\"hapiHeaderText\">CMO_DayOf_AuthDat_1minB4EDStart_EDEndLT1hrB4Obs_ObsEndLT1hrB4IP <b>DENEXPASS </b></div><table class=\"hapiPropertyTable\"><tbody><tr><td>Date of birth</td><td><span>01 January 1980</span></td></tr></tbody></table></div>"},"extension":[{"url":"http://hl7.org/fhir/us/core/StructureDefinition/us-core-race","extension":[{"url":"ombCategory","valueCoding":{"system":"urn:oid:2.16.840.1.113883.6.238","code":"2106-3","display":"White","userSelected":true}},{"url":"text","valueString":"White"}]},{"url":"http://hl7.org/fhir/us/core/StructureDefinition/us-core-ethnicity","extension":[{"url":"ombCategory","valueCoding":{"system":"urn:oid:2.16.840.1.113883.6.238","code":"2186-5","display":"Not Hispanic or Latino","userSelected":true}},{"url":"text","valueString":"Not Hispanic or Latino"}]}],"identifier":[{"type":{"coding":[{"system":"http://terminology.hl7.org/CodeSystem/v2-0203","code":"MR"}]},"system":"https://bonnie-fhir.healthit.gov/","value":"60f82c3098086b570510e2f4"}],"active":true,"name":[{"use":"usual","family":"DENEXPass","given":["CMO_DayOf_AuthDat_1minB4EDStart_EDEndLT1hrB4Obs_ObsEndLT1hrB4IP"]}],"gender":"female","birthDate":"1981-01-01"},"request":{"method":"PUT","url":"Patient/c21e25c9-a450-4e08-b9be-f0ca9dac5389"}},{"fullUrl":"https://madie.cms.gov/Encounter/7c84631c-1aa4-40d8-abb5-ce648c147ae9","resource":{"resourceType":"Encounter","id":"7c84631c-1aa4-40d8-abb5-ce648c147ae9","meta":{"profile":["http://hl7.org/fhir/us/qicore/StructureDefinition/qicore-encounter"]},"status":"finished","class":{"system":"http://terminology.hl7.org/CodeSystem/v3-ActCode","code":"EMER","display":"emergency","userSelected":true},"type":[{"coding":[{"system":"http://snomed.info/sct","code":"4525004"}]}],"subject":{"reference":"Patient/c21e25c9-a450-4e08-b9be-f0ca9dac5389"},"period":{"start":"2026-11-18T07:00:00+00:00","end":"2026-11-18T08:01:00+00:00"},"diagnosis":[{"condition":{"reference":"Condition/a1100701-ab93-460c-9e54-ad204d397501"},"use":{"coding":[{"system":"http://terminology.hl7.org/CodeSystem/diagnosis-role","code":"billing","display":"Billing"}]},"rank":1}]},"request":{"method":"PUT","url":"Encounter/7c84631c-1aa4-40d8-abb5-ce648c147ae9"}},{"fullUrl":"https://madie.cms.gov/Encounter/6b34e03a-9c54-4fee-95c7-c62ad2e5e222","resource":{"resourceType":"Encounter","id":"6b34e03a-9c54-4fee-95c7-c62ad2e5e222","meta":{"profile":["http://hl7.org/fhir/us/qicore/StructureDefinition/qicore-encounter"]},"status":"finished","class":{"system":"http://terminology.hl7.org/CodeSystem/v3-ActCode","code":"OBSENC","display":"observation encounter","userSelected":true},"type":[{"coding":[{"system":"http://snomed.info/sct","code":"448951000124107"}]}],"subject":{"reference":"Patient/c21e25c9-a450-4e08-b9be-f0ca9dac5389"},"period":{"start":"2026-11-18T09:00:00+00:00","end":"2026-11-18T10:01:00+00:00"}},"request":{"method":"PUT","url":"Encounter/6b34e03a-9c54-4fee-95c7-c62ad2e5e222"}},{"fullUrl":"https://madie.cms.gov/Encounter/0df72c5f-e24d-4079-af9c-7a60eb356280","resource":{"resourceType":"Encounter","id":"0df72c5f-e24d-4079-af9c-7a60eb356280","meta":{"profile":["http://hl7.org/fhir/us/qicore/StructureDefinition/qicore-encounter"]},"status":"finished","class":{"system":"http://terminology.hl7.org/CodeSystem/v3-ActCode","code":"IMP","display":"inpatient encounter","userSelected":true},"type":[{"coding":[{"system":"http://snomed.info/sct","code":"183452005"}]}],"subject":{"reference":"Patient/c21e25c9-a450-4e08-b9be-f0ca9dac5389"},"period":{"start":"2026-11-18T11:00:00+00:00","end":"2026-11-20T08:15:00+00:00"},"diagnosis":[{"condition":{"reference":"Condition/a1100701-ab93-460c-9e54-ad204d397501"},"use":{"coding":[{"system":"http://terminology.hl7.org/CodeSystem/diagnosis-role","code":"billing","display":"Billing"}]},"rank":1}]},"request":{"method":"PUT","url":"Encounter/0df72c5f-e24d-4079-af9c-7a60eb356280"}},{"fullUrl":"https://madie.cms.gov/ServiceRequest/65d95536-64c1-4338-b300-451c647a399b","resource":{"resourceType":"ServiceRequest","id":"65d95536-64c1-4338-b300-451c647a399b","meta":{"profile":["http://hl7.org/fhir/us/qicore/StructureDefinition/qicore-servicerequest"]},"status":"active","intent":"order","code":{"coding":[{"system":"http://snomed.info/sct","code":"133918004"}]},"subject":{"reference":"Patient/c21e25c9-a450-4e08-b9be-f0ca9dac5389"},"authoredOn":"2026-11-18T06:59:00+00:00"},"request":{"method":"PUT","url":"ServiceRequest/65d95536-64c1-4338-b300-451c647a399b"}},{"fullUrl":"https://madie.cms.gov/Condition/a1100701-ab93-460c-9e54-ad204d397501","resource":{"resourceType":"Condition","id":"a1100701-ab93-460c-9e54-ad204d397501","meta":{"profile":["http://hl7.org/fhir/us/qicore/StructureDefinition/qicore-condition"]},"clinicalStatus":{"coding":[{"system":"http://terminology.hl7.org/CodeSystem/condition-clinical","code":"active"}]},"verificationStatus":{"coding":[{"system":"http://terminology.hl7.org/CodeSystem/condition-ver-status","code":"confirmed"}]},"category":[{"coding":[{"system":"http://terminology.hl7.org/CodeSystem/condition-category","code":"encounter-diagnosis","display":"Encounter Diagnosis"}]}],"code":{"coding":[{"system":"http://snomed.info/sct","version":"2020-09","code":"111297002","display":"Nonparalytic stroke (disorder)","userSelected":true}]},"subject":{"reference":"Patient/c21e25c9-a450-4e08-b9be-f0ca9dac5389"},"recordedDate":"2026-08-12T08:00:00.000+00:00"},"request":{"method":"PUT","url":"Condition/a1100701-ab93-460c-9e54-ad204d397501"}},{"fullUrl":"https://madie.cms.gov/Coverage/a8d91b72-f382-4add-a7a5-6ad1ba0eded4","resource":{"resourceType":"Coverage","id":"a8d91b72-f382-4add-a7a5-6ad1ba0eded4","meta":{"profile":["http://hl7.org/fhir/us/qicore/StructureDefinition/qicore-coverage"]},"status":"active","beneficiary":{"reference":"Patient/c21e25c9-a450-4e08-b9be-f0ca9dac5389"},"payor":[{"reference":"Organization/18ca435c-cae6-4c34-8033-af717477f9fc"}]},"request":{"method":"PUT","url":"Coverage/a8d91b72-f382-4add-a7a5-6ad1ba0eded4"}},{"fullUrl":"https://madie.cms.gov/Organization/56be73ad-c1f2-4e9b-bac2-9f16c6ca99c2","resource":{"resourceType":"Organization","id":"18ca435c-cae6-4c34-8033-af717477f9fc","meta":{"profile":["http://hl7.org/fhir/us/qicore/StructureDefinition/qicore-organization"]},"identifier":[{"use":"temp","system":"urn:oid:2.16.840.1.113883.4.4","value":"21-3259825"}],"active":true,"type":[{"coding":[{"system":"http://terminology.hl7.org/CodeSystem/organization-type","code":"pay","display":"Payer"}]}],"name":"Blue Cross Blue Shield of Texas","telecom":[{"system":"phone","value":"(+1) 972-766-6900"}],"address":[{"use":"billing","type":"postal","line":["P.O. Box 660044"],"city":"Dallas","state":"TX","postalCode":"75266-0044","country":"USA"}]},"request":{"method":"PUT","url":"Organization/18ca435c-cae6-4c34-8033-af717477f9fc"}},{"fullUrl":"https://madie.cms.gov/MeasureReport/32475542-f556-4243-a007-55ef2db04828","resource":{"resourceType":"MeasureReport","id":"32475542-f556-4243-a007-55ef2db04828","meta":{"profile":["http://hl7.org/fhir/us/cqfmeasures/StructureDefinition/test-case-cqfm"]},"contained":[{"resourceType":"Parameters","id":"c6416f5f-6cd7-449a-8d2c-ccbaa409c925-parameters","parameter":[{"name":"subject","valueString":"c21e25c9-a450-4e08-b9be-f0ca9dac5389"}]}],"extension":[{"url":"http://hl7.org/fhir/us/cqfmeasures/StructureDefinition/cqfm-inputParameters","valueReference":{"reference":"#c6416f5f-6cd7-449a-8d2c-ccbaa409c925-parameters"}},{"url":"http://hl7.org/fhir/us/cqfmeasures/StructureDefinition/cqfm-testCaseDescription","valueMarkdown":"Patient receives comfort measures ordereded on the day of hospital arrival, 1 minute before the start of the ED start. ED ends less than 1 hour before Obs Start, Obs ends less than 1 hour before IP start.\n"}],"modifierExtension":[{"url":"http://hl7.org/fhir/us/cqfmeasures/StructureDefinition/cqfm-isTestCase","valueBoolean":true}],"status":"complete","type":"individual","measure":"https://madie.cms.gov/Measure/CMS72FHIRSTKAntithromboticDay2","period":{"start":"2026-01-01","end":"2026-12-31"},"group":[{"population":[{"code":{"coding":[{"system":"http://terminology.hl7.org/CodeSystem/measure-population","code":"initial-population","display":"Initial Population"}]},"count":1},{"code":{"coding":[{"system":"http://terminology.hl7.org/CodeSystem/measure-population","code":"denominator","display":"Denominator"}]},"count":1},{"code":{"coding":[{"system":"http://terminology.hl7.org/CodeSystem/measure-population","code":"denominator-exclusion","display":"Denominator Exclusion"}]},"count":1},{"code":{"coding":[{"system":"http://terminology.hl7.org/CodeSystem/measure-population","code":"numerator","display":"Numerator"}]},"count":0},{"code":{"coding":[{"system":"http://terminology.hl7.org/CodeSystem/measure-population","code":"denominator-exception","display":"Denominator Exception"}]},"count":0}]}]},"request":{"method":"PUT","url":"MeasureReport/32475542-f556-4243-a007-55ef2db04828"}}]}