{"resourceType":"Bundle","id":"tests-e89c4eae-404c-44b9-8be5-c8a8b481813a-bundle","type":"transaction","entry":[{"fullUrl":"https://madie.cms.gov/Patient/e89c4eae-404c-44b9-8be5-c8a8b481813a","resource":{"resourceType":"Patient","id":"e89c4eae-404c-44b9-8be5-c8a8b481813a","meta":{"profile":["http://hl7.org/fhir/us/qicore/StructureDefinition/qicore-patient"]},"text":{"status":"generated","div":"<div xmlns=\"http://www.w3.org/1999/xhtml\"><div class=\"hapiHeaderText\">LOS=2Days_EDend_EQ_EncIPStart <b>DENEXFAIL </b></div><table class=\"hapiPropertyTable\"><tbody><tr><td>Identifier</td><td>a458b8b9bea67a7a55dee798a7585d96</td></tr><tr><td>Date of birth</td><td><span>21 August 1993</span></td></tr></tbody></table></div>"},"extension":[{"url":"http://hl7.org/fhir/us/core/StructureDefinition/us-core-race","extension":[{"url":"ombCategory","valueCoding":{"system":"urn:oid:2.16.840.1.113883.6.238","code":"1002-5","display":"American Indian or Alaska Native","userSelected":true}},{"url":"text","valueString":"American Indian or Alaska Native"}]},{"url":"http://hl7.org/fhir/us/core/StructureDefinition/us-core-ethnicity","extension":[{"url":"ombCategory","valueCoding":{"system":"urn:oid:2.16.840.1.113883.6.238","code":"2135-2","display":"Hispanic or Latino","userSelected":true}},{"url":"text","valueString":"Hispanic or Latino"}]}],"identifier":[{"type":{"coding":[{"system":"http://terminology.hl7.org/CodeSystem/v2-0203","code":"MR"}]},"system":"https://bonnie-fhir.healthit.gov/","value":"60f82c2e98086b570510e27f"}],"active":true,"name":[{"use":"usual","family":"DENEXFail","given":["LOS=2Days_EDend_EQ_EncIPStart"]}],"gender":"male","birthDate":"1994-08-21"},"request":{"method":"PUT","url":"Patient/e89c4eae-404c-44b9-8be5-c8a8b481813a"}},{"fullUrl":"https://madie.cms.gov/Encounter/b61fa318-742c-47a7-9f1c-4e6861efe3f0","resource":{"resourceType":"Encounter","id":"b61fa318-742c-47a7-9f1c-4e6861efe3f0","meta":{"profile":["http://hl7.org/fhir/us/qicore/StructureDefinition/qicore-encounter"]},"status":"finished","class":{"system":"http://terminology.hl7.org/CodeSystem/v3-ActCode","code":"EMER","display":"emergency","userSelected":true},"type":[{"coding":[{"system":"http://snomed.info/sct","code":"4525004"}]}],"subject":{"reference":"Patient/e89c4eae-404c-44b9-8be5-c8a8b481813a"},"period":{"start":"2026-08-20T08:00:00+00:00","end":"2026-08-20T22:00:00+00:00"},"length":{"value":0,"unit":"days"}},"request":{"method":"PUT","url":"Encounter/b61fa318-742c-47a7-9f1c-4e6861efe3f0"}},{"fullUrl":"https://madie.cms.gov/Encounter/d2b5a91b-0212-4964-ab8b-1a1d27540f34","resource":{"resourceType":"Encounter","id":"d2b5a91b-0212-4964-ab8b-1a1d27540f34","meta":{"profile":["http://hl7.org/fhir/us/qicore/StructureDefinition/qicore-encounter"]},"status":"finished","class":{"system":"http://terminology.hl7.org/CodeSystem/v3-ActCode","code":"IMP","display":"inpatient encounter","userSelected":true},"type":[{"coding":[{"system":"http://snomed.info/sct","code":"32485007"}]}],"subject":{"reference":"Patient/e89c4eae-404c-44b9-8be5-c8a8b481813a"},"period":{"start":"2026-08-20T22:00:00+00:00","end":"2026-08-22T12:00:00+00:00"},"length":{"value":2,"unit":"days"},"diagnosis":[{"condition":{"reference":"Condition/d31185b1-3e00-4242-bc52-76b0d4d41512"},"use":{"coding":[{"system":"http://terminology.hl7.org/CodeSystem/diagnosis-role","code":"billing","display":"Billing"}]},"rank":1}]},"request":{"method":"PUT","url":"Encounter/d2b5a91b-0212-4964-ab8b-1a1d27540f34"}},{"fullUrl":"https://madie.cms.gov/Coverage/53a61cbd-3cf5-4408-a8bb-31d02a9c2a0b","resource":{"resourceType":"Coverage","id":"53a61cbd-3cf5-4408-a8bb-31d02a9c2a0b","status":"active","beneficiary":{"reference":"Patient/e89c4eae-404c-44b9-8be5-c8a8b481813a"},"period":{"start":"1994-08-21T07:00:00+00:00"},"payor":[{"reference":"Organization/80e3e0d1-b2aa-43a6-b1d2-00bfa3164a0f"}]},"request":{"method":"PUT","url":"Coverage/53a61cbd-3cf5-4408-a8bb-31d02a9c2a0b"}},{"fullUrl":"https://madie.cms.gov/Condition/d31185b1-3e00-4242-bc52-76b0d4d41512","resource":{"resourceType":"Condition","id":"d31185b1-3e00-4242-bc52-76b0d4d41512","meta":{"profile":["http://hl7.org/fhir/us/qicore/StructureDefinition/qicore-condition"]},"clinicalStatus":{"coding":[{"system":"http://terminology.hl7.org/CodeSystem/condition-clinical","code":"active"}]},"verificationStatus":{"coding":[{"system":"http://terminology.hl7.org/CodeSystem/condition-ver-status","code":"confirmed"}]},"category":[{"coding":[{"system":"http://terminology.hl7.org/CodeSystem/condition-category","code":"encounter-diagnosis","display":"Encounter Diagnosis"}]}],"code":{"coding":[{"system":"http://snomed.info/sct","version":"2020-09","code":"111297002","display":"Nonparalytic stroke (disorder)","userSelected":true}]},"subject":{"reference":"Patient/e89c4eae-404c-44b9-8be5-c8a8b481813a"},"recordedDate":"2026-08-12T08:00:00.000+00:00"},"request":{"method":"PUT","url":"Condition/d31185b1-3e00-4242-bc52-76b0d4d41512"}},{"fullUrl":"https://madie.cms.gov/Organization/600f771f-3697-41d1-96f1-3c9de4eb8189","resource":{"resourceType":"Organization","id":"80e3e0d1-b2aa-43a6-b1d2-00bfa3164a0f","meta":{"profile":["http://hl7.org/fhir/us/qicore/StructureDefinition/qicore-organization"]},"identifier":[{"use":"temp","system":"urn:oid:2.16.840.1.113883.4.4","value":"21-3259825"}],"active":true,"type":[{"coding":[{"system":"http://terminology.hl7.org/CodeSystem/organization-type","code":"pay","display":"Payer"}]}],"name":"Blue Cross Blue Shield of Texas","telecom":[{"system":"phone","value":"(+1) 972-766-6900"}],"address":[{"use":"billing","type":"postal","line":["P.O. Box 660044"],"city":"Dallas","state":"TX","postalCode":"75266-0044","country":"USA"}]},"request":{"method":"PUT","url":"Organization/80e3e0d1-b2aa-43a6-b1d2-00bfa3164a0f"}},{"fullUrl":"https://madie.cms.gov/MeasureReport/58cebf9d-05d4-4b14-9c98-8c27fb768358","resource":{"resourceType":"MeasureReport","id":"58cebf9d-05d4-4b14-9c98-8c27fb768358","meta":{"profile":["http://hl7.org/fhir/us/cqfmeasures/StructureDefinition/test-case-cqfm"]},"contained":[{"resourceType":"Parameters","id":"4199dfba-1b22-404e-a20c-1ae451d490fa-parameters","parameter":[{"name":"subject","valueString":"e89c4eae-404c-44b9-8be5-c8a8b481813a"}]}],"extension":[{"url":"http://hl7.org/fhir/us/cqfmeasures/StructureDefinition/cqfm-inputParameters","valueReference":{"reference":"#4199dfba-1b22-404e-a20c-1ae451d490fa-parameters"}},{"url":"http://hl7.org/fhir/us/cqfmeasures/StructureDefinition/cqfm-testCaseDescription","valueMarkdown":"LOS=2 days, Patient has  ED Visit end time same as Enc IP starts time. global.Hospitalization ( = Ed +IP)\n"}],"modifierExtension":[{"url":"http://hl7.org/fhir/us/cqfmeasures/StructureDefinition/cqfm-isTestCase","valueBoolean":true}],"status":"complete","type":"individual","measure":"https://madie.cms.gov/Measure/CMS72FHIRSTKAntithromboticDay2","period":{"start":"2026-01-01","end":"2026-12-31"},"group":[{"population":[{"code":{"coding":[{"system":"http://terminology.hl7.org/CodeSystem/measure-population","code":"initial-population","display":"Initial Population"}]},"count":1},{"code":{"coding":[{"system":"http://terminology.hl7.org/CodeSystem/measure-population","code":"denominator","display":"Denominator"}]},"count":1},{"code":{"coding":[{"system":"http://terminology.hl7.org/CodeSystem/measure-population","code":"denominator-exclusion","display":"Denominator Exclusion"}]},"count":0},{"code":{"coding":[{"system":"http://terminology.hl7.org/CodeSystem/measure-population","code":"numerator","display":"Numerator"}]},"count":0},{"code":{"coding":[{"system":"http://terminology.hl7.org/CodeSystem/measure-population","code":"denominator-exception","display":"Denominator Exception"}]},"count":0}]}]},"request":{"method":"PUT","url":"MeasureReport/58cebf9d-05d4-4b14-9c98-8c27fb768358"}}]}