{"resourceType":"Bundle","id":"tests-2402a44f-a5bb-4010-9045-123f5cfb976a-bundle","type":"transaction","entry":[{"fullUrl":"https://madie.cms.gov/Patient/2402a44f-a5bb-4010-9045-123f5cfb976a","resource":{"resourceType":"Patient","id":"2402a44f-a5bb-4010-9045-123f5cfb976a","meta":{"profile":["http://hl7.org/fhir/us/qicore/StructureDefinition/qicore-patient"]},"text":{"status":"generated","div":"<div xmlns=\"http://www.w3.org/1999/xhtml\"><div class=\"hapiHeaderText\">MedTPA&lt;24hrB4_ED <b>DENEXPASS </b></div><table class=\"hapiPropertyTable\"><tbody><tr><td>Identifier</td><td>b28d0b987104d58203970d74e7cb603f</td></tr><tr><td>Date of birth</td><td><span>26 September 1975</span></td></tr></tbody></table></div>"},"extension":[{"url":"http://hl7.org/fhir/us/core/StructureDefinition/us-core-race","extension":[{"url":"ombCategory","valueCoding":{"system":"urn:oid:2.16.840.1.113883.6.238","code":"2054-5","display":"Black or African American","userSelected":true}},{"url":"text","valueString":"Black or African American"}]},{"url":"http://hl7.org/fhir/us/core/StructureDefinition/us-core-ethnicity","extension":[{"url":"ombCategory","valueCoding":{"system":"urn:oid:2.16.840.1.113883.6.238","code":"2186-5","display":"Not Hispanic or Latino","userSelected":true}},{"url":"text","valueString":"Not Hispanic or Latino"}]}],"identifier":[{"type":{"coding":[{"system":"http://terminology.hl7.org/CodeSystem/v2-0203","code":"MR"}]},"system":"https://bonnie-fhir.healthit.gov/","value":"60f82c2d98086b570510e247"}],"active":true,"name":[{"use":"usual","family":"DENEXPass","given":["MedTPA<24hrB4_ED"]}],"gender":"female","birthDate":"1976-09-26"},"request":{"method":"PUT","url":"Patient/2402a44f-a5bb-4010-9045-123f5cfb976a"}},{"fullUrl":"https://madie.cms.gov/Encounter/5fef0389-2066-4b38-a5eb-76df0a962250","resource":{"resourceType":"Encounter","id":"5fef0389-2066-4b38-a5eb-76df0a962250","meta":{"profile":["http://hl7.org/fhir/us/qicore/StructureDefinition/qicore-encounter"]},"status":"finished","class":{"system":"http://terminology.hl7.org/CodeSystem/v3-ActCode","code":"EMER","display":"emergency"},"type":[{"coding":[{"system":"http://snomed.info/sct","code":"4525004"}]}],"subject":{"reference":"Patient/2402a44f-a5bb-4010-9045-123f5cfb976a"},"period":{"start":"2026-10-10T06:00:00+00:00","end":"2026-10-10T08:01:00+00:00"},"length":{"value":0,"unit":"days"}},"request":{"method":"PUT","url":"Encounter/5fef0389-2066-4b38-a5eb-76df0a962250"}},{"fullUrl":"https://madie.cms.gov/Encounter/1518b24f-cac5-4a1c-9703-1feeb7486ca8","resource":{"resourceType":"Encounter","id":"1518b24f-cac5-4a1c-9703-1feeb7486ca8","meta":{"profile":["http://hl7.org/fhir/us/qicore/StructureDefinition/qicore-encounter"]},"status":"finished","class":{"system":"http://terminology.hl7.org/CodeSystem/v3-ActCode","code":"IMP","display":"inpatient encounter"},"type":[{"coding":[{"system":"http://snomed.info/sct","code":"32485007"}]}],"subject":{"reference":"Patient/2402a44f-a5bb-4010-9045-123f5cfb976a"},"period":{"start":"2026-10-10T09:00:00+00:00","end":"2026-10-12T11:15:00+00:00"},"length":{"value":2,"unit":"days"},"diagnosis":[{"condition":{"reference":"Condition/8b9b048e-6e81-4aaf-b8fe-77afcb20ca54"},"use":{"coding":[{"system":"http://terminology.hl7.org/CodeSystem/diagnosis-role","code":"billing","display":"Billing"}]},"rank":1}]},"request":{"method":"PUT","url":"Encounter/1518b24f-cac5-4a1c-9703-1feeb7486ca8"}},{"fullUrl":"https://madie.cms.gov/MedicationAdministration/3951abf1-04e4-4a91-8206-331945d06018","resource":{"resourceType":"MedicationAdministration","id":"3951abf1-04e4-4a91-8206-331945d06018","meta":{"profile":["http://hl7.org/fhir/us/qicore/StructureDefinition/qicore-medicationadministration"]},"status":"completed","medicationCodeableConcept":{"coding":[{"system":"http://www.nlm.nih.gov/research/umls/rxnorm","code":"1804799"}]},"subject":{"reference":"Patient/2402a44f-a5bb-4010-9045-123f5cfb976a"},"effectivePeriod":{"start":"2026-10-09T06:01:00+00:00"}},"request":{"method":"PUT","url":"MedicationAdministration/3951abf1-04e4-4a91-8206-331945d06018"}},{"fullUrl":"https://madie.cms.gov/Coverage/bf03cf4b-2110-4976-8ea8-68279832d70c","resource":{"resourceType":"Coverage","id":"bf03cf4b-2110-4976-8ea8-68279832d70c","status":"active","beneficiary":{"reference":"Patient/2402a44f-a5bb-4010-9045-123f5cfb976a"},"period":{"start":"1976-09-26T08:00:00+00:00"},"payor":[{"reference":"Organization/9e9b3f13-a353-4173-b29b-947d6f1f2031"}]},"request":{"method":"PUT","url":"Coverage/bf03cf4b-2110-4976-8ea8-68279832d70c"}},{"fullUrl":"https://madie.cms.gov/Condition/8b9b048e-6e81-4aaf-b8fe-77afcb20ca54","resource":{"resourceType":"Condition","id":"8b9b048e-6e81-4aaf-b8fe-77afcb20ca54","meta":{"profile":["http://hl7.org/fhir/us/qicore/StructureDefinition/qicore-condition"]},"clinicalStatus":{"coding":[{"system":"http://terminology.hl7.org/CodeSystem/condition-clinical","code":"active"}]},"verificationStatus":{"coding":[{"system":"http://terminology.hl7.org/CodeSystem/condition-ver-status","code":"confirmed"}]},"category":[{"coding":[{"system":"http://terminology.hl7.org/CodeSystem/condition-category","code":"encounter-diagnosis","display":"Encounter Diagnosis"}]}],"code":{"coding":[{"system":"http://snomed.info/sct","version":"2020-09","code":"111297002","display":"Nonparalytic stroke (disorder)","userSelected":true}]},"subject":{"reference":"Patient/2402a44f-a5bb-4010-9045-123f5cfb976a"},"recordedDate":"2026-08-13T08:00:00.000+00:00"},"request":{"method":"PUT","url":"Condition/8b9b048e-6e81-4aaf-b8fe-77afcb20ca54"}},{"fullUrl":"https://madie.cms.gov/Organization/b49cfe80-23d0-45a1-9ec1-fb8c117a62c5","resource":{"resourceType":"Organization","id":"9e9b3f13-a353-4173-b29b-947d6f1f2031","meta":{"profile":["http://hl7.org/fhir/us/qicore/StructureDefinition/qicore-organization"]},"identifier":[{"use":"temp","system":"urn:oid:2.16.840.1.113883.4.4","value":"21-3259825"}],"active":true,"type":[{"coding":[{"system":"http://terminology.hl7.org/CodeSystem/organization-type","code":"pay","display":"Payer"}]}],"name":"Blue Cross Blue Shield of Texas","telecom":[{"system":"phone","value":"(+1) 972-766-6900"}],"address":[{"use":"billing","type":"postal","line":["P.O. Box 660044"],"city":"Dallas","state":"TX","postalCode":"75266-0044","country":"USA"}]},"request":{"method":"PUT","url":"Organization/9e9b3f13-a353-4173-b29b-947d6f1f2031"}},{"fullUrl":"https://madie.cms.gov/MeasureReport/914d4d23-ff45-4f8f-b9d2-5b0e755f265a","resource":{"resourceType":"MeasureReport","id":"914d4d23-ff45-4f8f-b9d2-5b0e755f265a","meta":{"profile":["http://hl7.org/fhir/us/cqfmeasures/StructureDefinition/test-case-cqfm"]},"contained":[{"resourceType":"Parameters","id":"188f90c1-99aa-4dbd-905d-2d7e34612604-parameters","parameter":[{"name":"subject","valueString":"2402a44f-a5bb-4010-9045-123f5cfb976a"}]}],"extension":[{"url":"http://hl7.org/fhir/us/cqfmeasures/StructureDefinition/cqfm-inputParameters","valueReference":{"reference":"#188f90c1-99aa-4dbd-905d-2d7e34612604-parameters"}},{"url":"http://hl7.org/fhir/us/cqfmeasures/StructureDefinition/cqfm-testCaseDescription","valueMarkdown":"Med TPA 23 hours 59 minutes before ED visit that ends 59 min before IP Encounter\n"}],"modifierExtension":[{"url":"http://hl7.org/fhir/us/cqfmeasures/StructureDefinition/cqfm-isTestCase","valueBoolean":true}],"status":"complete","type":"individual","measure":"https://madie.cms.gov/Measure/CMS72FHIRSTKAntithromboticDay2","period":{"start":"2026-01-01","end":"2026-12-31"},"group":[{"population":[{"code":{"coding":[{"system":"http://terminology.hl7.org/CodeSystem/measure-population","code":"initial-population","display":"Initial Population"}]},"count":1},{"code":{"coding":[{"system":"http://terminology.hl7.org/CodeSystem/measure-population","code":"denominator","display":"Denominator"}]},"count":1},{"code":{"coding":[{"system":"http://terminology.hl7.org/CodeSystem/measure-population","code":"denominator-exclusion","display":"Denominator Exclusion"}]},"count":1},{"code":{"coding":[{"system":"http://terminology.hl7.org/CodeSystem/measure-population","code":"numerator","display":"Numerator"}]},"count":0},{"code":{"coding":[{"system":"http://terminology.hl7.org/CodeSystem/measure-population","code":"denominator-exception","display":"Denominator Exception"}]},"count":0}]}]},"request":{"method":"PUT","url":"MeasureReport/914d4d23-ff45-4f8f-b9d2-5b0e755f265a"}}]}