{"resourceType":"Bundle","id":"tests-e02da389-37c1-49c2-a97d-45192e5f1891-bundle","type":"transaction","entry":[{"fullUrl":"https://madie.cms.gov/Patient/e02da389-37c1-49c2-a97d-45192e5f1891","resource":{"resourceType":"Patient","id":"e02da389-37c1-49c2-a97d-45192e5f1891","meta":{"profile":["http://hl7.org/fhir/us/qicore/StructureDefinition/qicore-patient"]},"text":{"status":"generated","div":"<div xmlns=\"http://www.w3.org/1999/xhtml\"><div class=\"hapiHeaderText\">EncB4MP <b>IPPFAIL </b></div><table class=\"hapiPropertyTable\"><tbody><tr><td>Identifier</td><td>7592b753ea9652ea4df9928763a65677</td></tr><tr><td>Date of birth</td><td><span>21 August 1993</span></td></tr></tbody></table></div>"},"extension":[{"url":"http://hl7.org/fhir/us/core/StructureDefinition/us-core-race","extension":[{"url":"ombCategory","valueCoding":{"system":"urn:oid:2.16.840.1.113883.6.238","code":"1002-5","display":"American Indian or Alaska Native","userSelected":true}},{"url":"text","valueString":"American Indian or Alaska Native"}]},{"url":"http://hl7.org/fhir/us/core/StructureDefinition/us-core-ethnicity","extension":[{"url":"ombCategory","valueCoding":{"system":"urn:oid:2.16.840.1.113883.6.238","code":"2186-5","display":"Not Hispanic or Latino","userSelected":true}},{"url":"text","valueString":"Not Hispanic or Latino"}]}],"identifier":[{"type":{"coding":[{"system":"http://terminology.hl7.org/CodeSystem/v2-0203","code":"MR"}]},"system":"https://bonnie-fhir.healthit.gov/","value":"60f82c2d98086b570510e250"}],"active":true,"name":[{"use":"usual","family":"IPPFail","given":["EncB4MP"]}],"gender":"male","birthDate":"1994-08-21"},"request":{"method":"PUT","url":"Patient/e02da389-37c1-49c2-a97d-45192e5f1891"}},{"fullUrl":"https://madie.cms.gov/Encounter/43aefef2-d280-40d5-832e-b753e8c726ae","resource":{"resourceType":"Encounter","id":"43aefef2-d280-40d5-832e-b753e8c726ae","status":"finished","class":{"system":"http://terminology.hl7.org/CodeSystem/v3-ActCode","code":"IMP","display":"inpatient encounter"},"type":[{"coding":[{"system":"http://snomed.info/sct","code":"32485007"}]}],"subject":{"reference":"Patient/e02da389-37c1-49c2-a97d-45192e5f1891"},"period":{"start":"2024-08-21T09:30:00+00:00","end":"2024-12-19T10:30:00+00:00"},"length":{"value":120.0,"unit":"days"},"diagnosis":[{"condition":{"reference":"Condition/e38fd790-d7ca-4480-8768-a422b2590b95"},"use":{"coding":[{"system":"http://hl7.org/fhir/diagnosis-role","code":"billing","display":"Billing"}]},"rank":1}]},"request":{"method":"PUT","url":"Encounter/43aefef2-d280-40d5-832e-b753e8c726ae"}},{"fullUrl":"https://madie.cms.gov/Condition/e38fd790-d7ca-4480-8768-a422b2590b95","resource":{"resourceType":"Condition","id":"e38fd790-d7ca-4480-8768-a422b2590b95","meta":{"profile":["http://hl7.org/fhir/us/qicore/StructureDefinition/qicore-condition"]},"verificationStatus":{"coding":[{"system":"http://terminology.hl7.org/CodeSystem/condition-ver-status","code":"confirmed","display":"Confirmed"}]},"category":[{"coding":[{"system":"http://terminology.hl7.org/CodeSystem/condition-category","code":"encounter-diagnosis","display":"Encounter Diagnosis"}]}],"code":{"coding":[{"system":"http://snomed.info/sct","code":"116288000","display":"Paralytic stroke (disorder)"}]},"subject":{"reference":"Patient/e02da389-37c1-49c2-a97d-45192e5f1891"}},"request":{"method":"PUT","url":"Condition/e38fd790-d7ca-4480-8768-a422b2590b95"}},{"fullUrl":"https://madie.cms.gov/Organization/82386386-7267-48b7-b112-c4d1904ac9ca","resource":{"resourceType":"Organization","id":"aeb2c6be-6577-4bba-a6b6-6eab95111f1b","meta":{"profile":["http://hl7.org/fhir/us/qicore/StructureDefinition/qicore-organization"]},"identifier":[{"use":"temp","system":"urn:oid:2.16.840.1.113883.4.4","value":"21-3259825"}],"active":true,"type":[{"coding":[{"system":"http://terminology.hl7.org/CodeSystem/organization-type","code":"pay","display":"Payer"}]}],"name":"Blue Cross Blue Shield of Texas","telecom":[{"system":"phone","value":"(+1) 972-766-6900"}],"address":[{"use":"billing","type":"postal","line":["P.O. Box 660044"],"city":"Dallas","state":"TX","postalCode":"75266-0044","country":"USA"}]},"request":{"method":"PUT","url":"Organization/aeb2c6be-6577-4bba-a6b6-6eab95111f1b"}},{"fullUrl":"https://madie.cms.gov/Practitioner/6edb0c41-9e9d-4acd-a729-6e9b3f55e1eb","resource":{"resourceType":"Practitioner","id":"6edb0c41-9e9d-4acd-a729-6e9b3f55e1eb","identifier":[{"system":"http://hl7.org/fhir/sid/us-npi","value":"123456"}],"name":[{"family":"Evil","prefix":["Dr"]}]},"request":{"method":"PUT","url":"Practitioner/6edb0c41-9e9d-4acd-a729-6e9b3f55e1eb"}},{"fullUrl":"https://madie.cms.gov/MeasureReport/3d2927c4-ae69-411c-8130-6673e9929953","resource":{"resourceType":"MeasureReport","id":"3d2927c4-ae69-411c-8130-6673e9929953","meta":{"profile":["http://hl7.org/fhir/us/cqfmeasures/StructureDefinition/test-case-cqfm"]},"contained":[{"resourceType":"Parameters","id":"673aebc2-6f36-4e8a-bffd-c1158c6e28d1-parameters","parameter":[{"name":"subject","valueString":"e02da389-37c1-49c2-a97d-45192e5f1891"}]}],"extension":[{"url":"http://hl7.org/fhir/us/cqfmeasures/StructureDefinition/cqfm-inputParameters","valueReference":{"reference":"#673aebc2-6f36-4e8a-bffd-c1158c6e28d1-parameters"}},{"url":"http://hl7.org/fhir/us/cqfmeasures/StructureDefinition/cqfm-testCaseDescription","valueMarkdown":"IPFail because encounter is before measurement period"}],"modifierExtension":[{"url":"http://hl7.org/fhir/us/cqfmeasures/StructureDefinition/cqfm-isTestCase","valueBoolean":true}],"status":"complete","type":"individual","measure":"https://madie.cms.gov/Measure/CMS72FHIRSTKAntithromboticDay2","period":{"start":"2026-01-01","end":"2026-12-31"},"group":[{"population":[{"code":{"coding":[{"system":"http://terminology.hl7.org/CodeSystem/measure-population","code":"initial-population","display":"Initial Population"}]},"count":0},{"code":{"coding":[{"system":"http://terminology.hl7.org/CodeSystem/measure-population","code":"denominator","display":"Denominator"}]},"count":0},{"code":{"coding":[{"system":"http://terminology.hl7.org/CodeSystem/measure-population","code":"denominator-exclusion","display":"Denominator Exclusion"}]},"count":0},{"code":{"coding":[{"system":"http://terminology.hl7.org/CodeSystem/measure-population","code":"numerator","display":"Numerator"}]},"count":0},{"code":{"coding":[{"system":"http://terminology.hl7.org/CodeSystem/measure-population","code":"denominator-exception","display":"Denominator Exception"}]},"count":0}]}]},"request":{"method":"PUT","url":"MeasureReport/3d2927c4-ae69-411c-8130-6673e9929953"}}]}