{"resourceType":"Bundle","id":"tests-c48c3487-44cf-4a09-bc17-e60e66d19002-bundle","type":"transaction","entry":[{"fullUrl":"https://madie.cms.gov/Patient/c48c3487-44cf-4a09-bc17-e60e66d19002","resource":{"resourceType":"Patient","id":"c48c3487-44cf-4a09-bc17-e60e66d19002","meta":{"profile":["http://hl7.org/fhir/us/qicore/StructureDefinition/qicore-patient"]},"text":{"status":"generated","div":"<div xmlns=\"http://www.w3.org/1999/xhtml\"><div class=\"hapiHeaderText\">PharmContraDayAftObs_ED&lt;1hrDayOfObs&lt;1hrDayAftBFEnc <b>DENEXCEPPASS </b></div><table class=\"hapiPropertyTable\"><tbody><tr><td>Identifier</td><td>d9b55839595aaa52c16083ee418cfa62f77b33abf90f91ffa69d9dec0524b571</td></tr><tr><td>Date of birth</td><td><span>26 September 1975</span></td></tr></tbody></table></div>"},"extension":[{"url":"http://hl7.org/fhir/us/core/StructureDefinition/us-core-race","extension":[{"url":"ombCategory","valueCoding":{"system":"urn:oid:2.16.840.1.113883.6.238","code":"2054-5","display":"Black or African American","userSelected":true}},{"url":"text","valueString":"Black or African American"}]},{"url":"http://hl7.org/fhir/us/core/StructureDefinition/us-core-ethnicity","extension":[{"url":"ombCategory","valueCoding":{"system":"urn:oid:2.16.840.1.113883.6.238","code":"2135-2","display":"Hispanic or Latino","userSelected":true}},{"url":"text","valueString":"Hispanic or Latino"}]}],"identifier":[{"type":{"coding":[{"system":"http://terminology.hl7.org/CodeSystem/v2-0203","code":"MR"}]},"system":"https://bonnie-fhir.healthit.gov/","value":"60f82c2f98086b570510e2b9"}],"active":true,"name":[{"use":"usual","family":"DENEXCEPPass","given":["PharmContraDayAftObs_ED<1hrDayOfObs<1hrDayAftBFEnc"]}],"gender":"female","birthDate":"1976-09-26"},"request":{"method":"PUT","url":"Patient/c48c3487-44cf-4a09-bc17-e60e66d19002"}},{"fullUrl":"https://madie.cms.gov/Encounter/70c13069-817d-4bbc-b38c-a80e668b01fd","resource":{"resourceType":"Encounter","id":"70c13069-817d-4bbc-b38c-a80e668b01fd","meta":{"profile":["http://hl7.org/fhir/us/qicore/StructureDefinition/qicore-encounter"]},"status":"finished","class":{"system":"http://terminology.hl7.org/CodeSystem/v3-ActCode","code":"EMER","display":"emergency","userSelected":true},"type":[{"coding":[{"system":"http://snomed.info/sct","code":"4525004"}]}],"subject":{"reference":"Patient/c48c3487-44cf-4a09-bc17-e60e66d19002"},"period":{"start":"2026-10-10T09:00:00+00:00","end":"2026-10-10T09:15:00+00:00"},"length":{"value":0,"unit":"days"}},"request":{"method":"PUT","url":"Encounter/70c13069-817d-4bbc-b38c-a80e668b01fd"}},{"fullUrl":"https://madie.cms.gov/Encounter/cc17be6c-b00a-429f-b92a-444a88689761","resource":{"resourceType":"Encounter","id":"cc17be6c-b00a-429f-b92a-444a88689761","meta":{"profile":["http://hl7.org/fhir/us/qicore/StructureDefinition/qicore-encounter"]},"status":"finished","class":{"system":"http://terminology.hl7.org/CodeSystem/v3-ActCode","code":"OBSENC","display":"observation encounter","userSelected":true},"type":[{"coding":[{"system":"http://snomed.info/sct","code":"448951000124107"}]}],"subject":{"reference":"Patient/c48c3487-44cf-4a09-bc17-e60e66d19002"},"period":{"start":"2026-10-10T09:16:00+00:00","end":"2026-10-11T23:59:00+00:00"},"length":{"value":1,"unit":"days"}},"request":{"method":"PUT","url":"Encounter/cc17be6c-b00a-429f-b92a-444a88689761"}},{"fullUrl":"https://madie.cms.gov/Encounter/fbd948a4-3ba9-4259-9c5b-bce8adb97f60","resource":{"resourceType":"Encounter","id":"fbd948a4-3ba9-4259-9c5b-bce8adb97f60","meta":{"profile":["http://hl7.org/fhir/us/qicore/StructureDefinition/qicore-encounter"]},"status":"finished","class":{"system":"http://terminology.hl7.org/CodeSystem/v3-ActCode","code":"IMP","display":"inpatient encounter","userSelected":true},"type":[{"coding":[{"system":"http://snomed.info/sct","code":"32485007"}]}],"subject":{"reference":"Patient/c48c3487-44cf-4a09-bc17-e60e66d19002"},"period":{"start":"2026-10-12T00:00:00+00:00","end":"2026-10-17T11:15:00+00:00"},"length":{"value":5,"unit":"days"},"diagnosis":[{"condition":{"reference":"Condition/342b7bc8-12eb-4c1c-adea-74345404970b"},"use":{"coding":[{"system":"http://terminology.hl7.org/CodeSystem/diagnosis-role","code":"billing","display":"Billing"}]},"rank":1}]},"request":{"method":"PUT","url":"Encounter/fbd948a4-3ba9-4259-9c5b-bce8adb97f60"}},{"fullUrl":"https://madie.cms.gov/MedicationAdministration/1476ec81-f0a5-438e-99c3-f43be18112f2","resource":{"resourceType":"MedicationAdministration","id":"1476ec81-f0a5-438e-99c3-f43be18112f2","meta":{"profile":["http://hl7.org/fhir/us/qicore/StructureDefinition/qicore-medicationadministration"]},"status":"completed","medicationCodeableConcept":{"coding":[{"system":"http://www.nlm.nih.gov/research/umls/rxnorm","code":"855812","display":"prasugrel 10 MG Oral Tablet","userSelected":true}]},"subject":{"reference":"Patient/c48c3487-44cf-4a09-bc17-e60e66d19002"},"effectivePeriod":{"start":"2026-10-11T23:59:00+00:00"}},"request":{"method":"PUT","url":"MedicationAdministration/1476ec81-f0a5-438e-99c3-f43be18112f2"}},{"fullUrl":"https://madie.cms.gov/Coverage/7fce63db-845f-4359-8ab1-892ef68f6cf3","resource":{"resourceType":"Coverage","id":"7fce63db-845f-4359-8ab1-892ef68f6cf3","status":"active","beneficiary":{"reference":"Patient/c48c3487-44cf-4a09-bc17-e60e66d19002"},"period":{"start":"1976-09-26T08:00:00+00:00"},"payor":[{"reference":"Organization/5ad6ea38-07e9-4482-9e1b-c09eee595be9"}]},"request":{"method":"PUT","url":"Coverage/7fce63db-845f-4359-8ab1-892ef68f6cf3"}},{"fullUrl":"https://madie.cms.gov/Condition/342b7bc8-12eb-4c1c-adea-74345404970b","resource":{"resourceType":"Condition","id":"342b7bc8-12eb-4c1c-adea-74345404970b","meta":{"profile":["http://hl7.org/fhir/us/qicore/StructureDefinition/qicore-condition"]},"clinicalStatus":{"coding":[{"system":"http://terminology.hl7.org/CodeSystem/condition-clinical","code":"active"}]},"verificationStatus":{"coding":[{"system":"http://terminology.hl7.org/CodeSystem/condition-ver-status","code":"confirmed"}]},"category":[{"coding":[{"system":"http://terminology.hl7.org/CodeSystem/condition-category","code":"encounter-diagnosis","display":"Encounter Diagnosis"}]}],"code":{"coding":[{"system":"http://snomed.info/sct","version":"2020-09","code":"111297002","display":"Nonparalytic stroke (disorder)","userSelected":true}]},"subject":{"reference":"Patient/c48c3487-44cf-4a09-bc17-e60e66d19002"},"recordedDate":"2026-08-06T08:00:00.000+00:00"},"request":{"method":"PUT","url":"Condition/342b7bc8-12eb-4c1c-adea-74345404970b"}},{"fullUrl":"https://madie.cms.gov/Organization/bfeae101-f8db-4c44-8a57-d275df9d99bd","resource":{"resourceType":"Organization","id":"5ad6ea38-07e9-4482-9e1b-c09eee595be9","meta":{"profile":["http://hl7.org/fhir/us/qicore/StructureDefinition/qicore-organization"]},"identifier":[{"use":"temp","system":"urn:oid:2.16.840.1.113883.4.4","value":"21-3259825"}],"active":true,"type":[{"coding":[{"system":"http://terminology.hl7.org/CodeSystem/organization-type","code":"pay","display":"Payer"}]}],"name":"Blue Cross Blue Shield of Texas","telecom":[{"system":"phone","value":"(+1) 972-766-6900"}],"address":[{"use":"billing","type":"postal","line":["P.O. Box 660044"],"city":"Dallas","state":"TX","postalCode":"75266-0044","country":"USA"}]},"request":{"method":"PUT","url":"Organization/5ad6ea38-07e9-4482-9e1b-c09eee595be9"}},{"fullUrl":"https://madie.cms.gov/MeasureReport/f9767fa3-74c6-4755-aba5-89018f226fc7","resource":{"resourceType":"MeasureReport","id":"f9767fa3-74c6-4755-aba5-89018f226fc7","meta":{"profile":["http://hl7.org/fhir/us/cqfmeasures/StructureDefinition/test-case-cqfm"]},"contained":[{"resourceType":"Parameters","id":"29931297-6cdb-4ebe-85b6-50d29ce2ff85-parameters","parameter":[{"name":"subject","valueString":"c48c3487-44cf-4a09-bc17-e60e66d19002"}]}],"extension":[{"url":"http://hl7.org/fhir/us/cqfmeasures/StructureDefinition/cqfm-inputParameters","valueReference":{"reference":"#29931297-6cdb-4ebe-85b6-50d29ce2ff85-parameters"}},{"url":"http://hl7.org/fhir/us/cqfmeasures/StructureDefinition/cqfm-testCaseDescription","valueMarkdown":"Patient receives Ticagrelor during Obs, the day after Obs starts. ED ends 1 min before Obs.Obs ends 1 min before IP start at midnight. Testing Day of operator with HospitalizationWithObservation function.\n"}],"modifierExtension":[{"url":"http://hl7.org/fhir/us/cqfmeasures/StructureDefinition/cqfm-isTestCase","valueBoolean":true}],"status":"complete","type":"individual","measure":"https://madie.cms.gov/Measure/CMS72FHIRSTKAntithromboticDay2","period":{"start":"2026-01-01","end":"2026-12-31"},"group":[{"population":[{"code":{"coding":[{"system":"http://terminology.hl7.org/CodeSystem/measure-population","code":"initial-population","display":"Initial Population"}]},"count":1},{"code":{"coding":[{"system":"http://terminology.hl7.org/CodeSystem/measure-population","code":"denominator","display":"Denominator"}]},"count":1},{"code":{"coding":[{"system":"http://terminology.hl7.org/CodeSystem/measure-population","code":"denominator-exclusion","display":"Denominator Exclusion"}]},"count":0},{"code":{"coding":[{"system":"http://terminology.hl7.org/CodeSystem/measure-population","code":"numerator","display":"Numerator"}]},"count":0},{"code":{"coding":[{"system":"http://terminology.hl7.org/CodeSystem/measure-population","code":"denominator-exception","display":"Denominator Exception"}]},"count":1}]}]},"request":{"method":"PUT","url":"MeasureReport/f9767fa3-74c6-4755-aba5-89018f226fc7"}}]}