{"resourceType":"Bundle","id":"tests-f25baf5f-2980-416c-a8ef-3b9e42d751c3-bundle","type":"transaction","entry":[{"fullUrl":"https://madie.cms.gov/Patient/f25baf5f-2980-416c-a8ef-3b9e42d751c3","resource":{"resourceType":"Patient","id":"f25baf5f-2980-416c-a8ef-3b9e42d751c3","meta":{"profile":["http://hl7.org/fhir/us/qicore/StructureDefinition/qicore-patient"]},"text":{"status":"generated","div":"<div xmlns=\"http://www.w3.org/1999/xhtml\"><div class=\"hapiHeaderText\">MedAntithromboticStart_gt1dayDuringEncIP <b>NUMERFAIL </b></div><table class=\"hapiPropertyTable\"><tbody><tr><td>Identifier</td><td>17d9cc11aebb5947545ea131f50a8a07</td></tr><tr><td>Date of birth</td><td><span>26 September 1975</span></td></tr></tbody></table></div>"},"extension":[{"url":"http://hl7.org/fhir/us/core/StructureDefinition/us-core-race","extension":[{"url":"ombCategory","valueCoding":{"system":"urn:oid:2.16.840.1.113883.6.238","code":"2054-5","display":"Black or African American","userSelected":true}},{"url":"text","valueString":"Black or African American"}]},{"url":"http://hl7.org/fhir/us/core/StructureDefinition/us-core-ethnicity","extension":[{"url":"ombCategory","valueCoding":{"system":"urn:oid:2.16.840.1.113883.6.238","code":"2186-5","display":"Not Hispanic or Latino","userSelected":true}},{"url":"text","valueString":"Not Hispanic or Latino"}]}],"identifier":[{"type":{"coding":[{"system":"http://terminology.hl7.org/CodeSystem/v2-0203","code":"MR"}]},"system":"https://bonnie-fhir.healthit.gov/","value":"60f82c2d98086b570510e25a"}],"active":true,"name":[{"use":"usual","family":"NUMERFail","given":["MedAntithromboticStart_gt1dayDuringEncIP"]}],"gender":"female","birthDate":"1976-09-26"},"request":{"method":"PUT","url":"Patient/f25baf5f-2980-416c-a8ef-3b9e42d751c3"}},{"fullUrl":"https://madie.cms.gov/Encounter/4f66a92c-eef7-4e49-966d-b2ebd0293bfa","resource":{"resourceType":"Encounter","id":"4f66a92c-eef7-4e49-966d-b2ebd0293bfa","meta":{"profile":["http://hl7.org/fhir/us/qicore/StructureDefinition/qicore-encounter"]},"status":"finished","class":{"system":"http://terminology.hl7.org/CodeSystem/v3-ActCode","code":"IMP","display":"inpatient encounter"},"type":[{"coding":[{"system":"http://snomed.info/sct","code":"32485007"}]}],"subject":{"reference":"Patient/f25baf5f-2980-416c-a8ef-3b9e42d751c3"},"period":{"start":"2026-10-10T09:00:00+00:00","end":"2026-10-12T11:15:00+00:00"},"length":{"value":2,"unit":"days"},"diagnosis":[{"condition":{"reference":"Condition/7c89162d-a16b-4707-8356-d6f6eba3f431"},"use":{"coding":[{"system":"http://terminology.hl7.org/CodeSystem/diagnosis-role","code":"billing","display":"Billing"}]},"rank":1}]},"request":{"method":"PUT","url":"Encounter/4f66a92c-eef7-4e49-966d-b2ebd0293bfa"}},{"fullUrl":"https://madie.cms.gov/MedicationAdministration/cab5b761-dc88-44c2-8be0-e905cb5b9bb4","resource":{"resourceType":"MedicationAdministration","id":"cab5b761-dc88-44c2-8be0-e905cb5b9bb4","meta":{"profile":["http://hl7.org/fhir/us/qicore/StructureDefinition/qicore-medicationadministration"]},"status":"completed","medicationCodeableConcept":{"coding":[{"system":"http://www.nlm.nih.gov/research/umls/rxnorm","code":"198466"}]},"subject":{"reference":"Patient/f25baf5f-2980-416c-a8ef-3b9e42d751c3"},"effectivePeriod":{"start":"2026-10-12T00:00:00+00:00"}},"request":{"method":"PUT","url":"MedicationAdministration/cab5b761-dc88-44c2-8be0-e905cb5b9bb4"}},{"fullUrl":"https://madie.cms.gov/Coverage/0bb1062d-7c52-4227-adea-495f80f5e692","resource":{"resourceType":"Coverage","id":"0bb1062d-7c52-4227-adea-495f80f5e692","status":"active","beneficiary":{"reference":"Patient/f25baf5f-2980-416c-a8ef-3b9e42d751c3"},"period":{"start":"1976-09-26T08:00:00+00:00"},"payor":[{"reference":"Organization/880a275e-1cf2-4fb9-869b-f1d2173fdc2b"}]},"request":{"method":"PUT","url":"Coverage/0bb1062d-7c52-4227-adea-495f80f5e692"}},{"fullUrl":"https://madie.cms.gov/Condition/7c89162d-a16b-4707-8356-d6f6eba3f431","resource":{"resourceType":"Condition","id":"7c89162d-a16b-4707-8356-d6f6eba3f431","meta":{"profile":["http://hl7.org/fhir/us/qicore/StructureDefinition/qicore-condition"]},"clinicalStatus":{"coding":[{"system":"http://terminology.hl7.org/CodeSystem/condition-clinical","code":"active"}]},"verificationStatus":{"coding":[{"system":"http://terminology.hl7.org/CodeSystem/condition-ver-status","code":"confirmed"}]},"category":[{"coding":[{"system":"http://terminology.hl7.org/CodeSystem/condition-category","code":"encounter-diagnosis","display":"Encounter Diagnosis"}]}],"code":{"coding":[{"system":"http://snomed.info/sct","version":"2020-09","code":"111297002","display":"Nonparalytic stroke (disorder)","userSelected":true}]},"subject":{"reference":"Patient/f25baf5f-2980-416c-a8ef-3b9e42d751c3"},"recordedDate":"2026-08-16T08:00:00.000+00:00"},"request":{"method":"PUT","url":"Condition/7c89162d-a16b-4707-8356-d6f6eba3f431"}},{"fullUrl":"https://madie.cms.gov/Organization/52acc844-bcc2-4485-801c-6cf6229e19f1","resource":{"resourceType":"Organization","id":"880a275e-1cf2-4fb9-869b-f1d2173fdc2b","meta":{"profile":["http://hl7.org/fhir/us/qicore/StructureDefinition/qicore-organization"]},"identifier":[{"use":"temp","system":"urn:oid:2.16.840.1.113883.4.4","value":"21-3259825"}],"active":true,"type":[{"coding":[{"system":"http://terminology.hl7.org/CodeSystem/organization-type","code":"pay","display":"Payer"}]}],"name":"Blue Cross Blue Shield of Texas","telecom":[{"system":"phone","value":"(+1) 972-766-6900"}],"address":[{"use":"billing","type":"postal","line":["P.O. Box 660044"],"city":"Dallas","state":"TX","postalCode":"75266-0044","country":"USA"}]},"request":{"method":"PUT","url":"Organization/880a275e-1cf2-4fb9-869b-f1d2173fdc2b"}},{"fullUrl":"https://madie.cms.gov/Practitioner/91a53b92-df29-46e2-bda6-93e1d9bac5d7","resource":{"resourceType":"Practitioner","id":"91a53b92-df29-46e2-bda6-93e1d9bac5d7","identifier":[{"system":"http://hl7.org/fhir/sid/us-npi","value":"123456"}],"name":[{"family":"Evil","prefix":["Dr"]}]},"request":{"method":"PUT","url":"Practitioner/91a53b92-df29-46e2-bda6-93e1d9bac5d7"}},{"fullUrl":"https://madie.cms.gov/MeasureReport/097e925c-1455-47e3-87f4-eea0aeae7e44","resource":{"resourceType":"MeasureReport","id":"097e925c-1455-47e3-87f4-eea0aeae7e44","meta":{"profile":["http://hl7.org/fhir/us/cqfmeasures/StructureDefinition/test-case-cqfm"]},"contained":[{"resourceType":"Parameters","id":"e53f1db9-97e4-4422-8e7d-e070f8c6b2a9-parameters","parameter":[{"name":"subject","valueString":"f25baf5f-2980-416c-a8ef-3b9e42d751c3"}]}],"extension":[{"url":"http://hl7.org/fhir/us/cqfmeasures/StructureDefinition/cqfm-inputParameters","valueReference":{"reference":"#e53f1db9-97e4-4422-8e7d-e070f8c6b2a9-parameters"}},{"url":"http://hl7.org/fhir/us/cqfmeasures/StructureDefinition/cqfm-testCaseDescription","valueMarkdown":"\"Patient receives antithrombotic in = 2 days after IP encounter starts.\nglobal.\"\"Hospitalization\"\" =(IP)\"\n"}],"modifierExtension":[{"url":"http://hl7.org/fhir/us/cqfmeasures/StructureDefinition/cqfm-isTestCase","valueBoolean":true}],"status":"complete","type":"individual","measure":"https://madie.cms.gov/Measure/CMS72FHIRSTKAntithromboticDay2","period":{"start":"2026-01-01","end":"2026-12-31"},"group":[{"population":[{"code":{"coding":[{"system":"http://terminology.hl7.org/CodeSystem/measure-population","code":"initial-population","display":"Initial Population"}]},"count":1},{"code":{"coding":[{"system":"http://terminology.hl7.org/CodeSystem/measure-population","code":"denominator","display":"Denominator"}]},"count":1},{"code":{"coding":[{"system":"http://terminology.hl7.org/CodeSystem/measure-population","code":"denominator-exclusion","display":"Denominator Exclusion"}]},"count":0},{"code":{"coding":[{"system":"http://terminology.hl7.org/CodeSystem/measure-population","code":"numerator","display":"Numerator"}]},"count":0},{"code":{"coding":[{"system":"http://terminology.hl7.org/CodeSystem/measure-population","code":"denominator-exception","display":"Denominator Exception"}]},"count":0}]}]},"request":{"method":"PUT","url":"MeasureReport/097e925c-1455-47e3-87f4-eea0aeae7e44"}}]}