{"resourceType":"Bundle","id":"tests-c7382fb6-053b-4424-b5c2-87d79179b016-bundle","type":"transaction","entry":[{"fullUrl":"https://madie.cms.gov/Patient/c7382fb6-053b-4424-b5c2-87d79179b016","resource":{"resourceType":"Patient","id":"c7382fb6-053b-4424-b5c2-87d79179b016","meta":{"profile":["http://hl7.org/fhir/us/qicore/StructureDefinition/qicore-patient"]},"text":{"status":"generated","div":"<div xmlns=\"http://www.w3.org/1999/xhtml\"><div class=\"hapiHeaderText\">INRdurED_ED&gt;1hrNoObsBFEncDayAft <b>DENEXCEPFAIL </b></div><table class=\"hapiPropertyTable\"><tbody><tr><td>Identifier</td><td>360ae8bb256768cb27e4cfc58e369eef4975e226a9db02431c836a153757934a</td></tr><tr><td>Date of birth</td><td><span>26 September 1975</span></td></tr></tbody></table></div>"},"extension":[{"url":"http://hl7.org/fhir/us/core/StructureDefinition/us-core-race","extension":[{"url":"ombCategory","valueCoding":{"system":"urn:oid:2.16.840.1.113883.6.238","code":"2054-5","display":"Black or African American","userSelected":true}},{"url":"text","valueString":"Black or African American"}]},{"url":"http://hl7.org/fhir/us/core/StructureDefinition/us-core-ethnicity","extension":[{"url":"ombCategory","valueCoding":{"system":"urn:oid:2.16.840.1.113883.6.238","code":"2186-5","display":"Not Hispanic or Latino","userSelected":true}},{"url":"text","valueString":"Not Hispanic or Latino"}]}],"identifier":[{"type":{"coding":[{"system":"http://terminology.hl7.org/CodeSystem/v2-0203","code":"MR"}]},"system":"https://bonnie-fhir.healthit.gov/","value":"60f82c2f98086b570510e2b3"}],"active":true,"name":[{"use":"usual","family":"DENEXCEPFail","given":["INRdurED_ED>1hrNoObsBFEncDayAft"]}],"gender":"female","birthDate":"1976-09-26"},"request":{"method":"PUT","url":"Patient/c7382fb6-053b-4424-b5c2-87d79179b016"}},{"fullUrl":"https://madie.cms.gov/Encounter/4670a735-686c-4bde-911b-6a2009c95979","resource":{"resourceType":"Encounter","id":"4670a735-686c-4bde-911b-6a2009c95979","meta":{"profile":["http://hl7.org/fhir/us/qicore/StructureDefinition/qicore-encounter"]},"status":"finished","class":{"system":"http://terminology.hl7.org/CodeSystem/v3-ActCode","code":"EMER","display":"emergency"},"type":[{"coding":[{"system":"http://snomed.info/sct","code":"4525004"}]}],"subject":{"reference":"Patient/c7382fb6-053b-4424-b5c2-87d79179b016"},"period":{"start":"2026-10-10T06:15:00.000+00:00","end":"2026-10-10T22:59:00.000+00:00"},"length":{"value":0,"unit":"days"}},"request":{"method":"PUT","url":"Encounter/4670a735-686c-4bde-911b-6a2009c95979"}},{"fullUrl":"https://madie.cms.gov/Encounter/ae49df53-1bb6-4268-be55-12c45a62a73a","resource":{"resourceType":"Encounter","id":"ae49df53-1bb6-4268-be55-12c45a62a73a","meta":{"profile":["http://hl7.org/fhir/us/qicore/StructureDefinition/qicore-encounter"]},"status":"finished","class":{"system":"http://terminology.hl7.org/CodeSystem/v3-ActCode","code":"IMP","display":"inpatient encounter","userSelected":true},"type":[{"coding":[{"system":"http://snomed.info/sct","code":"32485007"}]}],"subject":{"reference":"Patient/c7382fb6-053b-4424-b5c2-87d79179b016"},"period":{"start":"2026-10-11T00:00:00.000+00:00","end":"2026-10-15T11:30:00.000+00:00"},"length":{"value":4,"unit":"days"},"diagnosis":[{"condition":{"reference":"Condition/a088f22a-0594-4d19-a9fa-c928415a2d77"},"use":{"coding":[{"system":"http://terminology.hl7.org/CodeSystem/diagnosis-role","code":"billing","display":"Billing"}]},"rank":1}]},"request":{"method":"PUT","url":"Encounter/ae49df53-1bb6-4268-be55-12c45a62a73a"}},{"fullUrl":"https://madie.cms.gov/Observation/9b7bee93-8eaf-4a19-9889-37287f1803a6","resource":{"resourceType":"Observation","id":"9b7bee93-8eaf-4a19-9889-37287f1803a6","meta":{"profile":["http://hl7.org/fhir/us/qicore/StructureDefinition/qicore-observation"]},"status":"final","category":[{"coding":[{"system":"http://terminology.hl7.org/CodeSystem/observation-category","code":"laboratory","display":"Laboratory"}]}],"code":{"coding":[{"system":"http://loinc.org","code":"34714-6"}]},"subject":{"reference":"Patient/c7382fb6-053b-4424-b5c2-87d79179b016"},"effectiveDateTime":"2026-10-10T06:15:00.000+00:00","issued":"2026-10-10T23:59:00.000+00:00","valueQuantity":{"value":3.6}},"request":{"method":"PUT","url":"Observation/9b7bee93-8eaf-4a19-9889-37287f1803a6"}},{"fullUrl":"https://madie.cms.gov/Coverage/2d4f4b68-e261-458d-b12c-485b03b1e714","resource":{"resourceType":"Coverage","id":"2d4f4b68-e261-458d-b12c-485b03b1e714","status":"active","beneficiary":{"reference":"Patient/c7382fb6-053b-4424-b5c2-87d79179b016"},"period":{"start":"1976-09-26T08:00:00+00:00"},"payor":[{"reference":"Organization/e75793c9-fdf6-463a-8c1d-4ee44320dc25"}]},"request":{"method":"PUT","url":"Coverage/2d4f4b68-e261-458d-b12c-485b03b1e714"}},{"fullUrl":"https://madie.cms.gov/Condition/a088f22a-0594-4d19-a9fa-c928415a2d77","resource":{"resourceType":"Condition","id":"a088f22a-0594-4d19-a9fa-c928415a2d77","meta":{"profile":["http://hl7.org/fhir/us/qicore/StructureDefinition/qicore-condition"]},"clinicalStatus":{"coding":[{"system":"http://terminology.hl7.org/CodeSystem/condition-clinical","code":"active"}]},"verificationStatus":{"coding":[{"system":"http://terminology.hl7.org/CodeSystem/condition-ver-status","code":"confirmed"}]},"category":[{"coding":[{"system":"http://terminology.hl7.org/CodeSystem/condition-category","code":"encounter-diagnosis","display":"Encounter Diagnosis"}]}],"code":{"coding":[{"system":"http://snomed.info/sct","version":"2020-09","code":"111297002","display":"Nonparalytic stroke (disorder)","userSelected":true}]},"subject":{"reference":"Patient/c7382fb6-053b-4424-b5c2-87d79179b016"},"recordedDate":"2026-07-28T08:00:00.000+00:00"},"request":{"method":"PUT","url":"Condition/a088f22a-0594-4d19-a9fa-c928415a2d77"}},{"fullUrl":"https://madie.cms.gov/Organization/3152d611-af22-4dc4-9e27-e18a32c9609d","resource":{"resourceType":"Organization","id":"e75793c9-fdf6-463a-8c1d-4ee44320dc25","meta":{"profile":["http://hl7.org/fhir/us/qicore/StructureDefinition/qicore-organization"]},"identifier":[{"use":"temp","system":"urn:oid:2.16.840.1.113883.4.4","value":"21-3259825"}],"active":true,"type":[{"coding":[{"system":"http://terminology.hl7.org/CodeSystem/organization-type","code":"pay","display":"Payer"}]}],"name":"Blue Cross Blue Shield of Texas","telecom":[{"system":"phone","value":"(+1) 972-766-6900"}],"address":[{"use":"billing","type":"postal","line":["P.O. Box 660044"],"city":"Dallas","state":"TX","postalCode":"75266-0044","country":"USA"}]},"request":{"method":"PUT","url":"Organization/e75793c9-fdf6-463a-8c1d-4ee44320dc25"}},{"fullUrl":"https://madie.cms.gov/MeasureReport/7af3b042-5811-4b84-8c80-a6b1ba1f537c","resource":{"resourceType":"MeasureReport","id":"7af3b042-5811-4b84-8c80-a6b1ba1f537c","meta":{"profile":["http://hl7.org/fhir/us/cqfmeasures/StructureDefinition/test-case-cqfm"]},"contained":[{"resourceType":"Parameters","id":"bc19acde-3753-4fe4-a5cf-f29114e3fb96-parameters","parameter":[{"name":"subject","valueString":"c7382fb6-053b-4424-b5c2-87d79179b016"}]}],"extension":[{"url":"http://hl7.org/fhir/us/cqfmeasures/StructureDefinition/cqfm-inputParameters","valueReference":{"reference":"#bc19acde-3753-4fe4-a5cf-f29114e3fb96-parameters"}},{"url":"http://hl7.org/fhir/us/cqfmeasures/StructureDefinition/cqfm-testCaseDescription","valueMarkdown":"Patient receives INR of 3.6 the day of ED end. ED ends 61 minute before IP the next day at midnight. No Obs. Testing Day of operator with HospitalizationWithObservation function.\n"}],"modifierExtension":[{"url":"http://hl7.org/fhir/us/cqfmeasures/StructureDefinition/cqfm-isTestCase","valueBoolean":true}],"status":"complete","type":"individual","measure":"https://madie.cms.gov/Measure/CMS72FHIRSTKAntithromboticDay2","period":{"start":"2026-01-01","end":"2026-12-31"},"group":[{"population":[{"code":{"coding":[{"system":"http://terminology.hl7.org/CodeSystem/measure-population","code":"initial-population","display":"Initial Population"}]},"count":1},{"code":{"coding":[{"system":"http://terminology.hl7.org/CodeSystem/measure-population","code":"denominator","display":"Denominator"}]},"count":1},{"code":{"coding":[{"system":"http://terminology.hl7.org/CodeSystem/measure-population","code":"denominator-exclusion","display":"Denominator Exclusion"}]},"count":0},{"code":{"coding":[{"system":"http://terminology.hl7.org/CodeSystem/measure-population","code":"numerator","display":"Numerator"}]},"count":0},{"code":{"coding":[{"system":"http://terminology.hl7.org/CodeSystem/measure-population","code":"denominator-exception","display":"Denominator Exception"}]},"count":0}]}]},"request":{"method":"PUT","url":"MeasureReport/7af3b042-5811-4b84-8c80-a6b1ba1f537c"}}]}