{"resourceType":"Bundle","id":"tests-ad35c913-a8ba-4d29-b6e9-8652aa5ca20c-bundle","type":"transaction","entry":[{"fullUrl":"https://madie.cms.gov/Patient/ad35c913-a8ba-4d29-b6e9-8652aa5ca20c","resource":{"resourceType":"Patient","id":"ad35c913-a8ba-4d29-b6e9-8652aa5ca20c","meta":{"profile":["http://hl7.org/fhir/us/qicore/StructureDefinition/qicore-patient"]},"text":{"status":"generated","div":"<div xmlns=\"http://www.w3.org/1999/xhtml\"><div class=\"hapiHeaderText\">Med1TPA=EdStart <b>DENEXPASS </b></div><table class=\"hapiPropertyTable\"><tbody><tr><td>Identifier</td><td>b9d60025f1579fc69f692d96d60444be</td></tr><tr><td>Date of birth</td><td><span>26 September 1975</span></td></tr></tbody></table></div>"},"extension":[{"url":"http://hl7.org/fhir/us/core/StructureDefinition/us-core-race","extension":[{"url":"ombCategory","valueCoding":{"system":"urn:oid:2.16.840.1.113883.6.238","code":"2054-5","display":"Black or African American","userSelected":true}},{"url":"text","valueString":"Black or African American"}]},{"url":"http://hl7.org/fhir/us/core/StructureDefinition/us-core-ethnicity","extension":[{"url":"ombCategory","valueCoding":{"system":"urn:oid:2.16.840.1.113883.6.238","code":"2186-5","display":"Not Hispanic or Latino","userSelected":true}},{"url":"text","valueString":"Not Hispanic or Latino"}]}],"identifier":[{"type":{"coding":[{"system":"http://terminology.hl7.org/CodeSystem/v2-0203","code":"MR"}]},"system":"https://bonnie-fhir.healthit.gov/","value":"60f82c2e98086b570510e284"}],"active":true,"name":[{"use":"usual","family":"DENEXPass","given":["Med1TPA=EdStart"]}],"gender":"female","birthDate":"1976-09-26"},"request":{"method":"PUT","url":"Patient/ad35c913-a8ba-4d29-b6e9-8652aa5ca20c"}},{"fullUrl":"https://madie.cms.gov/Encounter/d0b1b3b6-2de8-40db-9bf9-7b938152b252","resource":{"resourceType":"Encounter","id":"d0b1b3b6-2de8-40db-9bf9-7b938152b252","meta":{"profile":["http://hl7.org/fhir/us/qicore/StructureDefinition/qicore-encounter"]},"status":"finished","class":{"system":"http://terminology.hl7.org/CodeSystem/v3-ActCode","code":"EMER","display":"emergency"},"type":[{"coding":[{"system":"http://snomed.info/sct","code":"4525004"}]}],"subject":{"reference":"Patient/ad35c913-a8ba-4d29-b6e9-8652aa5ca20c"},"period":{"start":"2026-10-10T06:00:00+00:00","end":"2026-10-10T08:30:00+00:00"},"length":{"value":0,"unit":"days"}},"request":{"method":"PUT","url":"Encounter/d0b1b3b6-2de8-40db-9bf9-7b938152b252"}},{"fullUrl":"https://madie.cms.gov/Encounter/3415ce54-7c9e-4cc9-8999-b827a373e577","resource":{"resourceType":"Encounter","id":"3415ce54-7c9e-4cc9-8999-b827a373e577","meta":{"profile":["http://hl7.org/fhir/us/qicore/StructureDefinition/qicore-encounter"]},"status":"finished","class":{"system":"http://terminology.hl7.org/CodeSystem/v3-ActCode","code":"IMP","display":"inpatient encounter"},"type":[{"coding":[{"system":"http://snomed.info/sct","code":"32485007"}]}],"subject":{"reference":"Patient/ad35c913-a8ba-4d29-b6e9-8652aa5ca20c"},"period":{"start":"2026-10-10T09:00:00+00:00","end":"2026-10-12T11:15:00+00:00"},"length":{"value":2,"unit":"days"},"diagnosis":[{"condition":{"reference":"Condition/0fcc1552-c2b0-4b69-9950-6a5adbcea5a9"},"use":{"coding":[{"system":"http://terminology.hl7.org/CodeSystem/diagnosis-role","code":"billing","display":"Billing"}]},"rank":1}]},"request":{"method":"PUT","url":"Encounter/3415ce54-7c9e-4cc9-8999-b827a373e577"}},{"fullUrl":"https://madie.cms.gov/MedicationAdministration/ca77b518-1169-4bdd-9bb7-92ae96933042","resource":{"resourceType":"MedicationAdministration","id":"ca77b518-1169-4bdd-9bb7-92ae96933042","meta":{"profile":["http://hl7.org/fhir/us/qicore/StructureDefinition/qicore-medicationadministration"]},"status":"completed","medicationCodeableConcept":{"coding":[{"system":"http://www.nlm.nih.gov/research/umls/rxnorm","code":"1804799"}]},"subject":{"reference":"Patient/ad35c913-a8ba-4d29-b6e9-8652aa5ca20c"},"effectivePeriod":{"start":"2026-10-10T06:00:00+00:00"}},"request":{"method":"PUT","url":"MedicationAdministration/ca77b518-1169-4bdd-9bb7-92ae96933042"}},{"fullUrl":"https://madie.cms.gov/Coverage/777ecdf4-0516-475b-9226-aea609d5d141","resource":{"resourceType":"Coverage","id":"777ecdf4-0516-475b-9226-aea609d5d141","status":"active","beneficiary":{"reference":"Patient/ad35c913-a8ba-4d29-b6e9-8652aa5ca20c"},"period":{"start":"1976-09-26T08:00:00+00:00"},"payor":[{"reference":"Organization/aeb2c6be-6577-4bba-a6b6-6eab95111f1b"}]},"request":{"method":"PUT","url":"Coverage/777ecdf4-0516-475b-9226-aea609d5d141"}},{"fullUrl":"https://madie.cms.gov/Condition/0fcc1552-c2b0-4b69-9950-6a5adbcea5a9","resource":{"resourceType":"Condition","id":"0fcc1552-c2b0-4b69-9950-6a5adbcea5a9","meta":{"profile":["http://hl7.org/fhir/us/qicore/StructureDefinition/qicore-condition"]},"clinicalStatus":{"coding":[{"system":"http://terminology.hl7.org/CodeSystem/condition-clinical","code":"active"}]},"verificationStatus":{"coding":[{"system":"http://terminology.hl7.org/CodeSystem/condition-ver-status","code":"confirmed"}]},"category":[{"coding":[{"system":"http://terminology.hl7.org/CodeSystem/condition-category","code":"encounter-diagnosis","display":"Encounter Diagnosis"}]}],"code":{"coding":[{"system":"http://snomed.info/sct","version":"2020-09","code":"111297002","display":"Nonparalytic stroke (disorder)","userSelected":true}]},"subject":{"reference":"Patient/ad35c913-a8ba-4d29-b6e9-8652aa5ca20c"},"recordedDate":"2026-08-13T08:00:00.000+00:00"},"request":{"method":"PUT","url":"Condition/0fcc1552-c2b0-4b69-9950-6a5adbcea5a9"}},{"fullUrl":"https://madie.cms.gov/Organization/b358f004-4628-4ee6-bed5-1865dc90169a","resource":{"resourceType":"Organization","id":"aeb2c6be-6577-4bba-a6b6-6eab95111f1b","meta":{"profile":["http://hl7.org/fhir/us/qicore/StructureDefinition/qicore-organization"]},"identifier":[{"use":"temp","system":"urn:oid:2.16.840.1.113883.4.4","value":"21-3259825"}],"active":true,"type":[{"coding":[{"system":"http://terminology.hl7.org/CodeSystem/organization-type","code":"pay","display":"Payer"}]}],"name":"Blue Cross Blue Shield of Texas","telecom":[{"system":"phone","value":"(+1) 972-766-6900"}],"address":[{"use":"billing","type":"postal","line":["P.O. Box 660044"],"city":"Dallas","state":"TX","postalCode":"75266-0044","country":"USA"}]},"request":{"method":"PUT","url":"Organization/aeb2c6be-6577-4bba-a6b6-6eab95111f1b"}},{"fullUrl":"https://madie.cms.gov/MeasureReport/4ba9358d-68f6-4761-baeb-f668adb005ab","resource":{"resourceType":"MeasureReport","id":"4ba9358d-68f6-4761-baeb-f668adb005ab","meta":{"profile":["http://hl7.org/fhir/us/cqfmeasures/StructureDefinition/test-case-cqfm"]},"contained":[{"resourceType":"Parameters","id":"ce8209a5-b424-44c8-ba37-39ab38f0d231-parameters","parameter":[{"name":"subject","valueString":"ad35c913-a8ba-4d29-b6e9-8652aa5ca20c"}]}],"extension":[{"url":"http://hl7.org/fhir/us/cqfmeasures/StructureDefinition/cqfm-inputParameters","valueReference":{"reference":"#ce8209a5-b424-44c8-ba37-39ab38f0d231-parameters"}},{"url":"http://hl7.org/fhir/us/cqfmeasures/StructureDefinition/cqfm-testCaseDescription","valueMarkdown":"Medication TPA started at ED start, during hospitalizatoin"}],"modifierExtension":[{"url":"http://hl7.org/fhir/us/cqfmeasures/StructureDefinition/cqfm-isTestCase","valueBoolean":true}],"status":"complete","type":"individual","measure":"https://madie.cms.gov/Measure/CMS72FHIRSTKAntithromboticDay2","period":{"start":"2026-01-01","end":"2026-12-31"},"group":[{"population":[{"code":{"coding":[{"system":"http://terminology.hl7.org/CodeSystem/measure-population","code":"initial-population","display":"Initial Population"}]},"count":1},{"code":{"coding":[{"system":"http://terminology.hl7.org/CodeSystem/measure-population","code":"denominator","display":"Denominator"}]},"count":1},{"code":{"coding":[{"system":"http://terminology.hl7.org/CodeSystem/measure-population","code":"denominator-exclusion","display":"Denominator Exclusion"}]},"count":1},{"code":{"coding":[{"system":"http://terminology.hl7.org/CodeSystem/measure-population","code":"numerator","display":"Numerator"}]},"count":0},{"code":{"coding":[{"system":"http://terminology.hl7.org/CodeSystem/measure-population","code":"denominator-exception","display":"Denominator Exception"}]},"count":0}]}]},"request":{"method":"PUT","url":"MeasureReport/4ba9358d-68f6-4761-baeb-f668adb005ab"}}]}