{"resourceType":"Bundle","id":"tests-b4cd9b20-6d41-4034-907c-b24e362a0699-bundle","type":"transaction","entry":[{"fullUrl":"https://madie.cms.gov/Patient/b4cd9b20-6d41-4034-907c-b24e362a0699","resource":{"resourceType":"Patient","id":"b4cd9b20-6d41-4034-907c-b24e362a0699","meta":{"profile":["http://hl7.org/fhir/us/qicore/StructureDefinition/qicore-patient"]},"text":{"status":"generated","div":"<div xmlns=\"http://www.w3.org/1999/xhtml\"><div class=\"hapiHeaderText\">INRdurED_ED&gt;1hrNoObsBFEncDayOf <b>DENEXCEPASS </b></div><table class=\"hapiPropertyTable\"><tbody><tr><td>Identifier</td><td>97de51d393bc88ce334828a3a1df3920f5fb67d43d92265e6c726310724c3f53</td></tr><tr><td>Date of birth</td><td><span>26 September 1975</span></td></tr></tbody></table></div>"},"extension":[{"url":"http://hl7.org/fhir/us/core/StructureDefinition/us-core-race","extension":[{"url":"ombCategory","valueCoding":{"system":"urn:oid:2.16.840.1.113883.6.238","code":"2054-5","display":"Black or African American","userSelected":true}},{"url":"text","valueString":"Black or African American"}]},{"url":"http://hl7.org/fhir/us/core/StructureDefinition/us-core-ethnicity","extension":[{"url":"ombCategory","valueCoding":{"system":"urn:oid:2.16.840.1.113883.6.238","code":"2186-5","display":"Not Hispanic or Latino","userSelected":true}},{"url":"text","valueString":"Not Hispanic or Latino"}]}],"identifier":[{"type":{"coding":[{"system":"http://terminology.hl7.org/CodeSystem/v2-0203","code":"MR"}]},"system":"https://bonnie-fhir.healthit.gov/","value":"60f82c2f98086b570510e2b1"}],"active":true,"name":[{"use":"usual","family":"DENEXCEPass","given":["INRdurED_ED>1hrNoObsBFEncDayOf"]}],"gender":"female","birthDate":"1976-09-26"},"request":{"method":"PUT","url":"Patient/b4cd9b20-6d41-4034-907c-b24e362a0699"}},{"fullUrl":"https://madie.cms.gov/Encounter/9f547170-f91c-4d90-a4f1-ecea22367923","resource":{"resourceType":"Encounter","id":"9f547170-f91c-4d90-a4f1-ecea22367923","meta":{"profile":["http://hl7.org/fhir/us/qicore/StructureDefinition/qicore-encounter"]},"status":"finished","class":{"system":"http://terminology.hl7.org/CodeSystem/v3-ActCode","code":"EMER","display":"emergency","userSelected":true},"type":[{"coding":[{"system":"http://snomed.info/sct","code":"4525004"}]}],"subject":{"reference":"Patient/b4cd9b20-6d41-4034-907c-b24e362a0699"},"period":{"start":"2026-10-10T06:13:00+00:00","end":"2026-10-10T06:30:00+00:00"},"length":{"value":0,"unit":"days"}},"request":{"method":"PUT","url":"Encounter/9f547170-f91c-4d90-a4f1-ecea22367923"}},{"fullUrl":"https://madie.cms.gov/Encounter/600eba9f-efb8-427c-acdd-795b75c3cafc","resource":{"resourceType":"Encounter","id":"600eba9f-efb8-427c-acdd-795b75c3cafc","meta":{"profile":["http://hl7.org/fhir/us/qicore/StructureDefinition/qicore-encounter"]},"status":"finished","class":{"system":"http://terminology.hl7.org/CodeSystem/v3-ActCode","code":"IMP","display":"inpatient encounter","userSelected":true},"type":[{"coding":[{"system":"http://snomed.info/sct","code":"32485007"}]}],"subject":{"reference":"Patient/b4cd9b20-6d41-4034-907c-b24e362a0699"},"period":{"start":"2026-10-10T07:31:00+00:00","end":"2026-10-15T11:30:00+00:00"},"length":{"value":5,"unit":"days"},"diagnosis":[{"condition":{"reference":"Condition/fbd327a8-84df-4acf-a1a4-1f3bb436ba8e"},"use":{"coding":[{"system":"http://terminology.hl7.org/CodeSystem/diagnosis-role","code":"billing","display":"Billing"}]},"rank":1}]},"request":{"method":"PUT","url":"Encounter/600eba9f-efb8-427c-acdd-795b75c3cafc"}},{"fullUrl":"https://madie.cms.gov/Observation/b7cc11e3-4e22-49fe-9a8a-070bb90b19ed","resource":{"resourceType":"Observation","id":"b7cc11e3-4e22-49fe-9a8a-070bb90b19ed","meta":{"profile":["http://hl7.org/fhir/us/qicore/StructureDefinition/qicore-observation"]},"status":"final","category":[{"coding":[{"system":"http://terminology.hl7.org/CodeSystem/observation-category","code":"laboratory","display":"Laboratory"}]}],"code":{"coding":[{"system":"http://loinc.org","code":"34714-6"}]},"subject":{"reference":"Patient/b4cd9b20-6d41-4034-907c-b24e362a0699"},"effectivePeriod":{"start":"2026-10-10T06:14:00+00:00"},"issued":"2026-10-10T06:13:00.000+00:00","valueQuantity":{"value":3.6}},"request":{"method":"PUT","url":"Observation/b7cc11e3-4e22-49fe-9a8a-070bb90b19ed"}},{"fullUrl":"https://madie.cms.gov/Coverage/1f1116ac-35ef-4b68-a6f6-e3ad233f4d8a","resource":{"resourceType":"Coverage","id":"1f1116ac-35ef-4b68-a6f6-e3ad233f4d8a","status":"active","beneficiary":{"reference":"Patient/b4cd9b20-6d41-4034-907c-b24e362a0699"},"period":{"start":"1976-09-26T08:00:00+00:00"},"payor":[{"reference":"Organization/607fdef9-3983-4cef-ab1a-95434d29b463"}]},"request":{"method":"PUT","url":"Coverage/1f1116ac-35ef-4b68-a6f6-e3ad233f4d8a"}},{"fullUrl":"https://madie.cms.gov/Condition/fbd327a8-84df-4acf-a1a4-1f3bb436ba8e","resource":{"resourceType":"Condition","id":"fbd327a8-84df-4acf-a1a4-1f3bb436ba8e","meta":{"profile":["http://hl7.org/fhir/us/qicore/StructureDefinition/qicore-condition"]},"clinicalStatus":{"coding":[{"system":"http://terminology.hl7.org/CodeSystem/condition-clinical","code":"active"}]},"verificationStatus":{"coding":[{"system":"http://terminology.hl7.org/CodeSystem/condition-ver-status","code":"confirmed"}]},"category":[{"coding":[{"system":"http://terminology.hl7.org/CodeSystem/condition-category","code":"encounter-diagnosis","display":"Encounter Diagnosis"}]}],"code":{"coding":[{"system":"http://snomed.info/sct","version":"2020-09","code":"111297002","display":"Nonparalytic stroke (disorder)","userSelected":true}]},"subject":{"reference":"Patient/b4cd9b20-6d41-4034-907c-b24e362a0699"},"recordedDate":"2026-08-06T08:00:00.000+00:00"},"request":{"method":"PUT","url":"Condition/fbd327a8-84df-4acf-a1a4-1f3bb436ba8e"}},{"fullUrl":"https://madie.cms.gov/Organization/b2342d8f-2098-4afd-86c2-898655d705c2","resource":{"resourceType":"Organization","id":"607fdef9-3983-4cef-ab1a-95434d29b463","meta":{"profile":["http://hl7.org/fhir/us/qicore/StructureDefinition/qicore-organization"]},"identifier":[{"use":"temp","system":"urn:oid:2.16.840.1.113883.4.4","value":"21-3259825"}],"active":true,"type":[{"coding":[{"system":"http://terminology.hl7.org/CodeSystem/organization-type","code":"pay","display":"Payer"}]}],"name":"Blue Cross Blue Shield of Texas","telecom":[{"system":"phone","value":"(+1) 972-766-6900"}],"address":[{"use":"billing","type":"postal","line":["P.O. Box 660044"],"city":"Dallas","state":"TX","postalCode":"75266-0044","country":"USA"}]},"request":{"method":"PUT","url":"Organization/607fdef9-3983-4cef-ab1a-95434d29b463"}},{"fullUrl":"https://madie.cms.gov/MeasureReport/1d6173b2-31cc-4e93-8f78-d9325b742a5e","resource":{"resourceType":"MeasureReport","id":"1d6173b2-31cc-4e93-8f78-d9325b742a5e","meta":{"profile":["http://hl7.org/fhir/us/cqfmeasures/StructureDefinition/test-case-cqfm"]},"contained":[{"resourceType":"Parameters","id":"4540ae0b-3719-4266-8aa8-71fccc5d6957-parameters","parameter":[{"name":"subject","valueString":"b4cd9b20-6d41-4034-907c-b24e362a0699"}]}],"extension":[{"url":"http://hl7.org/fhir/us/cqfmeasures/StructureDefinition/cqfm-inputParameters","valueReference":{"reference":"#4540ae0b-3719-4266-8aa8-71fccc5d6957-parameters"}},{"url":"http://hl7.org/fhir/us/cqfmeasures/StructureDefinition/cqfm-testCaseDescription","valueMarkdown":"Patient receives INR day of ED. Ed ends 61 min before IP start on the same day. No Obs. Testing Day of operator with HospitalizationWithObservation function.\n"}],"modifierExtension":[{"url":"http://hl7.org/fhir/us/cqfmeasures/StructureDefinition/cqfm-isTestCase","valueBoolean":true}],"status":"complete","type":"individual","measure":"https://madie.cms.gov/Measure/CMS72FHIRSTKAntithromboticDay2","period":{"start":"2026-01-01","end":"2026-12-31"},"group":[{"population":[{"code":{"coding":[{"system":"http://terminology.hl7.org/CodeSystem/measure-population","code":"initial-population","display":"Initial Population"}]},"count":1},{"code":{"coding":[{"system":"http://terminology.hl7.org/CodeSystem/measure-population","code":"denominator","display":"Denominator"}]},"count":1},{"code":{"coding":[{"system":"http://terminology.hl7.org/CodeSystem/measure-population","code":"denominator-exclusion","display":"Denominator Exclusion"}]},"count":0},{"code":{"coding":[{"system":"http://terminology.hl7.org/CodeSystem/measure-population","code":"numerator","display":"Numerator"}]},"count":0},{"code":{"coding":[{"system":"http://terminology.hl7.org/CodeSystem/measure-population","code":"denominator-exception","display":"Denominator Exception"}]},"count":1}]}]},"request":{"method":"PUT","url":"MeasureReport/1d6173b2-31cc-4e93-8f78-d9325b742a5e"}}]}