{"resourceType":"Bundle","id":"tests-ea737165-ca06-4304-9964-c157d504c3ee-bundle","type":"transaction","entry":[{"fullUrl":"https://madie.cms.gov/Patient/ea737165-ca06-4304-9964-c157d504c3ee","resource":{"resourceType":"Patient","id":"ea737165-ca06-4304-9964-c157d504c3ee","meta":{"profile":["http://hl7.org/fhir/us/qicore/StructureDefinition/qicore-patient"]},"text":{"status":"generated","div":"<div xmlns=\"http://www.w3.org/1999/xhtml\"><div class=\"hapiHeaderText\">CMO_DayOf_AuthDat_1MinAftEDStart_EDEndLT1hrB4Obs_ObsEndLT1hrB4IP <b>DENEXPASS </b></div><table class=\"hapiPropertyTable\"><tbody><tr><td>Date of birth</td><td><span>01 January 1980</span></td></tr></tbody></table></div>"},"extension":[{"url":"http://hl7.org/fhir/us/core/StructureDefinition/us-core-race","extension":[{"url":"ombCategory","valueCoding":{"system":"urn:oid:2.16.840.1.113883.6.238","code":"2106-3","display":"White","userSelected":true}},{"url":"text","valueString":"White"}]},{"url":"http://hl7.org/fhir/us/core/StructureDefinition/us-core-ethnicity","extension":[{"url":"ombCategory","valueCoding":{"system":"urn:oid:2.16.840.1.113883.6.238","code":"2186-5","display":"Not Hispanic or Latino","userSelected":true}},{"url":"text","valueString":"Not Hispanic or Latino"}]}],"identifier":[{"type":{"coding":[{"system":"http://terminology.hl7.org/CodeSystem/v2-0203","code":"MR"}]},"system":"https://bonnie-fhir.healthit.gov/","value":"60f82c3098086b570510e2f6"}],"active":true,"name":[{"use":"usual","family":"DENEXPass","given":["CMO_DayOf_AuthDat_1MinAftEDStart_EDEndLT1hrB4Obs_ObsEndLT1hrB4IP"]}],"gender":"female","birthDate":"1981-01-01"},"request":{"method":"PUT","url":"Patient/ea737165-ca06-4304-9964-c157d504c3ee"}},{"fullUrl":"https://madie.cms.gov/Encounter/873979ed-e78e-462f-b883-fb99bed32b6e","resource":{"resourceType":"Encounter","id":"873979ed-e78e-462f-b883-fb99bed32b6e","meta":{"profile":["http://hl7.org/fhir/us/qicore/StructureDefinition/qicore-encounter"]},"status":"finished","class":{"system":"http://terminology.hl7.org/CodeSystem/v3-ActCode","code":"EMER","display":"emergency","userSelected":true},"type":[{"coding":[{"system":"http://snomed.info/sct","code":"4525004"}]}],"subject":{"reference":"Patient/ea737165-ca06-4304-9964-c157d504c3ee"},"period":{"start":"2026-11-18T07:00:00+00:00","end":"2026-11-18T08:01:00+00:00"},"diagnosis":[{"condition":{"reference":"Condition/548f3c92-59e8-455d-82b3-383dea929e76"},"use":{"coding":[{"system":"http://terminology.hl7.org/CodeSystem/diagnosis-role","code":"billing","display":"Billing"}]},"rank":1}]},"request":{"method":"PUT","url":"Encounter/873979ed-e78e-462f-b883-fb99bed32b6e"}},{"fullUrl":"https://madie.cms.gov/Encounter/429eff7a-0173-48c5-ac5c-6543d9fd7c53","resource":{"resourceType":"Encounter","id":"429eff7a-0173-48c5-ac5c-6543d9fd7c53","meta":{"profile":["http://hl7.org/fhir/us/qicore/StructureDefinition/qicore-encounter"]},"status":"finished","class":{"system":"http://terminology.hl7.org/CodeSystem/v3-ActCode","code":"OBSENC","display":"observation encounter","userSelected":true},"type":[{"coding":[{"system":"http://snomed.info/sct","code":"448951000124107"}]}],"subject":{"reference":"Patient/ea737165-ca06-4304-9964-c157d504c3ee"},"period":{"start":"2026-11-18T09:00:00+00:00","end":"2026-11-18T10:01:00+00:00"}},"request":{"method":"PUT","url":"Encounter/429eff7a-0173-48c5-ac5c-6543d9fd7c53"}},{"fullUrl":"https://madie.cms.gov/Encounter/b7843fd4-628d-4145-87b6-217f6a8066a6","resource":{"resourceType":"Encounter","id":"b7843fd4-628d-4145-87b6-217f6a8066a6","meta":{"profile":["http://hl7.org/fhir/us/qicore/StructureDefinition/qicore-encounter"]},"status":"finished","class":{"system":"http://terminology.hl7.org/CodeSystem/v3-ActCode","code":"IMP","display":"inpatient encounter","userSelected":true},"type":[{"coding":[{"system":"http://snomed.info/sct","code":"183452005"}]}],"subject":{"reference":"Patient/ea737165-ca06-4304-9964-c157d504c3ee"},"period":{"start":"2026-11-18T11:00:00+00:00","end":"2026-11-20T08:15:00+00:00"},"diagnosis":[{"condition":{"reference":"Condition/548f3c92-59e8-455d-82b3-383dea929e76"},"use":{"coding":[{"system":"http://terminology.hl7.org/CodeSystem/diagnosis-role","code":"billing","display":"Billing"}]},"rank":1}]},"request":{"method":"PUT","url":"Encounter/b7843fd4-628d-4145-87b6-217f6a8066a6"}},{"fullUrl":"https://madie.cms.gov/ServiceRequest/27d8d6d1-51e7-4298-955a-de184d3f3538","resource":{"resourceType":"ServiceRequest","id":"27d8d6d1-51e7-4298-955a-de184d3f3538","meta":{"profile":["http://hl7.org/fhir/us/qicore/StructureDefinition/qicore-servicerequest"]},"status":"active","intent":"order","code":{"coding":[{"system":"http://snomed.info/sct","code":"133918004"}]},"subject":{"reference":"Patient/ea737165-ca06-4304-9964-c157d504c3ee"},"authoredOn":"2026-11-18T07:01:00+00:00"},"request":{"method":"PUT","url":"ServiceRequest/27d8d6d1-51e7-4298-955a-de184d3f3538"}},{"fullUrl":"https://madie.cms.gov/Condition/548f3c92-59e8-455d-82b3-383dea929e76","resource":{"resourceType":"Condition","id":"548f3c92-59e8-455d-82b3-383dea929e76","meta":{"profile":["http://hl7.org/fhir/us/qicore/StructureDefinition/qicore-condition"]},"clinicalStatus":{"coding":[{"system":"http://terminology.hl7.org/CodeSystem/condition-clinical","code":"active"}]},"verificationStatus":{"coding":[{"system":"http://terminology.hl7.org/CodeSystem/condition-ver-status","code":"confirmed"}]},"category":[{"coding":[{"system":"http://terminology.hl7.org/CodeSystem/condition-category","code":"encounter-diagnosis","display":"Encounter Diagnosis"}]}],"code":{"coding":[{"system":"http://snomed.info/sct","version":"2020-09","code":"111297002","display":"Nonparalytic stroke (disorder)","userSelected":true}]},"subject":{"reference":"Patient/ea737165-ca06-4304-9964-c157d504c3ee"},"recordedDate":"2026-08-12T08:00:00.000+00:00"},"request":{"method":"PUT","url":"Condition/548f3c92-59e8-455d-82b3-383dea929e76"}},{"fullUrl":"https://madie.cms.gov/Coverage/b6df95a7-2117-4938-951c-25f9a32f4dd0","resource":{"resourceType":"Coverage","id":"b6df95a7-2117-4938-951c-25f9a32f4dd0","meta":{"profile":["http://hl7.org/fhir/us/qicore/StructureDefinition/qicore-coverage"]},"status":"active","beneficiary":{"reference":"Patient/ea737165-ca06-4304-9964-c157d504c3ee"},"payor":[{"reference":"Organization/880a275e-1cf2-4fb9-869b-f1d2173fdc2b"}]},"request":{"method":"PUT","url":"Coverage/b6df95a7-2117-4938-951c-25f9a32f4dd0"}},{"fullUrl":"https://madie.cms.gov/Organization/68bf6924-5ece-4e4e-a270-b9cb441866fb","resource":{"resourceType":"Organization","id":"880a275e-1cf2-4fb9-869b-f1d2173fdc2b","meta":{"profile":["http://hl7.org/fhir/us/qicore/StructureDefinition/qicore-organization"]},"identifier":[{"use":"temp","system":"urn:oid:2.16.840.1.113883.4.4","value":"21-3259825"}],"active":true,"type":[{"coding":[{"system":"http://terminology.hl7.org/CodeSystem/organization-type","code":"pay","display":"Payer"}]}],"name":"Blue Cross Blue Shield of Texas","telecom":[{"system":"phone","value":"(+1) 972-766-6900"}],"address":[{"use":"billing","type":"postal","line":["P.O. Box 660044"],"city":"Dallas","state":"TX","postalCode":"75266-0044","country":"USA"}]},"request":{"method":"PUT","url":"Organization/880a275e-1cf2-4fb9-869b-f1d2173fdc2b"}},{"fullUrl":"https://madie.cms.gov/MeasureReport/da02af13-6316-4254-b873-2b68227fdd57","resource":{"resourceType":"MeasureReport","id":"da02af13-6316-4254-b873-2b68227fdd57","meta":{"profile":["http://hl7.org/fhir/us/cqfmeasures/StructureDefinition/test-case-cqfm"]},"contained":[{"resourceType":"Parameters","id":"b51fd123-60a0-4e1c-a1d0-1b8b9239049f-parameters","parameter":[{"name":"subject","valueString":"ea737165-ca06-4304-9964-c157d504c3ee"}]}],"extension":[{"url":"http://hl7.org/fhir/us/cqfmeasures/StructureDefinition/cqfm-inputParameters","valueReference":{"reference":"#b51fd123-60a0-4e1c-a1d0-1b8b9239049f-parameters"}},{"url":"http://hl7.org/fhir/us/cqfmeasures/StructureDefinition/cqfm-testCaseDescription","valueMarkdown":"Patient receives comfort measures ordereded on the day of hospital arrival, 1 minute after the start of the ED start. ED ends less than 1 hour before Obs Start, Obs ends less than 1 hour before IP start.\n"}],"modifierExtension":[{"url":"http://hl7.org/fhir/us/cqfmeasures/StructureDefinition/cqfm-isTestCase","valueBoolean":true}],"status":"complete","type":"individual","measure":"https://madie.cms.gov/Measure/CMS72FHIRSTKAntithromboticDay2","period":{"start":"2026-01-01","end":"2026-12-31"},"group":[{"population":[{"code":{"coding":[{"system":"http://terminology.hl7.org/CodeSystem/measure-population","code":"initial-population","display":"Initial Population"}]},"count":1},{"code":{"coding":[{"system":"http://terminology.hl7.org/CodeSystem/measure-population","code":"denominator","display":"Denominator"}]},"count":1},{"code":{"coding":[{"system":"http://terminology.hl7.org/CodeSystem/measure-population","code":"denominator-exclusion","display":"Denominator Exclusion"}]},"count":1},{"code":{"coding":[{"system":"http://terminology.hl7.org/CodeSystem/measure-population","code":"numerator","display":"Numerator"}]},"count":0},{"code":{"coding":[{"system":"http://terminology.hl7.org/CodeSystem/measure-population","code":"denominator-exception","display":"Denominator Exception"}]},"count":0}]}]},"request":{"method":"PUT","url":"MeasureReport/da02af13-6316-4254-b873-2b68227fdd57"}}]}