{"resourceType":"Bundle","id":"tests-7ddb2db9-020e-45b1-aaf5-2fbcf281d6b8-bundle","type":"transaction","entry":[{"fullUrl":"https://madie.cms.gov/Patient/7ddb2db9-020e-45b1-aaf5-2fbcf281d6b8","resource":{"resourceType":"Patient","id":"7ddb2db9-020e-45b1-aaf5-2fbcf281d6b8","meta":{"profile":["http://hl7.org/fhir/us/qicore/StructureDefinition/qicore-patient"]},"text":{"status":"generated","div":"<div xmlns=\"http://www.w3.org/1999/xhtml\"><div class=\"hapiHeaderText\">MedAdmMedReason_eq1dayduringEncIP <b>DENEXCEPPASS </b></div><table class=\"hapiPropertyTable\"><tbody><tr><td>Identifier</td><td>433f05ddb294f33f326d533fe57c6dfd</td></tr><tr><td>Date of birth</td><td><span>26 September 1975</span></td></tr></tbody></table></div>"},"extension":[{"url":"http://hl7.org/fhir/us/core/StructureDefinition/us-core-race","extension":[{"url":"ombCategory","valueCoding":{"system":"urn:oid:2.16.840.1.113883.6.238","code":"2054-5","display":"Black or African American","userSelected":true}},{"url":"text","valueString":"Black or African American"}]},{"url":"http://hl7.org/fhir/us/core/StructureDefinition/us-core-ethnicity","extension":[{"url":"ombCategory","valueCoding":{"system":"urn:oid:2.16.840.1.113883.6.238","code":"2186-5","display":"Not Hispanic or Latino","userSelected":true}},{"url":"text","valueString":"Not Hispanic or Latino"}]}],"identifier":[{"type":{"coding":[{"system":"http://terminology.hl7.org/CodeSystem/v2-0203","code":"MR"}]},"system":"https://bonnie-fhir.healthit.gov/","value":"60f82c2e98086b570510e269"}],"active":true,"name":[{"use":"usual","family":"DENEXCEPPass","given":["MedAdmMedReason_eq1dayduringEncIP"]}],"gender":"female","birthDate":"1976-09-26"},"request":{"method":"PUT","url":"Patient/7ddb2db9-020e-45b1-aaf5-2fbcf281d6b8"}},{"fullUrl":"https://madie.cms.gov/Encounter/d6f4e24d-134a-4bf5-9e26-e88cca59f443","resource":{"resourceType":"Encounter","id":"d6f4e24d-134a-4bf5-9e26-e88cca59f443","meta":{"profile":["http://hl7.org/fhir/us/qicore/StructureDefinition/qicore-encounter"]},"status":"finished","class":{"system":"http://terminology.hl7.org/CodeSystem/v3-ActCode","code":"IMP","display":"inpatient encounter","userSelected":true},"type":[{"coding":[{"system":"http://snomed.info/sct","code":"32485007"}]}],"subject":{"reference":"Patient/7ddb2db9-020e-45b1-aaf5-2fbcf281d6b8"},"period":{"start":"2026-10-10T09:00:00.000+00:00","end":"2026-10-12T11:15:00.000+00:00"},"length":{"value":2,"unit":"days"},"diagnosis":[{"condition":{"reference":"Condition/2468c3bc-190a-4a41-ab82-10aa77a2a61d"},"use":{"coding":[{"system":"http://terminology.hl7.org/CodeSystem/diagnosis-role","code":"billing","display":"Billing"}]},"rank":1}]},"request":{"method":"PUT","url":"Encounter/d6f4e24d-134a-4bf5-9e26-e88cca59f443"}},{"fullUrl":"https://madie.cms.gov/MedicationAdministration/fd56e6d2-850f-4284-a42b-4a8a0b6fd2e2","resource":{"resourceType":"MedicationAdministration","id":"fd56e6d2-850f-4284-a42b-4a8a0b6fd2e2","meta":{"profile":["http://hl7.org/fhir/us/qicore/StructureDefinition/qicore-mednotadministered"]},"extension":[{"url":"http://hl7.org/fhir/us/qicore/StructureDefinition/qicore-recorded","valueDateTime":"2026-10-11T09:00:00+00:00"}],"status":"not-done","statusReason":[{"coding":[{"system":"http://snomed.info/sct","code":"183932001","display":"Procedure contraindicated (situation)"}]}],"medicationCodeableConcept":{"coding":[{"system":"http://www.nlm.nih.gov/research/umls/rxnorm","code":"198466"},{"system":"http://www.nlm.nih.gov/research/umls/rxnorm","code":"1037045"}]},"subject":{"reference":"Patient/7ddb2db9-020e-45b1-aaf5-2fbcf281d6b8"},"effectivePeriod":{"start":"2026-10-11T09:00:00+00:00"}},"request":{"method":"PUT","url":"MedicationAdministration/fd56e6d2-850f-4284-a42b-4a8a0b6fd2e2"}},{"fullUrl":"https://madie.cms.gov/Coverage/ffd83971-3bdd-4885-9b24-0c6b1f745058","resource":{"resourceType":"Coverage","id":"ffd83971-3bdd-4885-9b24-0c6b1f745058","status":"active","beneficiary":{"reference":"Patient/7ddb2db9-020e-45b1-aaf5-2fbcf281d6b8"},"period":{"start":"1976-09-26T08:00:00+00:00"},"payor":[{"reference":"Organization/5ad6ea38-07e9-4482-9e1b-c09eee595be9"}]},"request":{"method":"PUT","url":"Coverage/ffd83971-3bdd-4885-9b24-0c6b1f745058"}},{"fullUrl":"https://madie.cms.gov/Condition/2468c3bc-190a-4a41-ab82-10aa77a2a61d","resource":{"resourceType":"Condition","id":"2468c3bc-190a-4a41-ab82-10aa77a2a61d","meta":{"profile":["http://hl7.org/fhir/us/qicore/StructureDefinition/qicore-condition"]},"clinicalStatus":{"coding":[{"system":"http://terminology.hl7.org/CodeSystem/condition-clinical","code":"active"}]},"verificationStatus":{"coding":[{"system":"http://terminology.hl7.org/CodeSystem/condition-ver-status","code":"confirmed"}]},"category":[{"coding":[{"system":"http://terminology.hl7.org/CodeSystem/condition-category","code":"encounter-diagnosis","display":"Encounter Diagnosis"}]}],"code":{"coding":[{"system":"http://snomed.info/sct","version":"2020-09","code":"111297002","display":"Nonparalytic stroke (disorder)","userSelected":true}]},"subject":{"reference":"Patient/7ddb2db9-020e-45b1-aaf5-2fbcf281d6b8"},"recordedDate":"2026-08-04T08:00:00.000+00:00"},"request":{"method":"PUT","url":"Condition/2468c3bc-190a-4a41-ab82-10aa77a2a61d"}},{"fullUrl":"https://madie.cms.gov/Organization/aa162c99-09c7-42b8-9d60-84a75bdf6dd4","resource":{"resourceType":"Organization","id":"5ad6ea38-07e9-4482-9e1b-c09eee595be9","meta":{"profile":["http://hl7.org/fhir/us/qicore/StructureDefinition/qicore-organization"]},"identifier":[{"use":"temp","system":"urn:oid:2.16.840.1.113883.4.4","value":"21-3259825"}],"active":true,"type":[{"coding":[{"system":"http://terminology.hl7.org/CodeSystem/organization-type","code":"pay","display":"Payer"}]}],"name":"Blue Cross Blue Shield of Texas","telecom":[{"system":"phone","value":"(+1) 972-766-6900"}],"address":[{"use":"billing","type":"postal","line":["P.O. Box 660044"],"city":"Dallas","state":"TX","postalCode":"75266-0044","country":"USA"}]},"request":{"method":"PUT","url":"Organization/5ad6ea38-07e9-4482-9e1b-c09eee595be9"}},{"fullUrl":"https://madie.cms.gov/MeasureReport/d19d305f-515d-4b3b-84f8-61978c29ba0c","resource":{"resourceType":"MeasureReport","id":"d19d305f-515d-4b3b-84f8-61978c29ba0c","meta":{"profile":["http://hl7.org/fhir/us/cqfmeasures/StructureDefinition/test-case-cqfm"]},"contained":[{"resourceType":"Parameters","id":"827cbebe-84ec-4d6f-91be-499f5eeee6fa-parameters","parameter":[{"name":"subject","valueString":"7ddb2db9-020e-45b1-aaf5-2fbcf281d6b8"}]}],"extension":[{"url":"http://hl7.org/fhir/us/cqfmeasures/StructureDefinition/cqfm-inputParameters","valueReference":{"reference":"#827cbebe-84ec-4d6f-91be-499f5eeee6fa-parameters"}},{"url":"http://hl7.org/fhir/us/cqfmeasures/StructureDefinition/cqfm-testCaseDescription","valueMarkdown":"antithrombotic not done due to medical reason = 1 day after IP encounter starts AND NOT ED visit\n"}],"modifierExtension":[{"url":"http://hl7.org/fhir/us/cqfmeasures/StructureDefinition/cqfm-isTestCase","valueBoolean":true}],"status":"complete","type":"individual","measure":"https://madie.cms.gov/Measure/CMS72FHIRSTKAntithromboticDay2","period":{"start":"2026-01-01","end":"2026-12-31"},"group":[{"population":[{"code":{"coding":[{"system":"http://terminology.hl7.org/CodeSystem/measure-population","code":"initial-population","display":"Initial Population"}]},"count":1},{"code":{"coding":[{"system":"http://terminology.hl7.org/CodeSystem/measure-population","code":"denominator","display":"Denominator"}]},"count":1},{"code":{"coding":[{"system":"http://terminology.hl7.org/CodeSystem/measure-population","code":"denominator-exclusion","display":"Denominator Exclusion"}]},"count":0},{"code":{"coding":[{"system":"http://terminology.hl7.org/CodeSystem/measure-population","code":"numerator","display":"Numerator"}]},"count":0},{"code":{"coding":[{"system":"http://terminology.hl7.org/CodeSystem/measure-population","code":"denominator-exception","display":"Denominator Exception"}]},"count":1}]}]},"request":{"method":"PUT","url":"MeasureReport/d19d305f-515d-4b3b-84f8-61978c29ba0c"}}]}