{"resourceType":"Bundle","id":"tests-aadbfade-4898-4931-9e11-e5d7ba64ab27-bundle","type":"transaction","entry":[{"fullUrl":"https://madie.cms.gov/Patient/aadbfade-4898-4931-9e11-e5d7ba64ab27","resource":{"resourceType":"Patient","id":"aadbfade-4898-4931-9e11-e5d7ba64ab27","meta":{"profile":["http://hl7.org/fhir/us/qicore/StructureDefinition/qicore-patient"]},"text":{"status":"generated","div":"<div xmlns=\"http://www.w3.org/1999/xhtml\"><div class=\"hapiHeaderText\">PharmContraDayAftEncStart_NoEDNoObsBFEnc_RelePer <b>DENEXCEPPASS </b></div><table class=\"hapiPropertyTable\"><tbody><tr><td>Identifier</td><td>20549e17b75f876587bc16f30ff24d8e209663aec0492eb62127bd43e67eb9dc</td></tr><tr><td>Date of birth</td><td><span>26 September 1975</span></td></tr></tbody></table></div>"},"extension":[{"url":"http://hl7.org/fhir/us/core/StructureDefinition/us-core-race","extension":[{"url":"ombCategory","valueCoding":{"system":"urn:oid:2.16.840.1.113883.6.238","code":"2054-5","display":"Black or African American","userSelected":true}},{"url":"text","valueString":"Black or African American"}]},{"url":"http://hl7.org/fhir/us/core/StructureDefinition/us-core-ethnicity","extension":[{"url":"ombCategory","valueCoding":{"system":"urn:oid:2.16.840.1.113883.6.238","code":"2186-5","display":"Not Hispanic or Latino","userSelected":true}},{"url":"text","valueString":"Not Hispanic or Latino"}]}],"identifier":[{"type":{"coding":[{"system":"http://terminology.hl7.org/CodeSystem/v2-0203","code":"MR"}]},"system":"https://bonnie-fhir.healthit.gov/","value":"60f82c3098086b570510e2d0"}],"active":true,"name":[{"use":"usual","family":"DENEXCEPPass","given":["PharmContraDayAftEncStart_NoEDNoObsBFEnc_RelePer"]}],"gender":"female","birthDate":"1976-09-26"},"request":{"method":"PUT","url":"Patient/aadbfade-4898-4931-9e11-e5d7ba64ab27"}},{"fullUrl":"https://madie.cms.gov/Encounter/1592891f-c082-4cb7-bcd1-488d3c173e0d","resource":{"resourceType":"Encounter","id":"1592891f-c082-4cb7-bcd1-488d3c173e0d","meta":{"profile":["http://hl7.org/fhir/us/qicore/StructureDefinition/qicore-encounter"]},"status":"finished","class":{"system":"http://terminology.hl7.org/CodeSystem/v3-ActCode","code":"IMP","display":"inpatient encounter","userSelected":true},"type":[{"coding":[{"system":"http://snomed.info/sct","code":"32485007"}]}],"subject":{"reference":"Patient/aadbfade-4898-4931-9e11-e5d7ba64ab27"},"period":{"start":"2026-10-10T09:00:00+00:00","end":"2026-10-12T11:15:00+00:00"},"length":{"value":2,"unit":"days"},"diagnosis":[{"condition":{"reference":"Condition/fa492e64-f559-4de8-b94e-a05a1cda5f7a"},"use":{"coding":[{"system":"http://terminology.hl7.org/CodeSystem/diagnosis-role","code":"billing","display":"Billing"}]},"rank":1}]},"request":{"method":"PUT","url":"Encounter/1592891f-c082-4cb7-bcd1-488d3c173e0d"}},{"fullUrl":"https://madie.cms.gov/MedicationAdministration/d1117015-693f-41e5-af02-9dbc8bb443f9","resource":{"resourceType":"MedicationAdministration","id":"d1117015-693f-41e5-af02-9dbc8bb443f9","meta":{"profile":["http://hl7.org/fhir/us/qicore/StructureDefinition/qicore-medicationadministration"]},"status":"completed","medicationCodeableConcept":{"coding":[{"system":"http://www.nlm.nih.gov/research/umls/rxnorm","code":"855812","display":"prasugrel 10 MG Oral Tablet","userSelected":true}]},"subject":{"reference":"Patient/aadbfade-4898-4931-9e11-e5d7ba64ab27"},"effectivePeriod":{"start":"2026-10-11T23:59:00+00:00"}},"request":{"method":"PUT","url":"MedicationAdministration/d1117015-693f-41e5-af02-9dbc8bb443f9"}},{"fullUrl":"https://madie.cms.gov/Coverage/05cb6e72-bd46-4d99-8d92-3f224bed9a9a","resource":{"resourceType":"Coverage","id":"05cb6e72-bd46-4d99-8d92-3f224bed9a9a","status":"active","beneficiary":{"reference":"Patient/aadbfade-4898-4931-9e11-e5d7ba64ab27"},"period":{"start":"1976-09-26T08:00:00+00:00"},"payor":[{"reference":"Organization/3778262e-e084-4bb5-9a47-1a144735f786"}]},"request":{"method":"PUT","url":"Coverage/05cb6e72-bd46-4d99-8d92-3f224bed9a9a"}},{"fullUrl":"https://madie.cms.gov/Condition/fa492e64-f559-4de8-b94e-a05a1cda5f7a","resource":{"resourceType":"Condition","id":"fa492e64-f559-4de8-b94e-a05a1cda5f7a","meta":{"profile":["http://hl7.org/fhir/us/qicore/StructureDefinition/qicore-condition"]},"clinicalStatus":{"coding":[{"system":"http://terminology.hl7.org/CodeSystem/condition-clinical","code":"active"}]},"verificationStatus":{"coding":[{"system":"http://terminology.hl7.org/CodeSystem/condition-ver-status","code":"confirmed"}]},"category":[{"coding":[{"system":"http://terminology.hl7.org/CodeSystem/condition-category","code":"encounter-diagnosis","display":"Encounter Diagnosis"}]}],"code":{"coding":[{"system":"http://snomed.info/sct","version":"2020-09","code":"111297002","display":"Nonparalytic stroke (disorder)","userSelected":true}]},"subject":{"reference":"Patient/aadbfade-4898-4931-9e11-e5d7ba64ab27"},"recordedDate":"2026-08-06T08:00:00.000+00:00"},"request":{"method":"PUT","url":"Condition/fa492e64-f559-4de8-b94e-a05a1cda5f7a"}},{"fullUrl":"https://madie.cms.gov/Organization/95e41d5f-93b3-4007-84ee-15d9ba4c1f39","resource":{"resourceType":"Organization","id":"3778262e-e084-4bb5-9a47-1a144735f786","meta":{"profile":["http://hl7.org/fhir/us/qicore/StructureDefinition/qicore-organization"]},"identifier":[{"use":"temp","system":"urn:oid:2.16.840.1.113883.4.4","value":"21-3259825"}],"active":true,"type":[{"coding":[{"system":"http://terminology.hl7.org/CodeSystem/organization-type","code":"pay","display":"Payer"}]}],"name":"Blue Cross Blue Shield of Texas","telecom":[{"system":"phone","value":"(+1) 972-766-6900"}],"address":[{"use":"billing","type":"postal","line":["P.O. Box 660044"],"city":"Dallas","state":"TX","postalCode":"75266-0044","country":"USA"}]},"request":{"method":"PUT","url":"Organization/3778262e-e084-4bb5-9a47-1a144735f786"}},{"fullUrl":"https://madie.cms.gov/MeasureReport/024af7a9-612c-4e93-992d-b141b14d719f","resource":{"resourceType":"MeasureReport","id":"024af7a9-612c-4e93-992d-b141b14d719f","meta":{"profile":["http://hl7.org/fhir/us/cqfmeasures/StructureDefinition/test-case-cqfm"]},"contained":[{"resourceType":"Parameters","id":"8ddfe644-bf98-40f8-9476-2d3c14407f85-parameters","parameter":[{"name":"subject","valueString":"aadbfade-4898-4931-9e11-e5d7ba64ab27"}]}],"extension":[{"url":"http://hl7.org/fhir/us/cqfmeasures/StructureDefinition/cqfm-inputParameters","valueReference":{"reference":"#8ddfe644-bf98-40f8-9476-2d3c14407f85-parameters"}},{"url":"http://hl7.org/fhir/us/cqfmeasures/StructureDefinition/cqfm-testCaseDescription","valueMarkdown":"Patient receives Ticagrelor day after IP start at 1159 pm. No ED. No Obs. Testing Day of operator with HospitalizationWithObservation function.\n"}],"modifierExtension":[{"url":"http://hl7.org/fhir/us/cqfmeasures/StructureDefinition/cqfm-isTestCase","valueBoolean":true}],"status":"complete","type":"individual","measure":"https://madie.cms.gov/Measure/CMS72FHIRSTKAntithromboticDay2","period":{"start":"2026-01-01","end":"2026-12-31"},"group":[{"population":[{"code":{"coding":[{"system":"http://terminology.hl7.org/CodeSystem/measure-population","code":"initial-population","display":"Initial Population"}]},"count":1},{"code":{"coding":[{"system":"http://terminology.hl7.org/CodeSystem/measure-population","code":"denominator","display":"Denominator"}]},"count":1},{"code":{"coding":[{"system":"http://terminology.hl7.org/CodeSystem/measure-population","code":"denominator-exclusion","display":"Denominator Exclusion"}]},"count":0},{"code":{"coding":[{"system":"http://terminology.hl7.org/CodeSystem/measure-population","code":"numerator","display":"Numerator"}]},"count":0},{"code":{"coding":[{"system":"http://terminology.hl7.org/CodeSystem/measure-population","code":"denominator-exception","display":"Denominator Exception"}]},"count":1}]}]},"request":{"method":"PUT","url":"MeasureReport/024af7a9-612c-4e93-992d-b141b14d719f"}}]}