{"resourceType":"Bundle","id":"tests-4f8b0ca2-baf1-4ce6-8b9a-c3220097cf7c-bundle","type":"transaction","entry":[{"fullUrl":"https://madie.cms.gov/Patient/4f8b0ca2-baf1-4ce6-8b9a-c3220097cf7c","resource":{"resourceType":"Patient","id":"4f8b0ca2-baf1-4ce6-8b9a-c3220097cf7c","meta":{"profile":["http://hl7.org/fhir/us/qicore/StructureDefinition/qicore-patient"]},"text":{"status":"generated","div":"<div xmlns=\"http://www.w3.org/1999/xhtml\"><div class=\"hapiHeaderText\">INRDayOfObs_ED&lt;1hrObs&lt;1hrBFEncDayOf <b>DENEXCEPASS </b></div><table class=\"hapiPropertyTable\"><tbody><tr><td>Identifier</td><td>955c3164f28b1cd12a47e69610b3987de9a411ffaf7a33899bbd175a9be414f3</td></tr><tr><td>Date of birth</td><td><span>26 September 1975</span></td></tr></tbody></table></div>"},"extension":[{"url":"http://hl7.org/fhir/us/core/StructureDefinition/us-core-race","extension":[{"url":"ombCategory","valueCoding":{"system":"urn:oid:2.16.840.1.113883.6.238","code":"2054-5","display":"Black or African American","userSelected":true}},{"url":"text","valueString":"Black or African American"}]},{"url":"http://hl7.org/fhir/us/core/StructureDefinition/us-core-ethnicity","extension":[{"url":"ombCategory","valueCoding":{"system":"urn:oid:2.16.840.1.113883.6.238","code":"2186-5","display":"Not Hispanic or Latino","userSelected":true}},{"url":"text","valueString":"Not Hispanic or Latino"}]}],"identifier":[{"type":{"coding":[{"system":"http://terminology.hl7.org/CodeSystem/v2-0203","code":"MR"}]},"system":"https://bonnie-fhir.healthit.gov/","value":"60f82c2f98086b570510e2aa"}],"active":true,"name":[{"use":"usual","family":"DENEXCEPass","given":["INRDayOfObs_ED<1hrObs<1hrBFEncDayOf"]}],"gender":"female","birthDate":"1976-09-26"},"request":{"method":"PUT","url":"Patient/4f8b0ca2-baf1-4ce6-8b9a-c3220097cf7c"}},{"fullUrl":"https://madie.cms.gov/Encounter/7ba61e03-ae55-487b-8e81-164aec2b88b5","resource":{"resourceType":"Encounter","id":"7ba61e03-ae55-487b-8e81-164aec2b88b5","meta":{"profile":["http://hl7.org/fhir/us/qicore/StructureDefinition/qicore-encounter"]},"status":"finished","class":{"system":"http://terminology.hl7.org/CodeSystem/v3-ActCode","code":"EMER","display":"emergency","userSelected":true},"type":[{"coding":[{"system":"http://snomed.info/sct","code":"4525004"}]}],"subject":{"reference":"Patient/4f8b0ca2-baf1-4ce6-8b9a-c3220097cf7c"},"period":{"start":"2026-10-10T06:15:00+00:00","end":"2026-10-10T06:30:00+00:00"},"length":{"value":0,"unit":"days"}},"request":{"method":"PUT","url":"Encounter/7ba61e03-ae55-487b-8e81-164aec2b88b5"}},{"fullUrl":"https://madie.cms.gov/Encounter/9b802a05-cbac-4b30-b715-421b71db612c","resource":{"resourceType":"Encounter","id":"9b802a05-cbac-4b30-b715-421b71db612c","meta":{"profile":["http://hl7.org/fhir/us/qicore/StructureDefinition/qicore-encounter"]},"status":"finished","class":{"system":"http://terminology.hl7.org/CodeSystem/v3-ActCode","code":"OBSENC","display":"observation encounter","userSelected":true},"type":[{"coding":[{"system":"http://snomed.info/sct","code":"448851000124103"}]}],"subject":{"reference":"Patient/4f8b0ca2-baf1-4ce6-8b9a-c3220097cf7c"},"period":{"start":"2026-10-10T06:31:00+00:00","end":"2026-10-10T07:30:00+00:00"},"length":{"value":0,"unit":"days"}},"request":{"method":"PUT","url":"Encounter/9b802a05-cbac-4b30-b715-421b71db612c"}},{"fullUrl":"https://madie.cms.gov/Encounter/79c6dea2-09bb-445a-b9f7-278c2fe1f604","resource":{"resourceType":"Encounter","id":"79c6dea2-09bb-445a-b9f7-278c2fe1f604","meta":{"profile":["http://hl7.org/fhir/us/qicore/StructureDefinition/qicore-encounter"]},"status":"finished","class":{"system":"http://terminology.hl7.org/CodeSystem/v3-ActCode","code":"IMP","display":"inpatient encounter","userSelected":true},"type":[{"coding":[{"system":"http://snomed.info/sct","code":"32485007"}]}],"subject":{"reference":"Patient/4f8b0ca2-baf1-4ce6-8b9a-c3220097cf7c"},"period":{"start":"2026-10-10T07:31:00+00:00","end":"2026-10-15T11:30:00+00:00"},"length":{"value":5,"unit":"days"},"diagnosis":[{"condition":{"reference":"Condition/d150372a-b530-4062-893e-a4a75dd7e2ab"},"use":{"coding":[{"system":"http://terminology.hl7.org/CodeSystem/diagnosis-role","code":"billing","display":"Billing"}]},"rank":1}]},"request":{"method":"PUT","url":"Encounter/79c6dea2-09bb-445a-b9f7-278c2fe1f604"}},{"fullUrl":"https://madie.cms.gov/Observation/4eabd6a6-9dcc-4e0e-807e-33c3118e2c18","resource":{"resourceType":"Observation","id":"4eabd6a6-9dcc-4e0e-807e-33c3118e2c18","meta":{"profile":["http://hl7.org/fhir/us/qicore/StructureDefinition/qicore-observation"]},"status":"final","category":[{"coding":[{"system":"http://terminology.hl7.org/CodeSystem/observation-category","code":"laboratory","display":"Laboratory"}]}],"code":{"coding":[{"system":"http://loinc.org","code":"34714-6"}]},"subject":{"reference":"Patient/4f8b0ca2-baf1-4ce6-8b9a-c3220097cf7c"},"effectivePeriod":{"start":"2026-10-10T06:15:00+00:00"},"issued":"2026-10-10T06:31:00.000+00:00","valueQuantity":{"value":3.6}},"request":{"method":"PUT","url":"Observation/4eabd6a6-9dcc-4e0e-807e-33c3118e2c18"}},{"fullUrl":"https://madie.cms.gov/Coverage/e2cdf842-ba30-46ee-b6d8-6ca7ca783199","resource":{"resourceType":"Coverage","id":"e2cdf842-ba30-46ee-b6d8-6ca7ca783199","status":"active","beneficiary":{"reference":"Patient/4f8b0ca2-baf1-4ce6-8b9a-c3220097cf7c"},"period":{"start":"1976-09-26T08:00:00+00:00"},"payor":[{"reference":"Organization/607fdef9-3983-4cef-ab1a-95434d29b463"}]},"request":{"method":"PUT","url":"Coverage/e2cdf842-ba30-46ee-b6d8-6ca7ca783199"}},{"fullUrl":"https://madie.cms.gov/Condition/d150372a-b530-4062-893e-a4a75dd7e2ab","resource":{"resourceType":"Condition","id":"d150372a-b530-4062-893e-a4a75dd7e2ab","meta":{"profile":["http://hl7.org/fhir/us/qicore/StructureDefinition/qicore-condition"]},"clinicalStatus":{"coding":[{"system":"http://terminology.hl7.org/CodeSystem/condition-clinical","code":"active"}]},"verificationStatus":{"coding":[{"system":"http://terminology.hl7.org/CodeSystem/condition-ver-status","code":"confirmed"}]},"category":[{"coding":[{"system":"http://terminology.hl7.org/CodeSystem/condition-category","code":"encounter-diagnosis","display":"Encounter Diagnosis"}]}],"code":{"coding":[{"system":"http://snomed.info/sct","version":"2020-09","code":"111297002","display":"Nonparalytic stroke (disorder)","userSelected":true}]},"subject":{"reference":"Patient/4f8b0ca2-baf1-4ce6-8b9a-c3220097cf7c"},"recordedDate":"2026-08-06T08:00:00.000+00:00"},"request":{"method":"PUT","url":"Condition/d150372a-b530-4062-893e-a4a75dd7e2ab"}},{"fullUrl":"https://madie.cms.gov/Organization/e245001e-346b-48d0-ac57-fa2e9d0451e7","resource":{"resourceType":"Organization","id":"607fdef9-3983-4cef-ab1a-95434d29b463","meta":{"profile":["http://hl7.org/fhir/us/qicore/StructureDefinition/qicore-organization"]},"identifier":[{"use":"temp","system":"urn:oid:2.16.840.1.113883.4.4","value":"21-3259825"}],"active":true,"type":[{"coding":[{"system":"http://terminology.hl7.org/CodeSystem/organization-type","code":"pay","display":"Payer"}]}],"name":"Blue Cross Blue Shield of Texas","telecom":[{"system":"phone","value":"(+1) 972-766-6900"}],"address":[{"use":"billing","type":"postal","line":["P.O. Box 660044"],"city":"Dallas","state":"TX","postalCode":"75266-0044","country":"USA"}]},"request":{"method":"PUT","url":"Organization/607fdef9-3983-4cef-ab1a-95434d29b463"}},{"fullUrl":"https://madie.cms.gov/MeasureReport/a679e8b2-647a-4830-98a6-545cc937b625","resource":{"resourceType":"MeasureReport","id":"a679e8b2-647a-4830-98a6-545cc937b625","meta":{"profile":["http://hl7.org/fhir/us/cqfmeasures/StructureDefinition/test-case-cqfm"]},"contained":[{"resourceType":"Parameters","id":"37e3eb16-644c-43e1-8997-f9ddd8047125-parameters","parameter":[{"name":"subject","valueString":"4f8b0ca2-baf1-4ce6-8b9a-c3220097cf7c"}]}],"extension":[{"url":"http://hl7.org/fhir/us/cqfmeasures/StructureDefinition/cqfm-inputParameters","valueReference":{"reference":"#37e3eb16-644c-43e1-8997-f9ddd8047125-parameters"}},{"url":"http://hl7.org/fhir/us/cqfmeasures/StructureDefinition/cqfm-testCaseDescription","valueMarkdown":"Patient receives INR of 3.6 the day of Obs start. ED ends 1 min before Obs, Obs ends 1 min before IP starts on the same day.Testing Day of operator with HospitalizationWithObservation function.\n"}],"modifierExtension":[{"url":"http://hl7.org/fhir/us/cqfmeasures/StructureDefinition/cqfm-isTestCase","valueBoolean":true}],"status":"complete","type":"individual","measure":"https://madie.cms.gov/Measure/CMS72FHIRSTKAntithromboticDay2","period":{"start":"2026-01-01","end":"2026-12-31"},"group":[{"population":[{"code":{"coding":[{"system":"http://terminology.hl7.org/CodeSystem/measure-population","code":"initial-population","display":"Initial Population"}]},"count":1},{"code":{"coding":[{"system":"http://terminology.hl7.org/CodeSystem/measure-population","code":"denominator","display":"Denominator"}]},"count":1},{"code":{"coding":[{"system":"http://terminology.hl7.org/CodeSystem/measure-population","code":"denominator-exclusion","display":"Denominator Exclusion"}]},"count":0},{"code":{"coding":[{"system":"http://terminology.hl7.org/CodeSystem/measure-population","code":"numerator","display":"Numerator"}]},"count":0},{"code":{"coding":[{"system":"http://terminology.hl7.org/CodeSystem/measure-population","code":"denominator-exception","display":"Denominator Exception"}]},"count":1}]}]},"request":{"method":"PUT","url":"MeasureReport/a679e8b2-647a-4830-98a6-545cc937b625"}}]}