{"resourceType":"Bundle","id":"tests-25317020-6a54-490b-a479-0da6b5d1f355-bundle","type":"transaction","entry":[{"fullUrl":"https://madie.cms.gov/Patient/25317020-6a54-490b-a479-0da6b5d1f355","resource":{"resourceType":"Patient","id":"25317020-6a54-490b-a479-0da6b5d1f355","meta":{"profile":["http://hl7.org/fhir/us/qicore/StructureDefinition/qicore-patient"]},"text":{"status":"generated","div":"<div xmlns=\"http://www.w3.org/1999/xhtml\"><div class=\"hapiHeaderText\">CMP_DayOf_RelvPerStart_1MinB4ObsEnd_EDEndLT1hrB4Obs_ObsEndLT1hrB4IP <b>DENEXPASS </b></div><table class=\"hapiPropertyTable\"><tbody><tr><td>Date of birth</td><td><span>01 January 1980</span></td></tr></tbody></table></div>"},"extension":[{"url":"http://hl7.org/fhir/us/core/StructureDefinition/us-core-race","extension":[{"url":"ombCategory","valueCoding":{"system":"urn:oid:2.16.840.1.113883.6.238","code":"2106-3","display":"White","userSelected":true}},{"url":"text","valueString":"White"}]},{"url":"http://hl7.org/fhir/us/core/StructureDefinition/us-core-ethnicity","extension":[{"url":"ombCategory","valueCoding":{"system":"urn:oid:2.16.840.1.113883.6.238","code":"2186-5","display":"Not Hispanic or Latino","userSelected":true}},{"url":"text","valueString":"Not Hispanic or Latino"}]}],"identifier":[{"type":{"coding":[{"system":"http://terminology.hl7.org/CodeSystem/v2-0203","code":"MR"}]},"system":"https://bonnie-fhir.healthit.gov/","value":"60f82c3098086b570510e2eb"}],"active":true,"name":[{"use":"usual","family":"DENEXPass","given":["CMP_DayOf_RelvPerStart_1MinB4ObsEnd_EDEndLT1hrB4Obs_ObsEndLT1hrB4IP"]}],"gender":"female","birthDate":"1981-01-01"},"request":{"method":"PUT","url":"Patient/25317020-6a54-490b-a479-0da6b5d1f355"}},{"fullUrl":"https://madie.cms.gov/Encounter/6f564fdf-352e-4485-9f9e-db219c4b54c4","resource":{"resourceType":"Encounter","id":"6f564fdf-352e-4485-9f9e-db219c4b54c4","meta":{"profile":["http://hl7.org/fhir/us/qicore/StructureDefinition/qicore-encounter"]},"status":"finished","class":{"system":"http://terminology.hl7.org/CodeSystem/v3-ActCode","code":"EMER","display":"emergency"},"type":[{"coding":[{"system":"http://snomed.info/sct","code":"4525004"}]}],"subject":{"reference":"Patient/25317020-6a54-490b-a479-0da6b5d1f355"},"period":{"start":"2026-11-18T07:00:00+00:00","end":"2026-11-18T08:01:00+00:00"},"diagnosis":[{"condition":{"reference":"Condition/213c6a28-24ed-426d-9eb6-cd1f3e989eff"},"use":{"coding":[{"system":"http://terminology.hl7.org/CodeSystem/diagnosis-role","code":"billing","display":"Billing"}]},"rank":1}]},"request":{"method":"PUT","url":"Encounter/6f564fdf-352e-4485-9f9e-db219c4b54c4"}},{"fullUrl":"https://madie.cms.gov/Encounter/474acfe3-cacf-41b2-af23-618a68c72159","resource":{"resourceType":"Encounter","id":"474acfe3-cacf-41b2-af23-618a68c72159","meta":{"profile":["http://hl7.org/fhir/us/qicore/StructureDefinition/qicore-encounter"]},"status":"finished","class":{"system":"http://terminology.hl7.org/CodeSystem/v3-ActCode","code":"OBSENC","display":"observation encounter"},"type":[{"coding":[{"system":"http://snomed.info/sct","code":"448951000124107"}]}],"subject":{"reference":"Patient/25317020-6a54-490b-a479-0da6b5d1f355"},"period":{"start":"2026-11-18T09:00:00+00:00","end":"2026-11-18T10:01:00+00:00"}},"request":{"method":"PUT","url":"Encounter/474acfe3-cacf-41b2-af23-618a68c72159"}},{"fullUrl":"https://madie.cms.gov/Encounter/b17bb753-657f-44c0-9c93-194adc410af3","resource":{"resourceType":"Encounter","id":"b17bb753-657f-44c0-9c93-194adc410af3","meta":{"profile":["http://hl7.org/fhir/us/qicore/StructureDefinition/qicore-encounter"]},"status":"finished","class":{"system":"http://terminology.hl7.org/CodeSystem/v3-ActCode","code":"IMP","display":"inpatient encounter"},"type":[{"coding":[{"system":"http://snomed.info/sct","code":"183452005"}]}],"subject":{"reference":"Patient/25317020-6a54-490b-a479-0da6b5d1f355"},"period":{"start":"2026-11-18T11:00:00+00:00","end":"2026-11-20T08:15:00+00:00"},"diagnosis":[{"condition":{"reference":"Condition/213c6a28-24ed-426d-9eb6-cd1f3e989eff"},"use":{"coding":[{"system":"http://terminology.hl7.org/CodeSystem/diagnosis-role","code":"billing","display":"Billing"}]},"rank":1}]},"request":{"method":"PUT","url":"Encounter/b17bb753-657f-44c0-9c93-194adc410af3"}},{"fullUrl":"https://madie.cms.gov/Procedure/2c2ad95f-32c5-46e6-9093-f8f9475fef6f","resource":{"resourceType":"Procedure","id":"2c2ad95f-32c5-46e6-9093-f8f9475fef6f","meta":{"profile":["http://hl7.org/fhir/us/qicore/StructureDefinition/qicore-procedure"]},"extension":[{"url":"http://hl7.org/fhir/us/qicore/StructureDefinition/qicore-recorded","valueDateTime":"2026-11-19T09:35:00-04:00"}],"status":"completed","code":{"coding":[{"system":"http://snomed.info/sct","code":"133918004"}]},"subject":{"reference":"Patient/25317020-6a54-490b-a479-0da6b5d1f355"},"performedPeriod":{"start":"2026-11-18T10:00:00+00:00","end":"2026-11-18T10:01:00+00:00"}},"request":{"method":"PUT","url":"Procedure/2c2ad95f-32c5-46e6-9093-f8f9475fef6f"}},{"fullUrl":"https://madie.cms.gov/Condition/213c6a28-24ed-426d-9eb6-cd1f3e989eff","resource":{"resourceType":"Condition","id":"213c6a28-24ed-426d-9eb6-cd1f3e989eff","meta":{"profile":["http://hl7.org/fhir/us/qicore/StructureDefinition/qicore-condition"]},"clinicalStatus":{"coding":[{"system":"http://terminology.hl7.org/CodeSystem/condition-clinical","code":"active"}]},"verificationStatus":{"coding":[{"system":"http://terminology.hl7.org/CodeSystem/condition-ver-status","code":"confirmed"}]},"category":[{"coding":[{"system":"http://terminology.hl7.org/CodeSystem/condition-category","code":"encounter-diagnosis","display":"Encounter Diagnosis"}]}],"code":{"coding":[{"system":"http://snomed.info/sct","version":"2020-09","code":"111297002","display":"Nonparalytic stroke (disorder)","userSelected":true}]},"subject":{"reference":"Patient/25317020-6a54-490b-a479-0da6b5d1f355"},"recordedDate":"2026-08-13T08:00:00.000+00:00"},"request":{"method":"PUT","url":"Condition/213c6a28-24ed-426d-9eb6-cd1f3e989eff"}},{"fullUrl":"https://madie.cms.gov/Coverage/7c4e8b21-5b14-4c5e-9589-d0eb441e35f1","resource":{"resourceType":"Coverage","id":"7c4e8b21-5b14-4c5e-9589-d0eb441e35f1","meta":{"profile":["http://hl7.org/fhir/us/qicore/StructureDefinition/qicore-coverage"]},"status":"active","beneficiary":{"reference":"Patient/25317020-6a54-490b-a479-0da6b5d1f355"},"payor":[{"reference":"Organization/e75793c9-fdf6-463a-8c1d-4ee44320dc25"}]},"request":{"method":"PUT","url":"Coverage/7c4e8b21-5b14-4c5e-9589-d0eb441e35f1"}},{"fullUrl":"https://madie.cms.gov/Organization/d5429956-3642-402e-b4eb-15b679b9a01b","resource":{"resourceType":"Organization","id":"e75793c9-fdf6-463a-8c1d-4ee44320dc25","meta":{"profile":["http://hl7.org/fhir/us/qicore/StructureDefinition/qicore-organization"]},"identifier":[{"use":"temp","system":"urn:oid:2.16.840.1.113883.4.4","value":"21-3259825"}],"active":true,"type":[{"coding":[{"system":"http://terminology.hl7.org/CodeSystem/organization-type","code":"pay","display":"Payer"}]}],"name":"Blue Cross Blue Shield of Texas","telecom":[{"system":"phone","value":"(+1) 972-766-6900"}],"address":[{"use":"billing","type":"postal","line":["P.O. Box 660044"],"city":"Dallas","state":"TX","postalCode":"75266-0044","country":"USA"}]},"request":{"method":"PUT","url":"Organization/e75793c9-fdf6-463a-8c1d-4ee44320dc25"}},{"fullUrl":"https://madie.cms.gov/MeasureReport/9383e949-5ee7-4894-a256-54e98e757453","resource":{"resourceType":"MeasureReport","id":"9383e949-5ee7-4894-a256-54e98e757453","meta":{"profile":["http://hl7.org/fhir/us/cqfmeasures/StructureDefinition/test-case-cqfm"]},"contained":[{"resourceType":"Parameters","id":"2b2d6164-5c87-4a78-9324-65a7f0a0c865-parameters","parameter":[{"name":"subject","valueString":"25317020-6a54-490b-a479-0da6b5d1f355"}]}],"extension":[{"url":"http://hl7.org/fhir/us/cqfmeasures/StructureDefinition/cqfm-inputParameters","valueReference":{"reference":"#2b2d6164-5c87-4a78-9324-65a7f0a0c865-parameters"}},{"url":"http://hl7.org/fhir/us/cqfmeasures/StructureDefinition/cqfm-testCaseDescription","valueMarkdown":"Patient receives comfort measures performed on the day of hospital arrival, 1 min before Obs end. ED ends less than 1 hour before Obs Start, Obs ends less than 1 hour before IP start.\n"}],"modifierExtension":[{"url":"http://hl7.org/fhir/us/cqfmeasures/StructureDefinition/cqfm-isTestCase","valueBoolean":true}],"status":"complete","type":"individual","measure":"https://madie.cms.gov/Measure/CMS72FHIRSTKAntithromboticDay2","period":{"start":"2026-01-01","end":"2026-12-31"},"group":[{"population":[{"code":{"coding":[{"system":"http://terminology.hl7.org/CodeSystem/measure-population","code":"initial-population","display":"Initial Population"}]},"count":1},{"code":{"coding":[{"system":"http://terminology.hl7.org/CodeSystem/measure-population","code":"denominator","display":"Denominator"}]},"count":1},{"code":{"coding":[{"system":"http://terminology.hl7.org/CodeSystem/measure-population","code":"denominator-exclusion","display":"Denominator Exclusion"}]},"count":1},{"code":{"coding":[{"system":"http://terminology.hl7.org/CodeSystem/measure-population","code":"numerator","display":"Numerator"}]},"count":0},{"code":{"coding":[{"system":"http://terminology.hl7.org/CodeSystem/measure-population","code":"denominator-exception","display":"Denominator Exception"}]},"count":0}]}]},"request":{"method":"PUT","url":"MeasureReport/9383e949-5ee7-4894-a256-54e98e757453"}}]}