{"resourceType":"Bundle","id":"tests-07663bba-9abe-46e2-b2e6-bcfc26e57a45-bundle","type":"transaction","entry":[{"fullUrl":"https://madie.cms.gov/Patient/07663bba-9abe-46e2-b2e6-bcfc26e57a45","resource":{"resourceType":"Patient","id":"07663bba-9abe-46e2-b2e6-bcfc26e57a45","meta":{"profile":["http://hl7.org/fhir/us/qicore/StructureDefinition/qicore-patient"]},"text":{"status":"generated","div":"<div xmlns=\"http://www.w3.org/1999/xhtml\"><div class=\"hapiHeaderText\">TPADocumentDurEncStart <b>DENEXPASS </b></div><table class=\"hapiPropertyTable\"><tbody><tr><td>Identifier</td><td>5981f557d06c41b4b186d8d3a5e5beb330864a8389842b2eb20afd1fb0cd01de</td></tr><tr><td>Date of birth</td><td><span>26 September 1975</span></td></tr></tbody></table></div>"},"extension":[{"url":"http://hl7.org/fhir/us/core/StructureDefinition/us-core-race","extension":[{"url":"ombCategory","valueCoding":{"system":"urn:oid:2.16.840.1.113883.6.238","code":"2054-5","display":"Black or African American","userSelected":true}},{"url":"text","valueString":"Black or African American"}]},{"url":"http://hl7.org/fhir/us/core/StructureDefinition/us-core-ethnicity","extension":[{"url":"ombCategory","valueCoding":{"system":"urn:oid:2.16.840.1.113883.6.238","code":"2186-5","display":"Not Hispanic or Latino","userSelected":true}},{"url":"text","valueString":"Not Hispanic or Latino"}]}],"identifier":[{"type":{"coding":[{"system":"http://terminology.hl7.org/CodeSystem/v2-0203","code":"MR"}]},"system":"https://bonnie-fhir.healthit.gov/","value":"60f82c2f98086b570510e29b"}],"active":true,"name":[{"use":"usual","family":"DENEXPass","given":["TPADocumentDurEncStart"]}],"gender":"female","birthDate":"1976-09-26"},"request":{"method":"PUT","url":"Patient/07663bba-9abe-46e2-b2e6-bcfc26e57a45"}},{"fullUrl":"https://madie.cms.gov/Condition/4190dd4f-0437-4ff1-bd3d-d4628a6c5cf4","resource":{"resourceType":"Condition","id":"4190dd4f-0437-4ff1-bd3d-d4628a6c5cf4","meta":{"profile":["http://hl7.org/fhir/us/qicore/StructureDefinition/qicore-condition"]},"clinicalStatus":{"coding":[{"system":"http://terminology.hl7.org/CodeSystem/condition-clinical","code":"active","display":"active","userSelected":true}]},"verificationStatus":{"coding":[{"system":"http://terminology.hl7.org/CodeSystem/condition-ver-status","code":"confirmed","display":"confirmed","userSelected":true}]},"category":[{"coding":[{"system":"http://terminology.hl7.org/CodeSystem/condition-category","code":"problem-list-item","display":"Problem List Item"}]}],"code":{"coding":[{"system":"http://hl7.org/fhir/sid/icd-10-cm","code":"Z92.82","display":"Thrombolytic Therapy Given"}]},"subject":{"reference":"Patient/07663bba-9abe-46e2-b2e6-bcfc26e57a45"},"onsetDateTime":"2026-10-10T06:16:00+00:00","recordedDate":"2026-10-11T06:15:00+00:00"},"request":{"method":"PUT","url":"Condition/4190dd4f-0437-4ff1-bd3d-d4628a6c5cf4"}},{"fullUrl":"https://madie.cms.gov/Encounter/c11de6e7-5622-4fe2-9a1f-a6d6dc661efb","resource":{"resourceType":"Encounter","id":"c11de6e7-5622-4fe2-9a1f-a6d6dc661efb","meta":{"profile":["http://hl7.org/fhir/us/qicore/StructureDefinition/qicore-encounter"]},"status":"finished","class":{"system":"http://terminology.hl7.org/CodeSystem/v3-ActCode","code":"IMP","display":"inpatient encounter"},"type":[{"coding":[{"system":"http://snomed.info/sct","code":"32485007"}]}],"subject":{"reference":"Patient/07663bba-9abe-46e2-b2e6-bcfc26e57a45"},"period":{"start":"2026-10-10T06:15:00+00:00","end":"2026-10-24T11:30:00+00:00"},"length":{"value":14,"unit":"days"},"diagnosis":[{"condition":{"reference":"Condition/39915c53-0938-42a7-9063-4b3ff47df88c"},"use":{"coding":[{"system":"http://terminology.hl7.org/CodeSystem/diagnosis-role","code":"billing","display":"Billing"}]},"rank":1}]},"request":{"method":"PUT","url":"Encounter/c11de6e7-5622-4fe2-9a1f-a6d6dc661efb"}},{"fullUrl":"https://madie.cms.gov/Coverage/a3dfd8cf-63a1-4df3-ada6-35d1728fbee1","resource":{"resourceType":"Coverage","id":"a3dfd8cf-63a1-4df3-ada6-35d1728fbee1","status":"active","beneficiary":{"reference":"Patient/07663bba-9abe-46e2-b2e6-bcfc26e57a45"},"period":{"start":"1976-09-26T08:00:00+00:00"},"payor":[{"reference":"Organization/f4907415-83c5-4eae-ab0b-cb63a840880d"}]},"request":{"method":"PUT","url":"Coverage/a3dfd8cf-63a1-4df3-ada6-35d1728fbee1"}},{"fullUrl":"https://madie.cms.gov/Condition/39915c53-0938-42a7-9063-4b3ff47df88c","resource":{"resourceType":"Condition","id":"39915c53-0938-42a7-9063-4b3ff47df88c","meta":{"profile":["http://hl7.org/fhir/us/qicore/StructureDefinition/qicore-condition"]},"clinicalStatus":{"coding":[{"system":"http://terminology.hl7.org/CodeSystem/condition-clinical","code":"active"}]},"verificationStatus":{"coding":[{"system":"http://terminology.hl7.org/CodeSystem/condition-ver-status","code":"confirmed"}]},"category":[{"coding":[{"system":"http://terminology.hl7.org/CodeSystem/condition-category","code":"encounter-diagnosis","display":"Encounter Diagnosis"}]}],"code":{"coding":[{"system":"http://snomed.info/sct","version":"2020-09","code":"111297002","display":"Nonparalytic stroke (disorder)","userSelected":true}]},"subject":{"reference":"Patient/07663bba-9abe-46e2-b2e6-bcfc26e57a45"},"recordedDate":"2026-08-13T08:00:00.000+00:00"},"request":{"method":"PUT","url":"Condition/39915c53-0938-42a7-9063-4b3ff47df88c"}},{"fullUrl":"https://madie.cms.gov/Organization/cbd3a2a6-0378-4156-81e9-78c93a610cb8","resource":{"resourceType":"Organization","id":"f4907415-83c5-4eae-ab0b-cb63a840880d","meta":{"profile":["http://hl7.org/fhir/us/qicore/StructureDefinition/qicore-organization"]},"identifier":[{"use":"temp","system":"urn:oid:2.16.840.1.113883.4.4","value":"21-3259825"}],"active":true,"type":[{"coding":[{"system":"http://terminology.hl7.org/CodeSystem/organization-type","code":"pay","display":"Payer"}]}],"name":"Blue Cross Blue Shield of Texas","telecom":[{"system":"phone","value":"(+1) 972-766-6900"}],"address":[{"use":"billing","type":"postal","line":["P.O. Box 660044"],"city":"Dallas","state":"TX","postalCode":"75266-0044","country":"USA"}]},"request":{"method":"PUT","url":"Organization/f4907415-83c5-4eae-ab0b-cb63a840880d"}},{"fullUrl":"https://madie.cms.gov/Practitioner/d3a1876f-df73-437a-aec8-fec32fb0c460","resource":{"resourceType":"Practitioner","id":"d3a1876f-df73-437a-aec8-fec32fb0c460","identifier":[{"system":"http://hl7.org/fhir/sid/us-npi","value":"123456"}],"name":[{"family":"Evil","prefix":["Dr"]}]},"request":{"method":"PUT","url":"Practitioner/d3a1876f-df73-437a-aec8-fec32fb0c460"}},{"fullUrl":"https://madie.cms.gov/MeasureReport/e35c5807-9a46-442f-8837-adc91c6546b2","resource":{"resourceType":"MeasureReport","id":"e35c5807-9a46-442f-8837-adc91c6546b2","meta":{"profile":["http://hl7.org/fhir/us/cqfmeasures/StructureDefinition/test-case-cqfm"]},"contained":[{"resourceType":"Parameters","id":"d687f746-0682-4b04-87b6-8c3150b084c6-parameters","parameter":[{"name":"subject","valueString":"07663bba-9abe-46e2-b2e6-bcfc26e57a45"}]}],"extension":[{"url":"http://hl7.org/fhir/us/cqfmeasures/StructureDefinition/cqfm-inputParameters","valueReference":{"reference":"#d687f746-0682-4b04-87b6-8c3150b084c6-parameters"}},{"url":"http://hl7.org/fhir/us/cqfmeasures/StructureDefinition/cqfm-testCaseDescription","valueMarkdown":"Coverage for condition of Prior TPA "}],"modifierExtension":[{"url":"http://hl7.org/fhir/us/cqfmeasures/StructureDefinition/cqfm-isTestCase","valueBoolean":true}],"status":"complete","type":"individual","measure":"https://madie.cms.gov/Measure/CMS72FHIRSTKAntithromboticDay2","period":{"start":"2026-01-01","end":"2026-12-31"},"group":[{"population":[{"code":{"coding":[{"system":"http://terminology.hl7.org/CodeSystem/measure-population","code":"initial-population","display":"Initial Population"}]},"count":1},{"code":{"coding":[{"system":"http://terminology.hl7.org/CodeSystem/measure-population","code":"denominator","display":"Denominator"}]},"count":1},{"code":{"coding":[{"system":"http://terminology.hl7.org/CodeSystem/measure-population","code":"denominator-exclusion","display":"Denominator Exclusion"}]},"count":1},{"code":{"coding":[{"system":"http://terminology.hl7.org/CodeSystem/measure-population","code":"numerator","display":"Numerator"}]},"count":0},{"code":{"coding":[{"system":"http://terminology.hl7.org/CodeSystem/measure-population","code":"denominator-exception","display":"Denominator Exception"}]},"count":0}]}]},"request":{"method":"PUT","url":"MeasureReport/e35c5807-9a46-442f-8837-adc91c6546b2"}}]}