{"resourceType":"Bundle","id":"tests-a1a37483-1a67-4dd9-a8ca-b4d49a28a19d-bundle","type":"transaction","entry":[{"fullUrl":"https://madie.cms.gov/Patient/a1a37483-1a67-4dd9-a8ca-b4d49a28a19d","resource":{"resourceType":"Patient","id":"a1a37483-1a67-4dd9-a8ca-b4d49a28a19d","meta":{"profile":["http://hl7.org/fhir/us/qicore/StructureDefinition/qicore-patient"]},"text":{"status":"generated","div":"<div xmlns=\"http://www.w3.org/1999/xhtml\"><div class=\"hapiHeaderText\">MedAdmPatRefus_eq1dayduringEncIP <b>DENEXCEPPASS </b></div><table class=\"hapiPropertyTable\"><tbody><tr><td>Identifier</td><td>010e27e50a0e91003709500e7c217129</td></tr><tr><td>Date of birth</td><td><span>26 September 1975</span></td></tr></tbody></table></div>"},"extension":[{"url":"http://hl7.org/fhir/us/core/StructureDefinition/us-core-race","extension":[{"url":"ombCategory","valueCoding":{"system":"urn:oid:2.16.840.1.113883.6.238","code":"2054-5","display":"Black or African American","userSelected":true}},{"url":"text","valueString":"Black or African American"}]},{"url":"http://hl7.org/fhir/us/core/StructureDefinition/us-core-ethnicity","extension":[{"url":"ombCategory","valueCoding":{"system":"urn:oid:2.16.840.1.113883.6.238","code":"2186-5","display":"Not Hispanic or Latino","userSelected":true}},{"url":"text","valueString":"Not Hispanic or Latino"}]}],"identifier":[{"type":{"coding":[{"system":"http://terminology.hl7.org/CodeSystem/v2-0203","code":"MR"}]},"system":"https://bonnie-fhir.healthit.gov/","value":"60f82c2e98086b570510e296"}],"active":true,"name":[{"use":"usual","family":"DENEXCEPPass","given":["MedAdmPatRefus_eq1dayduringEncIP"]}],"gender":"female","birthDate":"1976-09-26"},"request":{"method":"PUT","url":"Patient/a1a37483-1a67-4dd9-a8ca-b4d49a28a19d"}},{"fullUrl":"https://madie.cms.gov/Encounter/105c67f0-9472-40ae-a755-e439c513d3fa","resource":{"resourceType":"Encounter","id":"105c67f0-9472-40ae-a755-e439c513d3fa","meta":{"profile":["http://hl7.org/fhir/us/qicore/StructureDefinition/qicore-encounter"]},"status":"finished","class":{"system":"http://terminology.hl7.org/CodeSystem/v3-ActCode","code":"IMP","display":"inpatient encounter","userSelected":true},"type":[{"coding":[{"system":"http://snomed.info/sct","code":"32485007"}]}],"subject":{"reference":"Patient/a1a37483-1a67-4dd9-a8ca-b4d49a28a19d"},"period":{"start":"2026-10-10T09:00:00+00:00","end":"2026-10-12T11:15:00+00:00"},"length":{"value":2,"unit":"days"},"diagnosis":[{"condition":{"reference":"Condition/100a2e57-2af0-4c85-8a5b-e9248675327b"},"use":{"coding":[{"system":"http://terminology.hl7.org/CodeSystem/diagnosis-role","code":"billing","display":"Billing"}]},"rank":1}]},"request":{"method":"PUT","url":"Encounter/105c67f0-9472-40ae-a755-e439c513d3fa"}},{"fullUrl":"https://madie.cms.gov/MedicationAdministration/041b5c32-ae36-4823-9d86-826335af8df6","resource":{"resourceType":"MedicationAdministration","id":"041b5c32-ae36-4823-9d86-826335af8df6","meta":{"profile":["http://hl7.org/fhir/us/qicore/StructureDefinition/qicore-mednotadministered"]},"extension":[{"url":"http://hl7.org/fhir/us/qicore/StructureDefinition/qicore-recorded","valueDateTime":"2026-10-11T09:00:00+00:00"}],"status":"not-done","statusReason":[{"coding":[{"system":"http://snomed.info/sct","code":"443390004","display":"Refused"}]}],"medicationCodeableConcept":{"coding":[{"system":"http://www.nlm.nih.gov/research/umls/rxnorm","code":"1037045"}]},"subject":{"reference":"Patient/a1a37483-1a67-4dd9-a8ca-b4d49a28a19d"},"effectivePeriod":{"start":"2026-10-11T09:00:00+00:00"}},"request":{"method":"PUT","url":"MedicationAdministration/041b5c32-ae36-4823-9d86-826335af8df6"}},{"fullUrl":"https://madie.cms.gov/Coverage/4373ba2f-fe02-4e38-aa22-a0e5fd5d524b","resource":{"resourceType":"Coverage","id":"4373ba2f-fe02-4e38-aa22-a0e5fd5d524b","status":"active","beneficiary":{"reference":"Patient/a1a37483-1a67-4dd9-a8ca-b4d49a28a19d"},"period":{"start":"1976-09-26T08:00:00+00:00"},"payor":[{"reference":"Organization/80e3e0d1-b2aa-43a6-b1d2-00bfa3164a0f"}]},"request":{"method":"PUT","url":"Coverage/4373ba2f-fe02-4e38-aa22-a0e5fd5d524b"}},{"fullUrl":"https://madie.cms.gov/Condition/100a2e57-2af0-4c85-8a5b-e9248675327b","resource":{"resourceType":"Condition","id":"100a2e57-2af0-4c85-8a5b-e9248675327b","meta":{"profile":["http://hl7.org/fhir/us/qicore/StructureDefinition/qicore-condition"]},"clinicalStatus":{"coding":[{"system":"http://terminology.hl7.org/CodeSystem/condition-clinical","code":"active"}]},"verificationStatus":{"coding":[{"system":"http://terminology.hl7.org/CodeSystem/condition-ver-status","code":"confirmed"}]},"category":[{"coding":[{"system":"http://terminology.hl7.org/CodeSystem/condition-category","code":"encounter-diagnosis","display":"Encounter Diagnosis"}]}],"code":{"coding":[{"system":"http://snomed.info/sct","version":"2020-09","code":"111297002","display":"Nonparalytic stroke (disorder)","userSelected":true}]},"subject":{"reference":"Patient/a1a37483-1a67-4dd9-a8ca-b4d49a28a19d"},"recordedDate":"2026-08-06T08:00:00.000+00:00"},"request":{"method":"PUT","url":"Condition/100a2e57-2af0-4c85-8a5b-e9248675327b"}},{"fullUrl":"https://madie.cms.gov/Organization/fe6451db-7ab6-4f0f-aacb-4f7a6a5b8678","resource":{"resourceType":"Organization","id":"80e3e0d1-b2aa-43a6-b1d2-00bfa3164a0f","meta":{"profile":["http://hl7.org/fhir/us/qicore/StructureDefinition/qicore-organization"]},"identifier":[{"use":"temp","system":"urn:oid:2.16.840.1.113883.4.4","value":"21-3259825"}],"active":true,"type":[{"coding":[{"system":"http://terminology.hl7.org/CodeSystem/organization-type","code":"pay","display":"Payer"}]}],"name":"Blue Cross Blue Shield of Texas","telecom":[{"system":"phone","value":"(+1) 972-766-6900"}],"address":[{"use":"billing","type":"postal","line":["P.O. Box 660044"],"city":"Dallas","state":"TX","postalCode":"75266-0044","country":"USA"}]},"request":{"method":"PUT","url":"Organization/80e3e0d1-b2aa-43a6-b1d2-00bfa3164a0f"}},{"fullUrl":"https://madie.cms.gov/MeasureReport/a505eb00-ad49-41a8-ae22-7026ef20ecfb","resource":{"resourceType":"MeasureReport","id":"a505eb00-ad49-41a8-ae22-7026ef20ecfb","meta":{"profile":["http://hl7.org/fhir/us/cqfmeasures/StructureDefinition/test-case-cqfm"]},"contained":[{"resourceType":"Parameters","id":"d177a473-df1a-4939-aa26-d53ba2e7efad-parameters","parameter":[{"name":"subject","valueString":"a1a37483-1a67-4dd9-a8ca-b4d49a28a19d"}]}],"extension":[{"url":"http://hl7.org/fhir/us/cqfmeasures/StructureDefinition/cqfm-inputParameters","valueReference":{"reference":"#d177a473-df1a-4939-aa26-d53ba2e7efad-parameters"}},{"url":"http://hl7.org/fhir/us/cqfmeasures/StructureDefinition/cqfm-testCaseDescription","valueMarkdown":"antithrombotic order not done due to patient refusal = 1 day after IP encounter starts AND NOT ED visit\n"}],"modifierExtension":[{"url":"http://hl7.org/fhir/us/cqfmeasures/StructureDefinition/cqfm-isTestCase","valueBoolean":true}],"status":"complete","type":"individual","measure":"https://madie.cms.gov/Measure/CMS72FHIRSTKAntithromboticDay2","period":{"start":"2026-01-01","end":"2026-12-31"},"group":[{"population":[{"code":{"coding":[{"system":"http://terminology.hl7.org/CodeSystem/measure-population","code":"initial-population","display":"Initial Population"}]},"count":1},{"code":{"coding":[{"system":"http://terminology.hl7.org/CodeSystem/measure-population","code":"denominator","display":"Denominator"}]},"count":1},{"code":{"coding":[{"system":"http://terminology.hl7.org/CodeSystem/measure-population","code":"denominator-exclusion","display":"Denominator Exclusion"}]},"count":0},{"code":{"coding":[{"system":"http://terminology.hl7.org/CodeSystem/measure-population","code":"numerator","display":"Numerator"}]},"count":0},{"code":{"coding":[{"system":"http://terminology.hl7.org/CodeSystem/measure-population","code":"denominator-exception","display":"Denominator Exception"}]},"count":1}]}]},"request":{"method":"PUT","url":"MeasureReport/a505eb00-ad49-41a8-ae22-7026ef20ecfb"}}]}