{"resourceType":"Bundle","id":"tests-58169ea2-037f-4302-9c37-4239fe24f73d-bundle","type":"transaction","entry":[{"fullUrl":"https://madie.cms.gov/Patient/58169ea2-037f-4302-9c37-4239fe24f73d","resource":{"resourceType":"Patient","id":"58169ea2-037f-4302-9c37-4239fe24f73d","meta":{"profile":["http://hl7.org/fhir/us/qicore/StructureDefinition/qicore-patient"]},"text":{"status":"generated","div":"<div xmlns=\"http://www.w3.org/1999/xhtml\"><div class=\"hapiHeaderText\">PharmContraDayOfObs_ED&lt;1hrObs&gt;1hrBFEncDayOf <b>DENEXCEPPASS </b></div><table class=\"hapiPropertyTable\"><tbody><tr><td>Identifier</td><td>5f39b93e7a5bf316f53585d08bdd97a75f7ed3ecabda70161dbae1a616b8dbe1</td></tr><tr><td>Date of birth</td><td><span>26 September 1975</span></td></tr></tbody></table></div>"},"extension":[{"url":"http://hl7.org/fhir/us/core/StructureDefinition/us-core-race","extension":[{"url":"ombCategory","valueCoding":{"system":"urn:oid:2.16.840.1.113883.6.238","code":"2054-5","display":"Black or African American","userSelected":true}},{"url":"text","valueString":"Black or African American"}]},{"url":"http://hl7.org/fhir/us/core/StructureDefinition/us-core-ethnicity","extension":[{"url":"ombCategory","valueCoding":{"system":"urn:oid:2.16.840.1.113883.6.238","code":"2186-5","display":"Not Hispanic or Latino","userSelected":true}},{"url":"text","valueString":"Not Hispanic or Latino"}]}],"identifier":[{"type":{"coding":[{"system":"http://terminology.hl7.org/CodeSystem/v2-0203","code":"MR"}]},"system":"https://bonnie-fhir.healthit.gov/","value":"60f82c2f98086b570510e2b7"}],"active":true,"name":[{"use":"usual","family":"DENEXCEPPass","given":["PharmContraDayOfObs_ED<1hrObs>1hrBFEncDayOf"]}],"gender":"female","birthDate":"1976-09-26"},"request":{"method":"PUT","url":"Patient/58169ea2-037f-4302-9c37-4239fe24f73d"}},{"fullUrl":"https://madie.cms.gov/Encounter/fc02c3f9-b2bc-4d12-8e9b-d90b5ddfc4ef","resource":{"resourceType":"Encounter","id":"fc02c3f9-b2bc-4d12-8e9b-d90b5ddfc4ef","meta":{"profile":["http://hl7.org/fhir/us/qicore/StructureDefinition/qicore-encounter"]},"status":"finished","class":{"system":"http://terminology.hl7.org/CodeSystem/v3-ActCode","code":"EMER","display":"emergency","userSelected":true},"type":[{"coding":[{"system":"http://snomed.info/sct","code":"4525004"}]}],"subject":{"reference":"Patient/58169ea2-037f-4302-9c37-4239fe24f73d"},"period":{"start":"2026-10-10T09:00:00+00:00","end":"2026-10-10T09:15:00+00:00"},"length":{"value":0,"unit":"days"}},"request":{"method":"PUT","url":"Encounter/fc02c3f9-b2bc-4d12-8e9b-d90b5ddfc4ef"}},{"fullUrl":"https://madie.cms.gov/Encounter/b34449b8-e9b7-4da4-b30b-0ab514b7ea58","resource":{"resourceType":"Encounter","id":"b34449b8-e9b7-4da4-b30b-0ab514b7ea58","meta":{"profile":["http://hl7.org/fhir/us/qicore/StructureDefinition/qicore-encounter"]},"status":"finished","class":{"system":"http://terminology.hl7.org/CodeSystem/v3-ActCode","code":"OBSENC","display":"observation encounter","userSelected":true},"type":[{"coding":[{"system":"http://snomed.info/sct","code":"448851000124103"}]}],"subject":{"reference":"Patient/58169ea2-037f-4302-9c37-4239fe24f73d"},"period":{"start":"2026-10-10T09:16:00+00:00","end":"2026-10-10T10:15:00+00:00"},"length":{"value":0,"unit":"days"}},"request":{"method":"PUT","url":"Encounter/b34449b8-e9b7-4da4-b30b-0ab514b7ea58"}},{"fullUrl":"https://madie.cms.gov/Encounter/7a266961-7b3e-4a86-b728-08914a82bbb2","resource":{"resourceType":"Encounter","id":"7a266961-7b3e-4a86-b728-08914a82bbb2","meta":{"profile":["http://hl7.org/fhir/us/qicore/StructureDefinition/qicore-encounter"]},"status":"finished","class":{"system":"http://terminology.hl7.org/CodeSystem/v3-ActCode","code":"IMP","display":"inpatient encounter","userSelected":true},"type":[{"coding":[{"system":"http://snomed.info/sct","code":"32485007"}]}],"subject":{"reference":"Patient/58169ea2-037f-4302-9c37-4239fe24f73d"},"period":{"start":"2026-10-10T23:16:00+00:00","end":"2026-10-13T10:15:00+00:00"},"length":{"value":3,"unit":"days"},"diagnosis":[{"condition":{"reference":"Condition/0d75376b-dc39-4bd9-acc2-140b527288ba"},"use":{"coding":[{"system":"http://terminology.hl7.org/CodeSystem/diagnosis-role","code":"billing","display":"Billing"}]},"rank":1}]},"request":{"method":"PUT","url":"Encounter/7a266961-7b3e-4a86-b728-08914a82bbb2"}},{"fullUrl":"https://madie.cms.gov/MedicationAdministration/78c8cbda-6f64-47e4-b8cb-cfcaca55a758","resource":{"resourceType":"MedicationAdministration","id":"78c8cbda-6f64-47e4-b8cb-cfcaca55a758","meta":{"profile":["http://hl7.org/fhir/us/qicore/StructureDefinition/qicore-medicationadministration"]},"status":"completed","medicationCodeableConcept":{"coding":[{"system":"http://www.nlm.nih.gov/research/umls/rxnorm","code":"855812","display":"prasugrel 10 MG Oral Tablet","userSelected":true}]},"subject":{"reference":"Patient/58169ea2-037f-4302-9c37-4239fe24f73d"},"effectivePeriod":{"start":"2026-10-10T10:15:00+00:00"}},"request":{"method":"PUT","url":"MedicationAdministration/78c8cbda-6f64-47e4-b8cb-cfcaca55a758"}},{"fullUrl":"https://madie.cms.gov/Coverage/d36f1a6f-34bb-433e-8e31-907954be0d17","resource":{"resourceType":"Coverage","id":"d36f1a6f-34bb-433e-8e31-907954be0d17","status":"active","beneficiary":{"reference":"Patient/58169ea2-037f-4302-9c37-4239fe24f73d"},"period":{"start":"1976-09-26T08:00:00+00:00"},"payor":[{"reference":"Organization/a6c3e6fa-301e-4714-9d04-3dde9a7e7c49"}]},"request":{"method":"PUT","url":"Coverage/d36f1a6f-34bb-433e-8e31-907954be0d17"}},{"fullUrl":"https://madie.cms.gov/Condition/0d75376b-dc39-4bd9-acc2-140b527288ba","resource":{"resourceType":"Condition","id":"0d75376b-dc39-4bd9-acc2-140b527288ba","meta":{"profile":["http://hl7.org/fhir/us/qicore/StructureDefinition/qicore-condition"]},"clinicalStatus":{"coding":[{"system":"http://terminology.hl7.org/CodeSystem/condition-clinical","code":"active"}]},"verificationStatus":{"coding":[{"system":"http://terminology.hl7.org/CodeSystem/condition-ver-status","code":"confirmed"}]},"category":[{"coding":[{"system":"http://terminology.hl7.org/CodeSystem/condition-category","code":"encounter-diagnosis","display":"Encounter Diagnosis"}]}],"code":{"coding":[{"system":"http://snomed.info/sct","version":"2020-09","code":"111297002","display":"Nonparalytic stroke (disorder)","userSelected":true}]},"subject":{"reference":"Patient/58169ea2-037f-4302-9c37-4239fe24f73d"},"recordedDate":"2026-08-06T08:00:00.000+00:00"},"request":{"method":"PUT","url":"Condition/0d75376b-dc39-4bd9-acc2-140b527288ba"}},{"fullUrl":"https://madie.cms.gov/Organization/2678677b-3c64-4672-a5ec-7a39616bfec3","resource":{"resourceType":"Organization","id":"a6c3e6fa-301e-4714-9d04-3dde9a7e7c49","meta":{"profile":["http://hl7.org/fhir/us/qicore/StructureDefinition/qicore-organization"]},"identifier":[{"use":"temp","system":"urn:oid:2.16.840.1.113883.4.4","value":"21-3259825"}],"active":true,"type":[{"coding":[{"system":"http://terminology.hl7.org/CodeSystem/organization-type","code":"pay","display":"Payer"}]}],"name":"Blue Cross Blue Shield of Texas","telecom":[{"system":"phone","value":"(+1) 972-766-6900"}],"address":[{"use":"billing","type":"postal","line":["P.O. Box 660044"],"city":"Dallas","state":"TX","postalCode":"75266-0044","country":"USA"}]},"request":{"method":"PUT","url":"Organization/a6c3e6fa-301e-4714-9d04-3dde9a7e7c49"}},{"fullUrl":"https://madie.cms.gov/MeasureReport/6c49c7fd-9cdb-4f67-95e0-2ab65a03c413","resource":{"resourceType":"MeasureReport","id":"6c49c7fd-9cdb-4f67-95e0-2ab65a03c413","meta":{"profile":["http://hl7.org/fhir/us/cqfmeasures/StructureDefinition/test-case-cqfm"]},"contained":[{"resourceType":"Parameters","id":"c1ea2225-8e45-40e4-9c4c-1421cb4f1d5d-parameters","parameter":[{"name":"subject","valueString":"58169ea2-037f-4302-9c37-4239fe24f73d"}]}],"extension":[{"url":"http://hl7.org/fhir/us/cqfmeasures/StructureDefinition/cqfm-inputParameters","valueReference":{"reference":"#c1ea2225-8e45-40e4-9c4c-1421cb4f1d5d-parameters"}},{"url":"http://hl7.org/fhir/us/cqfmeasures/StructureDefinition/cqfm-testCaseDescription","valueMarkdown":"Patient receives Ticagrelor the day of Obs. ED ends 1 min before Obs.Obs ends 61 min before IP all on the same day. Testing Day of operator with HospitalizationWithObservation function.\n"}],"modifierExtension":[{"url":"http://hl7.org/fhir/us/cqfmeasures/StructureDefinition/cqfm-isTestCase","valueBoolean":true}],"status":"complete","type":"individual","measure":"https://madie.cms.gov/Measure/CMS72FHIRSTKAntithromboticDay2","period":{"start":"2026-01-01","end":"2026-12-31"},"group":[{"population":[{"code":{"coding":[{"system":"http://terminology.hl7.org/CodeSystem/measure-population","code":"initial-population","display":"Initial Population"}]},"count":1},{"code":{"coding":[{"system":"http://terminology.hl7.org/CodeSystem/measure-population","code":"denominator","display":"Denominator"}]},"count":1},{"code":{"coding":[{"system":"http://terminology.hl7.org/CodeSystem/measure-population","code":"denominator-exclusion","display":"Denominator Exclusion"}]},"count":0},{"code":{"coding":[{"system":"http://terminology.hl7.org/CodeSystem/measure-population","code":"numerator","display":"Numerator"}]},"count":0},{"code":{"coding":[{"system":"http://terminology.hl7.org/CodeSystem/measure-population","code":"denominator-exception","display":"Denominator Exception"}]},"count":1}]}]},"request":{"method":"PUT","url":"MeasureReport/6c49c7fd-9cdb-4f67-95e0-2ab65a03c413"}}]}