{"resourceType":"Bundle","id":"tests-d496f08e-c55b-44b1-97a7-f86cf9ead1e2-bundle","type":"transaction","entry":[{"fullUrl":"https://madie.cms.gov/Patient/d496f08e-c55b-44b1-97a7-f86cf9ead1e2","resource":{"resourceType":"Patient","id":"d496f08e-c55b-44b1-97a7-f86cf9ead1e2","meta":{"profile":["http://hl7.org/fhir/us/qicore/StructureDefinition/qicore-patient"]},"text":{"status":"generated","div":"<div xmlns=\"http://www.w3.org/1999/xhtml\"><div class=\"hapiHeaderText\">PatientRefusal_NotGiven_IPEnc <b>DENEXCEPPASS </b></div><table class=\"hapiPropertyTable\"><tbody><tr><td>Identifier</td><td>349186d92a371efa8c142f2d9e0a4675</td></tr><tr><td>Date of birth</td><td><span>26 September 1975</span></td></tr></tbody></table></div>"},"extension":[{"url":"http://hl7.org/fhir/us/core/StructureDefinition/us-core-race","extension":[{"url":"ombCategory","valueCoding":{"system":"urn:oid:2.16.840.1.113883.6.238","code":"2054-5","display":"Black or African American","userSelected":true}},{"url":"text","valueString":"Black or African American"}]},{"url":"http://hl7.org/fhir/us/core/StructureDefinition/us-core-ethnicity","extension":[{"url":"ombCategory","valueCoding":{"system":"urn:oid:2.16.840.1.113883.6.238","code":"2186-5","display":"Not Hispanic or Latino","userSelected":true}},{"url":"text","valueString":"Not Hispanic or Latino"}]}],"identifier":[{"type":{"coding":[{"system":"http://terminology.hl7.org/CodeSystem/v2-0203","code":"MR"}]},"system":"https://bonnie-fhir.healthit.gov/","value":"60f82c2e98086b570510e270"}],"active":true,"name":[{"use":"usual","family":"DENEXCEPPass","given":["PatientRefusal_NotGiven_IPEnc"]}],"gender":"female","birthDate":"1976-09-26"},"request":{"method":"PUT","url":"Patient/d496f08e-c55b-44b1-97a7-f86cf9ead1e2"}},{"fullUrl":"https://madie.cms.gov/Encounter/f543d5dd-355c-48b4-a756-4d83b431fc22","resource":{"resourceType":"Encounter","id":"f543d5dd-355c-48b4-a756-4d83b431fc22","meta":{"profile":["http://hl7.org/fhir/us/qicore/StructureDefinition/qicore-encounter"]},"status":"finished","class":{"system":"http://terminology.hl7.org/CodeSystem/v3-ActCode","code":"IMP","display":"inpatient encounter","userSelected":true},"type":[{"coding":[{"system":"http://snomed.info/sct","code":"32485007"}]}],"subject":{"reference":"Patient/d496f08e-c55b-44b1-97a7-f86cf9ead1e2"},"period":{"start":"2026-10-10T09:00:00+00:00","end":"2026-10-12T11:15:00+00:00"},"length":{"value":2,"unit":"days"},"diagnosis":[{"condition":{"reference":"Condition/bc5f9a5f-da05-4482-8f49-112d1aef350b"},"use":{"coding":[{"system":"http://terminology.hl7.org/CodeSystem/diagnosis-role","code":"billing","display":"Billing"}]},"rank":1}]},"request":{"method":"PUT","url":"Encounter/f543d5dd-355c-48b4-a756-4d83b431fc22"}},{"fullUrl":"https://madie.cms.gov/MedicationAdministration/b0075208-79ed-41c3-8233-d86e9ac0cc87","resource":{"resourceType":"MedicationAdministration","id":"b0075208-79ed-41c3-8233-d86e9ac0cc87","meta":{"profile":["http://hl7.org/fhir/us/qicore/StructureDefinition/qicore-mednotadministered"]},"extension":[{"url":"http://hl7.org/fhir/us/qicore/StructureDefinition/qicore-recorded","valueDateTime":"2026-10-11T09:00:00+00:00"}],"status":"not-done","statusReason":[{"coding":[{"system":"http://snomed.info/sct","code":"443390004","display":"Refused"}]}],"medicationCodeableConcept":{"coding":[{"system":"http://www.nlm.nih.gov/research/umls/rxnorm","code":"1037045"}]},"subject":{"reference":"Patient/d496f08e-c55b-44b1-97a7-f86cf9ead1e2"},"effectivePeriod":{"start":"2026-10-11T09:00:00+00:00"}},"request":{"method":"PUT","url":"MedicationAdministration/b0075208-79ed-41c3-8233-d86e9ac0cc87"}},{"fullUrl":"https://madie.cms.gov/Coverage/089f09c9-ab21-42e1-ae16-8c9a58f5276f","resource":{"resourceType":"Coverage","id":"089f09c9-ab21-42e1-ae16-8c9a58f5276f","status":"active","beneficiary":{"reference":"Patient/d496f08e-c55b-44b1-97a7-f86cf9ead1e2"},"period":{"start":"1976-09-26T08:00:00+00:00"},"payor":[{"reference":"Organization/3778262e-e084-4bb5-9a47-1a144735f786"}]},"request":{"method":"PUT","url":"Coverage/089f09c9-ab21-42e1-ae16-8c9a58f5276f"}},{"fullUrl":"https://madie.cms.gov/Condition/bc5f9a5f-da05-4482-8f49-112d1aef350b","resource":{"resourceType":"Condition","id":"bc5f9a5f-da05-4482-8f49-112d1aef350b","meta":{"profile":["http://hl7.org/fhir/us/qicore/StructureDefinition/qicore-condition"]},"clinicalStatus":{"coding":[{"system":"http://terminology.hl7.org/CodeSystem/condition-clinical","code":"active"}]},"verificationStatus":{"coding":[{"system":"http://terminology.hl7.org/CodeSystem/condition-ver-status","code":"confirmed"}]},"category":[{"coding":[{"system":"http://terminology.hl7.org/CodeSystem/condition-category","code":"encounter-diagnosis","display":"Encounter Diagnosis"}]}],"code":{"coding":[{"system":"http://snomed.info/sct","version":"2020-09","code":"111297002","display":"Nonparalytic stroke (disorder)","userSelected":true}]},"subject":{"reference":"Patient/d496f08e-c55b-44b1-97a7-f86cf9ead1e2"},"recordedDate":"2026-08-06T08:00:00.000+00:00"},"request":{"method":"PUT","url":"Condition/bc5f9a5f-da05-4482-8f49-112d1aef350b"}},{"fullUrl":"https://madie.cms.gov/Organization/79bdfce9-a54c-4f2f-b7f4-e6b2b8db62c5","resource":{"resourceType":"Organization","id":"3778262e-e084-4bb5-9a47-1a144735f786","meta":{"profile":["http://hl7.org/fhir/us/qicore/StructureDefinition/qicore-organization"]},"identifier":[{"use":"temp","system":"urn:oid:2.16.840.1.113883.4.4","value":"21-3259825"}],"active":true,"type":[{"coding":[{"system":"http://terminology.hl7.org/CodeSystem/organization-type","code":"pay","display":"Payer"}]}],"name":"Blue Cross Blue Shield of Texas","telecom":[{"system":"phone","value":"(+1) 972-766-6900"}],"address":[{"use":"billing","type":"postal","line":["P.O. Box 660044"],"city":"Dallas","state":"TX","postalCode":"75266-0044","country":"USA"}]},"request":{"method":"PUT","url":"Organization/3778262e-e084-4bb5-9a47-1a144735f786"}},{"fullUrl":"https://madie.cms.gov/MeasureReport/d7f66ea4-0284-4f68-8bbe-049dd8d0380d","resource":{"resourceType":"MeasureReport","id":"d7f66ea4-0284-4f68-8bbe-049dd8d0380d","meta":{"profile":["http://hl7.org/fhir/us/cqfmeasures/StructureDefinition/test-case-cqfm"]},"contained":[{"resourceType":"Parameters","id":"b0bb8898-fcbd-4d9a-946a-0585551cf4c0-parameters","parameter":[{"name":"subject","valueString":"d496f08e-c55b-44b1-97a7-f86cf9ead1e2"}]}],"extension":[{"url":"http://hl7.org/fhir/us/cqfmeasures/StructureDefinition/cqfm-inputParameters","valueReference":{"reference":"#b0bb8898-fcbd-4d9a-946a-0585551cf4c0-parameters"}},{"url":"http://hl7.org/fhir/us/cqfmeasures/StructureDefinition/cqfm-testCaseDescription","valueMarkdown":"antithrombotic admin not done due to patient refusal = 1 day after IP encounter starts AND NOT ED visit\n"}],"modifierExtension":[{"url":"http://hl7.org/fhir/us/cqfmeasures/StructureDefinition/cqfm-isTestCase","valueBoolean":true}],"status":"complete","type":"individual","measure":"https://madie.cms.gov/Measure/CMS72FHIRSTKAntithromboticDay2","period":{"start":"2026-01-01","end":"2026-12-31"},"group":[{"population":[{"code":{"coding":[{"system":"http://terminology.hl7.org/CodeSystem/measure-population","code":"initial-population","display":"Initial Population"}]},"count":1},{"code":{"coding":[{"system":"http://terminology.hl7.org/CodeSystem/measure-population","code":"denominator","display":"Denominator"}]},"count":1},{"code":{"coding":[{"system":"http://terminology.hl7.org/CodeSystem/measure-population","code":"denominator-exclusion","display":"Denominator Exclusion"}]},"count":0},{"code":{"coding":[{"system":"http://terminology.hl7.org/CodeSystem/measure-population","code":"numerator","display":"Numerator"}]},"count":0},{"code":{"coding":[{"system":"http://terminology.hl7.org/CodeSystem/measure-population","code":"denominator-exception","display":"Denominator Exception"}]},"count":1}]}]},"request":{"method":"PUT","url":"MeasureReport/d7f66ea4-0284-4f68-8bbe-049dd8d0380d"}}]}