{"resourceType":"Bundle","id":"tests-55da835c-4baf-4a94-8ad9-c741739ffcf2-bundle","type":"transaction","entry":[{"fullUrl":"https://madie.cms.gov/Patient/55da835c-4baf-4a94-8ad9-c741739ffcf2","resource":{"resourceType":"Patient","id":"55da835c-4baf-4a94-8ad9-c741739ffcf2","meta":{"profile":["http://hl7.org/fhir/us/qicore/StructureDefinition/qicore-patient"]},"text":{"status":"generated","div":"<div xmlns=\"http://www.w3.org/1999/xhtml\"><div class=\"hapiHeaderText\">EncDx=HemStroke <b>IPPFAIL </b></div><table class=\"hapiPropertyTable\"><tbody><tr><td>Identifier</td><td>848ac673bb103466548c7051158ce798</td></tr><tr><td>Date of birth</td><td><span>20 August 1994</span></td></tr></tbody></table></div>"},"extension":[{"url":"http://hl7.org/fhir/us/core/StructureDefinition/us-core-race","extension":[{"url":"ombCategory","valueCoding":{"system":"urn:oid:2.16.840.1.113883.6.238","code":"1002-5","display":"American Indian or Alaska Native","userSelected":true}},{"url":"text","valueString":"American Indian or Alaska Native"}]},{"url":"http://hl7.org/fhir/us/core/StructureDefinition/us-core-ethnicity","extension":[{"url":"ombCategory","valueCoding":{"system":"urn:oid:2.16.840.1.113883.6.238","code":"2186-5","display":"Not Hispanic or Latino","userSelected":true}},{"url":"text","valueString":"Not Hispanic or Latino"}]}],"identifier":[{"type":{"coding":[{"system":"http://terminology.hl7.org/CodeSystem/v2-0203","code":"MR"}]},"system":"https://bonnie-fhir.healthit.gov/","value":"60f82c2e98086b570510e276"}],"active":true,"name":[{"use":"usual","family":"IPPFail","given":["EncDx=HemStroke"]}],"gender":"male","birthDate":"1995-08-20"},"request":{"method":"PUT","url":"Patient/55da835c-4baf-4a94-8ad9-c741739ffcf2"}},{"fullUrl":"https://madie.cms.gov/Encounter/037e455d-6c99-4621-95c2-46332aa61d4d","resource":{"resourceType":"Encounter","id":"037e455d-6c99-4621-95c2-46332aa61d4d","meta":{"profile":["http://hl7.org/fhir/us/qicore/StructureDefinition/qicore-encounter"]},"status":"finished","class":{"system":"http://terminology.hl7.org/CodeSystem/v3-ActCode","code":"IMP","display":"inpatient encounter"},"type":[{"coding":[{"system":"http://snomed.info/sct","code":"32485007"}]}],"subject":{"reference":"Patient/55da835c-4baf-4a94-8ad9-c741739ffcf2"},"period":{"start":"2026-08-21T00:00:00+00:00","end":"2026-12-18T23:59:00+00:00"},"length":{"value":119.0,"unit":"days"},"diagnosis":[{"condition":{"reference":"Condition/19a12d09-1967-420e-926c-1586a6257388"},"use":{"coding":[{"system":"http://snomed.info/sct","code":"195155004","display":"Hemorrhagic Stroke"}]}}]},"request":{"method":"PUT","url":"Encounter/037e455d-6c99-4621-95c2-46332aa61d4d"}},{"fullUrl":"https://madie.cms.gov/Coverage/a6145050-4f35-4a0b-8f63-3fc40030766d","resource":{"resourceType":"Coverage","id":"a6145050-4f35-4a0b-8f63-3fc40030766d","status":"active","beneficiary":{"reference":"Patient/55da835c-4baf-4a94-8ad9-c741739ffcf2"},"period":{"start":"1995-08-20T07:00:00+00:00"},"payor":[{"reference":"Organization/890316dc-a4ad-43b4-ba6f-9fb9e6eca282"}]},"request":{"method":"PUT","url":"Coverage/a6145050-4f35-4a0b-8f63-3fc40030766d"}},{"fullUrl":"https://madie.cms.gov/Condition/19a12d09-1967-420e-926c-1586a6257388","resource":{"resourceType":"Condition","id":"19a12d09-1967-420e-926c-1586a6257388","meta":{"profile":["http://hl7.org/fhir/us/qicore/StructureDefinition/qicore-condition"]},"clinicalStatus":{"coding":[{"system":"http://terminology.hl7.org/CodeSystem/condition-clinical","code":"active"}]},"verificationStatus":{"coding":[{"system":"http://terminology.hl7.org/CodeSystem/condition-ver-status","code":"confirmed"}]},"category":[{"coding":[{"system":"http://terminology.hl7.org/CodeSystem/condition-category","code":"encounter-diagnosis","display":"Encounter Diagnosis"}]}],"code":{"coding":[{"system":"http://snomed.info/sct","version":"2020-09","code":"195155004","display":"Subarachnoid hemorrhage from carotid siphon and bifurcation (disorder)","userSelected":true}]},"subject":{"reference":"Patient/55da835c-4baf-4a94-8ad9-c741739ffcf2"},"recordedDate":"2026-08-16T08:00:00.000+00:00"},"request":{"method":"PUT","url":"Condition/19a12d09-1967-420e-926c-1586a6257388"}},{"fullUrl":"https://madie.cms.gov/Organization/facb4078-7d96-4c4f-9c94-1ebaa550348c","resource":{"resourceType":"Organization","id":"890316dc-a4ad-43b4-ba6f-9fb9e6eca282","meta":{"profile":["http://hl7.org/fhir/us/qicore/StructureDefinition/qicore-organization"]},"identifier":[{"use":"temp","system":"urn:oid:2.16.840.1.113883.4.4","value":"21-3259825"}],"active":true,"type":[{"coding":[{"system":"http://terminology.hl7.org/CodeSystem/organization-type","code":"pay","display":"Payer"}]}],"name":"Blue Cross Blue Shield of Texas","telecom":[{"system":"phone","value":"(+1) 972-766-6900"}],"address":[{"use":"billing","type":"postal","line":["P.O. Box 660044"],"city":"Dallas","state":"TX","postalCode":"75266-0044","country":"USA"}]},"request":{"method":"PUT","url":"Organization/890316dc-a4ad-43b4-ba6f-9fb9e6eca282"}},{"fullUrl":"https://madie.cms.gov/Practitioner/743dd96e-85fe-4dab-939a-eb1451272274","resource":{"resourceType":"Practitioner","id":"743dd96e-85fe-4dab-939a-eb1451272274","identifier":[{"system":"http://hl7.org/fhir/sid/us-npi","value":"123456"}],"name":[{"family":"Evil","prefix":["Dr"]}]},"request":{"method":"PUT","url":"Practitioner/743dd96e-85fe-4dab-939a-eb1451272274"}},{"fullUrl":"https://madie.cms.gov/MeasureReport/4d963723-b02c-4a3f-af4e-040dbc741837","resource":{"resourceType":"MeasureReport","id":"4d963723-b02c-4a3f-af4e-040dbc741837","meta":{"profile":["http://hl7.org/fhir/us/cqfmeasures/StructureDefinition/test-case-cqfm"]},"contained":[{"resourceType":"Parameters","id":"0fe07d8f-ca9f-4c9d-a62c-732d1f4fe7a1-parameters","parameter":[{"name":"subject","valueString":"55da835c-4baf-4a94-8ad9-c741739ffcf2"}]}],"extension":[{"url":"http://hl7.org/fhir/us/cqfmeasures/StructureDefinition/cqfm-inputParameters","valueReference":{"reference":"#0fe07d8f-ca9f-4c9d-a62c-732d1f4fe7a1-parameters"}},{"url":"http://hl7.org/fhir/us/cqfmeasures/StructureDefinition/cqfm-testCaseDescription","valueMarkdown":"EncDx=HemStroke   \n"}],"modifierExtension":[{"url":"http://hl7.org/fhir/us/cqfmeasures/StructureDefinition/cqfm-isTestCase","valueBoolean":true}],"status":"complete","type":"individual","measure":"https://madie.cms.gov/Measure/CMS72FHIRSTKAntithromboticDay2","period":{"start":"2026-01-01","end":"2026-12-31"},"group":[{"population":[{"code":{"coding":[{"system":"http://terminology.hl7.org/CodeSystem/measure-population","code":"initial-population","display":"Initial Population"}]},"count":0},{"code":{"coding":[{"system":"http://terminology.hl7.org/CodeSystem/measure-population","code":"denominator","display":"Denominator"}]},"count":0},{"code":{"coding":[{"system":"http://terminology.hl7.org/CodeSystem/measure-population","code":"denominator-exclusion","display":"Denominator Exclusion"}]},"count":0},{"code":{"coding":[{"system":"http://terminology.hl7.org/CodeSystem/measure-population","code":"numerator","display":"Numerator"}]},"count":0},{"code":{"coding":[{"system":"http://terminology.hl7.org/CodeSystem/measure-population","code":"denominator-exception","display":"Denominator Exception"}]},"count":0}]}]},"request":{"method":"PUT","url":"MeasureReport/4d963723-b02c-4a3f-af4e-040dbc741837"}}]}