{"resourceType":"Bundle","id":"tests-9a42c820-29ec-464e-b2f5-eb8114985a0c-bundle","type":"transaction","entry":[{"fullUrl":"https://madie.cms.gov/Patient/9a42c820-29ec-464e-b2f5-eb8114985a0c","resource":{"resourceType":"Patient","id":"9a42c820-29ec-464e-b2f5-eb8114985a0c","meta":{"profile":["http://hl7.org/fhir/us/qicore/StructureDefinition/qicore-patient"]},"text":{"status":"generated","div":"<div xmlns=\"http://www.w3.org/1999/xhtml\"><div class=\"hapiHeaderText\">PharmContraDayAftEncStart_NoEDNoObsBFEnc_DateTime <b>DENEXCEPPASS </b></div><table class=\"hapiPropertyTable\"><tbody><tr><td>Identifier</td><td>20549e17b75f876587bc16f30ff24d8e209663aec0492eb62127bd43e67eb9dc</td></tr><tr><td>Date of birth</td><td><span>26 September 1975</span></td></tr></tbody></table></div>"},"extension":[{"url":"http://hl7.org/fhir/us/core/StructureDefinition/us-core-race","extension":[{"url":"ombCategory","valueCoding":{"system":"urn:oid:2.16.840.1.113883.6.238","code":"2054-5","display":"Black or African American","userSelected":true}},{"url":"text","valueString":"Black or African American"}]},{"url":"http://hl7.org/fhir/us/core/StructureDefinition/us-core-ethnicity","extension":[{"url":"ombCategory","valueCoding":{"system":"urn:oid:2.16.840.1.113883.6.238","code":"2186-5","display":"Not Hispanic or Latino","userSelected":true}},{"url":"text","valueString":"Not Hispanic or Latino"}]}],"identifier":[{"type":{"coding":[{"system":"http://terminology.hl7.org/CodeSystem/v2-0203","code":"MR"}]},"system":"https://bonnie-fhir.healthit.gov/","value":"60f82c2f98086b570510e29f"}],"active":true,"name":[{"use":"usual","family":"DENEXCEPPass","given":["PharmContraDayAftEncStart_NoEDNoObsBFEnc_DateTime"]}],"gender":"female","birthDate":"1976-09-26"},"request":{"method":"PUT","url":"Patient/9a42c820-29ec-464e-b2f5-eb8114985a0c"}},{"fullUrl":"https://madie.cms.gov/Encounter/56fabb89-8fd3-4ad3-bd5d-a0bbbbf2d1ef","resource":{"resourceType":"Encounter","id":"56fabb89-8fd3-4ad3-bd5d-a0bbbbf2d1ef","meta":{"profile":["http://hl7.org/fhir/us/qicore/StructureDefinition/qicore-encounter"]},"status":"finished","class":{"system":"http://terminology.hl7.org/CodeSystem/v3-ActCode","code":"IMP","display":"inpatient encounter","userSelected":true},"type":[{"coding":[{"system":"http://snomed.info/sct","code":"32485007"}]}],"subject":{"reference":"Patient/9a42c820-29ec-464e-b2f5-eb8114985a0c"},"period":{"start":"2026-10-10T09:00:00+00:00","end":"2026-10-12T11:15:00+00:00"},"length":{"value":2,"unit":"days"},"diagnosis":[{"condition":{"reference":"Condition/2ac6e15c-ff79-4874-b4c2-773e33b07b4b"},"use":{"coding":[{"system":"http://terminology.hl7.org/CodeSystem/diagnosis-role","code":"billing","display":"Billing"}]},"rank":1}]},"request":{"method":"PUT","url":"Encounter/56fabb89-8fd3-4ad3-bd5d-a0bbbbf2d1ef"}},{"fullUrl":"https://madie.cms.gov/MedicationAdministration/f59c5242-b7f9-4e59-a284-7252ea13601c","resource":{"resourceType":"MedicationAdministration","id":"f59c5242-b7f9-4e59-a284-7252ea13601c","meta":{"profile":["http://hl7.org/fhir/us/qicore/StructureDefinition/qicore-medicationadministration"]},"status":"completed","medicationCodeableConcept":{"coding":[{"system":"http://www.nlm.nih.gov/research/umls/rxnorm","code":"855812","display":"prasugrel 10 MG Oral Tablet","userSelected":true}]},"subject":{"reference":"Patient/9a42c820-29ec-464e-b2f5-eb8114985a0c"},"effectiveDateTime":"2026-10-11T11:59:00.000+00:00"},"request":{"method":"PUT","url":"MedicationAdministration/f59c5242-b7f9-4e59-a284-7252ea13601c"}},{"fullUrl":"https://madie.cms.gov/Coverage/7980043d-ac2b-4819-9c15-3b192a512287","resource":{"resourceType":"Coverage","id":"7980043d-ac2b-4819-9c15-3b192a512287","status":"active","beneficiary":{"reference":"Patient/9a42c820-29ec-464e-b2f5-eb8114985a0c"},"period":{"start":"1976-09-26T08:00:00+00:00"},"payor":[{"reference":"Organization/5ad6ea38-07e9-4482-9e1b-c09eee595be9"}]},"request":{"method":"PUT","url":"Coverage/7980043d-ac2b-4819-9c15-3b192a512287"}},{"fullUrl":"https://madie.cms.gov/Condition/2ac6e15c-ff79-4874-b4c2-773e33b07b4b","resource":{"resourceType":"Condition","id":"2ac6e15c-ff79-4874-b4c2-773e33b07b4b","meta":{"profile":["http://hl7.org/fhir/us/qicore/StructureDefinition/qicore-condition"]},"clinicalStatus":{"coding":[{"system":"http://terminology.hl7.org/CodeSystem/condition-clinical","code":"active"}]},"verificationStatus":{"coding":[{"system":"http://terminology.hl7.org/CodeSystem/condition-ver-status","code":"confirmed"}]},"category":[{"coding":[{"system":"http://terminology.hl7.org/CodeSystem/condition-category","code":"encounter-diagnosis","display":"Encounter Diagnosis"}]}],"code":{"coding":[{"system":"http://snomed.info/sct","version":"2020-09","code":"111297002","display":"Nonparalytic stroke (disorder)","userSelected":true}]},"subject":{"reference":"Patient/9a42c820-29ec-464e-b2f5-eb8114985a0c"},"recordedDate":"2026-08-06T08:00:00.000+00:00"},"request":{"method":"PUT","url":"Condition/2ac6e15c-ff79-4874-b4c2-773e33b07b4b"}},{"fullUrl":"https://madie.cms.gov/Organization/a2462eac-bf5f-4382-afc0-fef9a93d13d1","resource":{"resourceType":"Organization","id":"5ad6ea38-07e9-4482-9e1b-c09eee595be9","meta":{"profile":["http://hl7.org/fhir/us/qicore/StructureDefinition/qicore-organization"]},"identifier":[{"use":"temp","system":"urn:oid:2.16.840.1.113883.4.4","value":"21-3259825"}],"active":true,"type":[{"coding":[{"system":"http://terminology.hl7.org/CodeSystem/organization-type","code":"pay","display":"Payer"}]}],"name":"Blue Cross Blue Shield of Texas","telecom":[{"system":"phone","value":"(+1) 972-766-6900"}],"address":[{"use":"billing","type":"postal","line":["P.O. Box 660044"],"city":"Dallas","state":"TX","postalCode":"75266-0044","country":"USA"}]},"request":{"method":"PUT","url":"Organization/5ad6ea38-07e9-4482-9e1b-c09eee595be9"}},{"fullUrl":"https://madie.cms.gov/MeasureReport/296e5837-4e53-4974-a828-24b8cb217454","resource":{"resourceType":"MeasureReport","id":"296e5837-4e53-4974-a828-24b8cb217454","meta":{"profile":["http://hl7.org/fhir/us/cqfmeasures/StructureDefinition/test-case-cqfm"]},"contained":[{"resourceType":"Parameters","id":"86e2b8a8-8b4f-4b20-bb26-be5930ebfb06-parameters","parameter":[{"name":"subject","valueString":"9a42c820-29ec-464e-b2f5-eb8114985a0c"}]}],"extension":[{"url":"http://hl7.org/fhir/us/cqfmeasures/StructureDefinition/cqfm-inputParameters","valueReference":{"reference":"#86e2b8a8-8b4f-4b20-bb26-be5930ebfb06-parameters"}},{"url":"http://hl7.org/fhir/us/cqfmeasures/StructureDefinition/cqfm-testCaseDescription","valueMarkdown":"Patient receives Ticagrelor day after IP start at 1159 pm. No ED. No Obs. Testing Day of operator with HospitalizationWithObservation function.\n"}],"modifierExtension":[{"url":"http://hl7.org/fhir/us/cqfmeasures/StructureDefinition/cqfm-isTestCase","valueBoolean":true}],"status":"complete","type":"individual","measure":"https://madie.cms.gov/Measure/CMS72FHIRSTKAntithromboticDay2","period":{"start":"2026-01-01","end":"2026-12-31"},"group":[{"population":[{"code":{"coding":[{"system":"http://terminology.hl7.org/CodeSystem/measure-population","code":"initial-population","display":"Initial Population"}]},"count":1},{"code":{"coding":[{"system":"http://terminology.hl7.org/CodeSystem/measure-population","code":"denominator","display":"Denominator"}]},"count":1},{"code":{"coding":[{"system":"http://terminology.hl7.org/CodeSystem/measure-population","code":"denominator-exclusion","display":"Denominator Exclusion"}]},"count":0},{"code":{"coding":[{"system":"http://terminology.hl7.org/CodeSystem/measure-population","code":"numerator","display":"Numerator"}]},"count":0},{"code":{"coding":[{"system":"http://terminology.hl7.org/CodeSystem/measure-population","code":"denominator-exception","display":"Denominator Exception"}]},"count":1}]}]},"request":{"method":"PUT","url":"MeasureReport/296e5837-4e53-4974-a828-24b8cb217454"}}]}