{"resourceType":"Bundle","id":"tests-1ef5e77a-dea5-4f1f-873b-44ea79810330-bundle","type":"transaction","entry":[{"fullUrl":"https://madie.cms.gov/Patient/1ef5e77a-dea5-4f1f-873b-44ea79810330","resource":{"resourceType":"Patient","id":"1ef5e77a-dea5-4f1f-873b-44ea79810330","meta":{"profile":["http://hl7.org/fhir/us/qicore/StructureDefinition/qicore-patient"]},"text":{"status":"generated","div":"<div xmlns=\"http://www.w3.org/1999/xhtml\"><div class=\"hapiHeaderText\">MedAntithromboticStart_eq0dayDuringEncIP <b>NUMERPASS </b></div><table class=\"hapiPropertyTable\"><tbody><tr><td>Identifier</td><td>6aa79e9cebbde8275335fd99b030f3d5</td></tr><tr><td>Date of birth</td><td><span>26 September 1975</span></td></tr></tbody></table></div>"},"extension":[{"url":"http://hl7.org/fhir/us/core/StructureDefinition/us-core-race","extension":[{"url":"ombCategory","valueCoding":{"system":"urn:oid:2.16.840.1.113883.6.238","code":"2054-5","display":"Black or African American","userSelected":true}},{"url":"text","valueString":"Black or African American"}]},{"url":"http://hl7.org/fhir/us/core/StructureDefinition/us-core-ethnicity","extension":[{"url":"ombCategory","valueCoding":{"system":"urn:oid:2.16.840.1.113883.6.238","code":"2186-5","display":"Not Hispanic or Latino","userSelected":true}},{"url":"text","valueString":"Not Hispanic or Latino"}]}],"identifier":[{"type":{"coding":[{"system":"http://terminology.hl7.org/CodeSystem/v2-0203","code":"MR"}]},"system":"https://bonnie-fhir.healthit.gov/","value":"60f82c2d98086b570510e259"}],"active":true,"name":[{"use":"usual","family":"NUMERPass","given":["MedAntithromboticStart_eq0dayDuringEncIP"]}],"gender":"female","birthDate":"1976-09-26"},"request":{"method":"PUT","url":"Patient/1ef5e77a-dea5-4f1f-873b-44ea79810330"}},{"fullUrl":"https://madie.cms.gov/Encounter/ac66c94e-e908-40a9-9001-e5f86276664c","resource":{"resourceType":"Encounter","id":"ac66c94e-e908-40a9-9001-e5f86276664c","meta":{"profile":["http://hl7.org/fhir/us/qicore/StructureDefinition/qicore-encounter"]},"status":"finished","class":{"system":"http://terminology.hl7.org/CodeSystem/v3-ActCode","code":"IMP","display":"inpatient encounter"},"type":[{"coding":[{"system":"http://snomed.info/sct","code":"32485007"}]}],"subject":{"reference":"Patient/1ef5e77a-dea5-4f1f-873b-44ea79810330"},"period":{"start":"2026-10-10T09:00:00+00:00","end":"2026-10-12T11:15:00+00:00"},"length":{"value":2,"unit":"days"},"diagnosis":[{"condition":{"reference":"Condition/9b62b76c-9ee3-4c4b-abf7-ad37ad419628"},"use":{"coding":[{"system":"http://terminology.hl7.org/CodeSystem/diagnosis-role","code":"billing","display":"Billing"}]},"rank":1}]},"request":{"method":"PUT","url":"Encounter/ac66c94e-e908-40a9-9001-e5f86276664c"}},{"fullUrl":"https://madie.cms.gov/MedicationAdministration/553d2c38-07ce-487f-99d6-002ceebfdbcc","resource":{"resourceType":"MedicationAdministration","id":"553d2c38-07ce-487f-99d6-002ceebfdbcc","meta":{"profile":["http://hl7.org/fhir/us/qicore/StructureDefinition/qicore-medicationadministration"]},"status":"completed","medicationCodeableConcept":{"coding":[{"system":"http://www.nlm.nih.gov/research/umls/rxnorm","code":"1037045"}]},"subject":{"reference":"Patient/1ef5e77a-dea5-4f1f-873b-44ea79810330"},"effectivePeriod":{"start":"2026-10-11T11:00:00+00:00"}},"request":{"method":"PUT","url":"MedicationAdministration/553d2c38-07ce-487f-99d6-002ceebfdbcc"}},{"fullUrl":"https://madie.cms.gov/Coverage/aad7fcb8-7f28-4d7e-aa42-f5ae7e8ae0ee","resource":{"resourceType":"Coverage","id":"aad7fcb8-7f28-4d7e-aa42-f5ae7e8ae0ee","status":"active","beneficiary":{"reference":"Patient/1ef5e77a-dea5-4f1f-873b-44ea79810330"},"period":{"start":"1976-09-26T08:00:00+00:00"},"payor":[{"reference":"Organization/80e3e0d1-b2aa-43a6-b1d2-00bfa3164a0f"}]},"request":{"method":"PUT","url":"Coverage/aad7fcb8-7f28-4d7e-aa42-f5ae7e8ae0ee"}},{"fullUrl":"https://madie.cms.gov/Condition/9b62b76c-9ee3-4c4b-abf7-ad37ad419628","resource":{"resourceType":"Condition","id":"9b62b76c-9ee3-4c4b-abf7-ad37ad419628","meta":{"profile":["http://hl7.org/fhir/us/qicore/StructureDefinition/qicore-condition"]},"clinicalStatus":{"coding":[{"system":"http://terminology.hl7.org/CodeSystem/condition-clinical","code":"active"}]},"verificationStatus":{"coding":[{"system":"http://terminology.hl7.org/CodeSystem/condition-ver-status","code":"confirmed"}]},"category":[{"coding":[{"system":"http://terminology.hl7.org/CodeSystem/condition-category","code":"encounter-diagnosis","display":"Encounter Diagnosis"}]}],"code":{"coding":[{"system":"http://snomed.info/sct","version":"2020-09","code":"111297002","display":"Nonparalytic stroke (disorder)","userSelected":true}]},"subject":{"reference":"Patient/1ef5e77a-dea5-4f1f-873b-44ea79810330"},"recordedDate":"2026-08-16T08:00:00.000+00:00"},"request":{"method":"PUT","url":"Condition/9b62b76c-9ee3-4c4b-abf7-ad37ad419628"}},{"fullUrl":"https://madie.cms.gov/Organization/570ff930-285c-43e4-af20-eed7867e5ab4","resource":{"resourceType":"Organization","id":"80e3e0d1-b2aa-43a6-b1d2-00bfa3164a0f","meta":{"profile":["http://hl7.org/fhir/us/qicore/StructureDefinition/qicore-organization"]},"identifier":[{"use":"temp","system":"urn:oid:2.16.840.1.113883.4.4","value":"21-3259825"}],"active":true,"type":[{"coding":[{"system":"http://terminology.hl7.org/CodeSystem/organization-type","code":"pay","display":"Payer"}]}],"name":"Blue Cross Blue Shield of Texas","telecom":[{"system":"phone","value":"(+1) 972-766-6900"}],"address":[{"use":"billing","type":"postal","line":["P.O. Box 660044"],"city":"Dallas","state":"TX","postalCode":"75266-0044","country":"USA"}]},"request":{"method":"PUT","url":"Organization/80e3e0d1-b2aa-43a6-b1d2-00bfa3164a0f"}},{"fullUrl":"https://madie.cms.gov/MeasureReport/07a12ee3-33f5-4965-b75f-207e08f89d7f","resource":{"resourceType":"MeasureReport","id":"07a12ee3-33f5-4965-b75f-207e08f89d7f","meta":{"profile":["http://hl7.org/fhir/us/cqfmeasures/StructureDefinition/test-case-cqfm"]},"contained":[{"resourceType":"Parameters","id":"d80dc2f7-e929-44c2-8187-2318f724d986-parameters","parameter":[{"name":"subject","valueString":"1ef5e77a-dea5-4f1f-873b-44ea79810330"}]}],"extension":[{"url":"http://hl7.org/fhir/us/cqfmeasures/StructureDefinition/cqfm-inputParameters","valueReference":{"reference":"#d80dc2f7-e929-44c2-8187-2318f724d986-parameters"}},{"url":"http://hl7.org/fhir/us/cqfmeasures/StructureDefinition/cqfm-testCaseDescription","valueMarkdown":"NUMERPass MedantithromboticStart_eq0dayDuringEncIP"}],"modifierExtension":[{"url":"http://hl7.org/fhir/us/cqfmeasures/StructureDefinition/cqfm-isTestCase","valueBoolean":true}],"status":"complete","type":"individual","measure":"https://madie.cms.gov/Measure/CMS72FHIRSTKAntithromboticDay2","period":{"start":"2026-01-01","end":"2026-12-31"},"group":[{"population":[{"code":{"coding":[{"system":"http://terminology.hl7.org/CodeSystem/measure-population","code":"initial-population","display":"Initial Population"}]},"count":1},{"code":{"coding":[{"system":"http://terminology.hl7.org/CodeSystem/measure-population","code":"denominator","display":"Denominator"}]},"count":1},{"code":{"coding":[{"system":"http://terminology.hl7.org/CodeSystem/measure-population","code":"denominator-exclusion","display":"Denominator Exclusion"}]},"count":0},{"code":{"coding":[{"system":"http://terminology.hl7.org/CodeSystem/measure-population","code":"numerator","display":"Numerator"}]},"count":1},{"code":{"coding":[{"system":"http://terminology.hl7.org/CodeSystem/measure-population","code":"denominator-exception","display":"Denominator Exception"}]},"count":0}]}]},"request":{"method":"PUT","url":"MeasureReport/07a12ee3-33f5-4965-b75f-207e08f89d7f"}}]}