{"resourceType":"Bundle","id":"tests-9915271c-d175-41e1-8550-2f698a2b9dc7-bundle","type":"transaction","entry":[{"fullUrl":"https://madie.cms.gov/Patient/9915271c-d175-41e1-8550-2f698a2b9dc7","resource":{"resourceType":"Patient","id":"9915271c-d175-41e1-8550-2f698a2b9dc7","meta":{"profile":["http://hl7.org/fhir/us/qicore/StructureDefinition/qicore-patient"]},"text":{"status":"generated","div":"<div xmlns=\"http://www.w3.org/1999/xhtml\"><div class=\"hapiHeaderText\">CMP&lt;1Day_DuringGap_ofEdandEncIP <b>DENEXPASS </b></div><table class=\"hapiPropertyTable\"><tbody><tr><td>Identifier</td><td>dad0cebb56286a674a92a9f3fadbb6cf</td></tr><tr><td>Date of birth</td><td><span>26 September 1975</span></td></tr></tbody></table></div>"},"extension":[{"url":"http://hl7.org/fhir/us/core/StructureDefinition/us-core-race","extension":[{"url":"ombCategory","valueCoding":{"system":"urn:oid:2.16.840.1.113883.6.238","code":"2054-5","display":"Black or African American","userSelected":true}},{"url":"text","valueString":"Black or African American"}]},{"url":"http://hl7.org/fhir/us/core/StructureDefinition/us-core-ethnicity","extension":[{"url":"ombCategory","valueCoding":{"system":"urn:oid:2.16.840.1.113883.6.238","code":"2186-5","display":"Not Hispanic or Latino","userSelected":true}},{"url":"text","valueString":"Not Hispanic or Latino"}]}],"identifier":[{"type":{"coding":[{"system":"http://terminology.hl7.org/CodeSystem/v2-0203","code":"MR"}]},"system":"https://bonnie-fhir.healthit.gov/","value":"60f82c2e98086b570510e28a"}],"active":true,"name":[{"use":"usual","family":"DENEXPass","given":["CMP<1Day_DuringGap_ofEdandEncIP"]}],"gender":"female","birthDate":"1976-09-26"},"request":{"method":"PUT","url":"Patient/9915271c-d175-41e1-8550-2f698a2b9dc7"}},{"fullUrl":"https://madie.cms.gov/Encounter/01cc81d9-771a-402b-abb5-5e512479accb","resource":{"resourceType":"Encounter","id":"01cc81d9-771a-402b-abb5-5e512479accb","meta":{"profile":["http://hl7.org/fhir/us/qicore/StructureDefinition/qicore-encounter"]},"status":"finished","class":{"system":"http://terminology.hl7.org/CodeSystem/v3-ActCode","code":"EMER","display":"emergency","userSelected":true},"type":[{"coding":[{"system":"http://snomed.info/sct","code":"4525004"}]}],"subject":{"reference":"Patient/9915271c-d175-41e1-8550-2f698a2b9dc7"},"period":{"start":"2026-10-10T04:00:00+00:00","end":"2026-10-10T06:15:00+00:00"},"length":{"value":0,"unit":"days"}},"request":{"method":"PUT","url":"Encounter/01cc81d9-771a-402b-abb5-5e512479accb"}},{"fullUrl":"https://madie.cms.gov/Encounter/09ade078-f887-4424-ad7b-d94ab31cb000","resource":{"resourceType":"Encounter","id":"09ade078-f887-4424-ad7b-d94ab31cb000","meta":{"profile":["http://hl7.org/fhir/us/qicore/StructureDefinition/qicore-encounter"]},"status":"finished","class":{"system":"http://terminology.hl7.org/CodeSystem/v3-ActCode","code":"IMP","display":"inpatient encounter","userSelected":true},"type":[{"coding":[{"system":"http://snomed.info/sct","code":"32485007"}]}],"subject":{"reference":"Patient/9915271c-d175-41e1-8550-2f698a2b9dc7"},"period":{"start":"2026-10-10T07:00:00+00:00","end":"2026-10-12T06:31:00+00:00"},"length":{"value":2,"unit":"days"},"diagnosis":[{"condition":{"reference":"Condition/ebbb0e50-7a37-4465-9700-0c1dedf8742f"},"use":{"coding":[{"system":"http://terminology.hl7.org/CodeSystem/diagnosis-role","code":"billing","display":"Billing"}]},"rank":1}]},"request":{"method":"PUT","url":"Encounter/09ade078-f887-4424-ad7b-d94ab31cb000"}},{"fullUrl":"https://madie.cms.gov/Procedure/f2d079b4-ccee-4b3d-86fb-bfe972325602","resource":{"resourceType":"Procedure","id":"f2d079b4-ccee-4b3d-86fb-bfe972325602","meta":{"profile":["http://hl7.org/fhir/us/qicore/StructureDefinition/qicore-procedure"]},"extension":[{"url":"http://hl7.org/fhir/us/qicore/StructureDefinition/qicore-recorded","valueDateTime":"2026-11-19T09:35:00-04:00"}],"status":"completed","code":{"coding":[{"system":"http://snomed.info/sct","code":"133918004"}]},"subject":{"reference":"Patient/9915271c-d175-41e1-8550-2f698a2b9dc7"},"performedPeriod":{"start":"2026-10-10T06:20:00+00:00"}},"request":{"method":"PUT","url":"Procedure/f2d079b4-ccee-4b3d-86fb-bfe972325602"}},{"fullUrl":"https://madie.cms.gov/Coverage/0b8b457a-f497-4db0-9662-cbce1e0e0e83","resource":{"resourceType":"Coverage","id":"0b8b457a-f497-4db0-9662-cbce1e0e0e83","status":"active","beneficiary":{"reference":"Patient/9915271c-d175-41e1-8550-2f698a2b9dc7"},"period":{"start":"1976-09-26T08:00:00+00:00"},"payor":[{"reference":"Organization/607fdef9-3983-4cef-ab1a-95434d29b463"}]},"request":{"method":"PUT","url":"Coverage/0b8b457a-f497-4db0-9662-cbce1e0e0e83"}},{"fullUrl":"https://madie.cms.gov/Condition/ebbb0e50-7a37-4465-9700-0c1dedf8742f","resource":{"resourceType":"Condition","id":"ebbb0e50-7a37-4465-9700-0c1dedf8742f","meta":{"profile":["http://hl7.org/fhir/us/qicore/StructureDefinition/qicore-condition"]},"clinicalStatus":{"coding":[{"system":"http://terminology.hl7.org/CodeSystem/condition-clinical","code":"active"}]},"verificationStatus":{"coding":[{"system":"http://terminology.hl7.org/CodeSystem/condition-ver-status","code":"confirmed"}]},"category":[{"coding":[{"system":"http://terminology.hl7.org/CodeSystem/condition-category","code":"encounter-diagnosis","display":"Encounter Diagnosis"}]}],"code":{"coding":[{"system":"http://snomed.info/sct","version":"2020-09","code":"111297002","display":"Nonparalytic stroke (disorder)","userSelected":true}]},"subject":{"reference":"Patient/9915271c-d175-41e1-8550-2f698a2b9dc7"},"recordedDate":"2026-08-13T08:00:00.000+00:00"},"request":{"method":"PUT","url":"Condition/ebbb0e50-7a37-4465-9700-0c1dedf8742f"}},{"fullUrl":"https://madie.cms.gov/Organization/b0972871-07e0-46b3-aa66-06e1a952b519","resource":{"resourceType":"Organization","id":"607fdef9-3983-4cef-ab1a-95434d29b463","meta":{"profile":["http://hl7.org/fhir/us/qicore/StructureDefinition/qicore-organization"]},"identifier":[{"use":"temp","system":"urn:oid:2.16.840.1.113883.4.4","value":"21-3259825"}],"active":true,"type":[{"coding":[{"system":"http://terminology.hl7.org/CodeSystem/organization-type","code":"pay","display":"Payer"}]}],"name":"Blue Cross Blue Shield of Texas","telecom":[{"system":"phone","value":"(+1) 972-766-6900"}],"address":[{"use":"billing","type":"postal","line":["P.O. Box 660044"],"city":"Dallas","state":"TX","postalCode":"75266-0044","country":"USA"}]},"request":{"method":"PUT","url":"Organization/607fdef9-3983-4cef-ab1a-95434d29b463"}},{"fullUrl":"https://madie.cms.gov/MeasureReport/f34df2be-4fe1-4d59-ac17-3a87da708cd7","resource":{"resourceType":"MeasureReport","id":"f34df2be-4fe1-4d59-ac17-3a87da708cd7","meta":{"profile":["http://hl7.org/fhir/us/cqfmeasures/StructureDefinition/test-case-cqfm"]},"contained":[{"resourceType":"Parameters","id":"df4b178d-a17e-4d5c-ae8f-26c472fb1c68-parameters","parameter":[{"name":"subject","valueString":"9915271c-d175-41e1-8550-2f698a2b9dc7"}]}],"extension":[{"url":"http://hl7.org/fhir/us/cqfmeasures/StructureDefinition/cqfm-inputParameters","valueReference":{"reference":"#df4b178d-a17e-4d5c-ae8f-26c472fb1c68-parameters"}},{"url":"http://hl7.org/fhir/us/cqfmeasures/StructureDefinition/cqfm-testCaseDescription","valueMarkdown":"Patient receives comfort measures performed <= 1 (=0 day) day during Gap of Ed and IP encounter\n"}],"modifierExtension":[{"url":"http://hl7.org/fhir/us/cqfmeasures/StructureDefinition/cqfm-isTestCase","valueBoolean":true}],"status":"complete","type":"individual","measure":"https://madie.cms.gov/Measure/CMS72FHIRSTKAntithromboticDay2","period":{"start":"2026-01-01","end":"2026-12-31"},"group":[{"population":[{"code":{"coding":[{"system":"http://terminology.hl7.org/CodeSystem/measure-population","code":"initial-population","display":"Initial Population"}]},"count":1},{"code":{"coding":[{"system":"http://terminology.hl7.org/CodeSystem/measure-population","code":"denominator","display":"Denominator"}]},"count":1},{"code":{"coding":[{"system":"http://terminology.hl7.org/CodeSystem/measure-population","code":"denominator-exclusion","display":"Denominator Exclusion"}]},"count":1},{"code":{"coding":[{"system":"http://terminology.hl7.org/CodeSystem/measure-population","code":"numerator","display":"Numerator"}]},"count":0},{"code":{"coding":[{"system":"http://terminology.hl7.org/CodeSystem/measure-population","code":"denominator-exception","display":"Denominator Exception"}]},"count":0}]}]},"request":{"method":"PUT","url":"MeasureReport/f34df2be-4fe1-4d59-ac17-3a87da708cd7"}}]}