{"resourceType":"Bundle","id":"tests-7e3bf20a-7a5b-4d50-aa34-267ab19da7b2-bundle","type":"transaction","entry":[{"fullUrl":"https://madie.cms.gov/Patient/7e3bf20a-7a5b-4d50-aa34-267ab19da7b2","resource":{"resourceType":"Patient","id":"7e3bf20a-7a5b-4d50-aa34-267ab19da7b2","meta":{"profile":["http://hl7.org/fhir/us/qicore/StructureDefinition/qicore-patient"]},"text":{"status":"generated","div":"<div xmlns=\"http://www.w3.org/1999/xhtml\"><div class=\"hapiHeaderText\">MedAntithromboticStart_eq1dayDuringEncIPwEd <b>NUMERPASS </b></div><table class=\"hapiPropertyTable\"><tbody><tr><td>Identifier</td><td>31f584b75330393256fa59b34c307941</td></tr><tr><td>Date of birth</td><td><span>26 September 1975</span></td></tr></tbody></table></div>"},"extension":[{"url":"http://hl7.org/fhir/us/core/StructureDefinition/us-core-race","extension":[{"url":"ombCategory","valueCoding":{"system":"urn:oid:2.16.840.1.113883.6.238","code":"2054-5","display":"Black or African American","userSelected":true}},{"url":"text","valueString":"Black or African American"}]},{"url":"http://hl7.org/fhir/us/core/StructureDefinition/us-core-ethnicity","extension":[{"url":"ombCategory","valueCoding":{"system":"urn:oid:2.16.840.1.113883.6.238","code":"2186-5","display":"Not Hispanic or Latino","userSelected":true}},{"url":"text","valueString":"Not Hispanic or Latino"}]}],"identifier":[{"type":{"coding":[{"system":"http://terminology.hl7.org/CodeSystem/v2-0203","code":"MR"}]},"system":"https://bonnie-fhir.healthit.gov/","value":"60f82c2e98086b570510e28d"}],"active":true,"name":[{"use":"usual","family":"NUMERPass","given":["MedAntithromboticStart_eq1dayDuringEncIPwEd"]}],"gender":"female","birthDate":"1976-09-26"},"request":{"method":"PUT","url":"Patient/7e3bf20a-7a5b-4d50-aa34-267ab19da7b2"}},{"fullUrl":"https://madie.cms.gov/Encounter/a893e46f-6941-4873-bd63-9fd3b6992a96","resource":{"resourceType":"Encounter","id":"a893e46f-6941-4873-bd63-9fd3b6992a96","meta":{"profile":["http://hl7.org/fhir/us/qicore/StructureDefinition/qicore-encounter"]},"status":"finished","class":{"system":"http://terminology.hl7.org/CodeSystem/v3-ActCode","code":"EMER","display":"emergency"},"type":[{"coding":[{"system":"http://snomed.info/sct","code":"4525004"}]}],"subject":{"reference":"Patient/7e3bf20a-7a5b-4d50-aa34-267ab19da7b2"},"period":{"start":"2026-10-10T06:00:00+00:00","end":"2026-10-10T08:30:00+00:00"},"length":{"value":0,"unit":"days"}},"request":{"method":"PUT","url":"Encounter/a893e46f-6941-4873-bd63-9fd3b6992a96"}},{"fullUrl":"https://madie.cms.gov/Encounter/585d6449-ecae-4663-82d2-579d6dbd0161","resource":{"resourceType":"Encounter","id":"585d6449-ecae-4663-82d2-579d6dbd0161","meta":{"profile":["http://hl7.org/fhir/us/qicore/StructureDefinition/qicore-encounter"]},"status":"finished","class":{"system":"http://terminology.hl7.org/CodeSystem/v3-ActCode","code":"IMP","display":"inpatient encounter"},"type":[{"coding":[{"system":"http://snomed.info/sct","code":"32485007"}]}],"subject":{"reference":"Patient/7e3bf20a-7a5b-4d50-aa34-267ab19da7b2"},"period":{"start":"2026-10-10T09:00:00+00:00","end":"2026-10-12T11:30:00+00:00"},"length":{"value":2,"unit":"days"},"diagnosis":[{"condition":{"reference":"Condition/6068cf6c-a1fc-4da1-988c-f95418523c46"},"use":{"coding":[{"system":"http://terminology.hl7.org/CodeSystem/diagnosis-role","code":"billing","display":"Billing"}]},"rank":1}]},"request":{"method":"PUT","url":"Encounter/585d6449-ecae-4663-82d2-579d6dbd0161"}},{"fullUrl":"https://madie.cms.gov/MedicationAdministration/e7227a9f-f0b8-4aa2-a2b5-2e5a10a58663","resource":{"resourceType":"MedicationAdministration","id":"e7227a9f-f0b8-4aa2-a2b5-2e5a10a58663","meta":{"profile":["http://hl7.org/fhir/us/qicore/StructureDefinition/qicore-medicationadministration"]},"status":"completed","medicationCodeableConcept":{"coding":[{"system":"http://www.nlm.nih.gov/research/umls/rxnorm","code":"1037045"}]},"subject":{"reference":"Patient/7e3bf20a-7a5b-4d50-aa34-267ab19da7b2"},"effectivePeriod":{"start":"2026-10-11T07:00:00+00:00","end":"2026-10-11T08:20:00+00:00"}},"request":{"method":"PUT","url":"MedicationAdministration/e7227a9f-f0b8-4aa2-a2b5-2e5a10a58663"}},{"fullUrl":"https://madie.cms.gov/Coverage/b3b42b9d-62ff-4794-9289-510e512b7f63","resource":{"resourceType":"Coverage","id":"b3b42b9d-62ff-4794-9289-510e512b7f63","status":"active","beneficiary":{"reference":"Patient/7e3bf20a-7a5b-4d50-aa34-267ab19da7b2"},"period":{"start":"1976-09-26T08:00:00+00:00"},"payor":[{"reference":"Organization/e75793c9-fdf6-463a-8c1d-4ee44320dc25"}]},"request":{"method":"PUT","url":"Coverage/b3b42b9d-62ff-4794-9289-510e512b7f63"}},{"fullUrl":"https://madie.cms.gov/Condition/6068cf6c-a1fc-4da1-988c-f95418523c46","resource":{"resourceType":"Condition","id":"6068cf6c-a1fc-4da1-988c-f95418523c46","meta":{"profile":["http://hl7.org/fhir/us/qicore/StructureDefinition/qicore-condition"]},"clinicalStatus":{"coding":[{"system":"http://terminology.hl7.org/CodeSystem/condition-clinical","code":"active"}]},"verificationStatus":{"coding":[{"system":"http://terminology.hl7.org/CodeSystem/condition-ver-status","code":"confirmed"}]},"category":[{"coding":[{"system":"http://terminology.hl7.org/CodeSystem/condition-category","code":"encounter-diagnosis","display":"Encounter Diagnosis"}]}],"code":{"coding":[{"system":"http://snomed.info/sct","version":"2020-09","code":"111297002","display":"Nonparalytic stroke (disorder)","userSelected":true}]},"subject":{"reference":"Patient/7e3bf20a-7a5b-4d50-aa34-267ab19da7b2"},"recordedDate":"2026-08-16T08:00:00.000+00:00"},"request":{"method":"PUT","url":"Condition/6068cf6c-a1fc-4da1-988c-f95418523c46"}},{"fullUrl":"https://madie.cms.gov/Organization/7cc1257e-c80b-41aa-9dfc-19d47b733567","resource":{"resourceType":"Organization","id":"e75793c9-fdf6-463a-8c1d-4ee44320dc25","meta":{"profile":["http://hl7.org/fhir/us/qicore/StructureDefinition/qicore-organization"]},"identifier":[{"use":"temp","system":"urn:oid:2.16.840.1.113883.4.4","value":"21-3259825"}],"active":true,"type":[{"coding":[{"system":"http://terminology.hl7.org/CodeSystem/organization-type","code":"pay","display":"Payer"}]}],"name":"Blue Cross Blue Shield of Texas","telecom":[{"system":"phone","value":"(+1) 972-766-6900"}],"address":[{"use":"billing","type":"postal","line":["P.O. Box 660044"],"city":"Dallas","state":"TX","postalCode":"75266-0044","country":"USA"}]},"request":{"method":"PUT","url":"Organization/e75793c9-fdf6-463a-8c1d-4ee44320dc25"}},{"fullUrl":"https://madie.cms.gov/Practitioner/51b64bcd-1c27-4f07-80a5-da64ff7b605a","resource":{"resourceType":"Practitioner","id":"51b64bcd-1c27-4f07-80a5-da64ff7b605a","identifier":[{"system":"http://hl7.org/fhir/sid/us-npi","value":"123456"}],"name":[{"family":"Evil","prefix":["Dr"]}]},"request":{"method":"PUT","url":"Practitioner/51b64bcd-1c27-4f07-80a5-da64ff7b605a"}},{"fullUrl":"https://madie.cms.gov/MeasureReport/0ae1226b-5796-463a-a37c-a918723f161b","resource":{"resourceType":"MeasureReport","id":"0ae1226b-5796-463a-a37c-a918723f161b","meta":{"profile":["http://hl7.org/fhir/us/cqfmeasures/StructureDefinition/test-case-cqfm"]},"contained":[{"resourceType":"Parameters","id":"5d746a28-ea7b-4343-977d-36dd39f426a8-parameters","parameter":[{"name":"subject","valueString":"7e3bf20a-7a5b-4d50-aa34-267ab19da7b2"}]}],"extension":[{"url":"http://hl7.org/fhir/us/cqfmeasures/StructureDefinition/cqfm-inputParameters","valueReference":{"reference":"#5d746a28-ea7b-4343-977d-36dd39f426a8-parameters"}},{"url":"http://hl7.org/fhir/us/cqfmeasures/StructureDefinition/cqfm-testCaseDescription","valueMarkdown":"\"Patient receives antithrombotic in the ED. MedAntithromboticStart EQ 1day \nglobal.\"\"Hospitalization\"\" =(Ed+IP)\"\n"}],"modifierExtension":[{"url":"http://hl7.org/fhir/us/cqfmeasures/StructureDefinition/cqfm-isTestCase","valueBoolean":true}],"status":"complete","type":"individual","measure":"https://madie.cms.gov/Measure/CMS72FHIRSTKAntithromboticDay2","period":{"start":"2026-01-01","end":"2026-12-31"},"group":[{"population":[{"code":{"coding":[{"system":"http://terminology.hl7.org/CodeSystem/measure-population","code":"initial-population","display":"Initial Population"}]},"count":1},{"code":{"coding":[{"system":"http://terminology.hl7.org/CodeSystem/measure-population","code":"denominator","display":"Denominator"}]},"count":1},{"code":{"coding":[{"system":"http://terminology.hl7.org/CodeSystem/measure-population","code":"denominator-exclusion","display":"Denominator Exclusion"}]},"count":0},{"code":{"coding":[{"system":"http://terminology.hl7.org/CodeSystem/measure-population","code":"numerator","display":"Numerator"}]},"count":1},{"code":{"coding":[{"system":"http://terminology.hl7.org/CodeSystem/measure-population","code":"denominator-exception","display":"Denominator Exception"}]},"count":0}]}]},"request":{"method":"PUT","url":"MeasureReport/0ae1226b-5796-463a-a37c-a918723f161b"}}]}