{"resourceType":"Bundle","id":"tests-79a2dd53-a342-41d9-a5c9-1b565bd06fe7-bundle","type":"transaction","entry":[{"fullUrl":"https://madie.cms.gov/Patient/79a2dd53-a342-41d9-a5c9-1b565bd06fe7","resource":{"resourceType":"Patient","id":"79a2dd53-a342-41d9-a5c9-1b565bd06fe7","meta":{"profile":["http://hl7.org/fhir/us/qicore/StructureDefinition/qicore-patient"]},"text":{"status":"generated","div":"<div xmlns=\"http://www.w3.org/1999/xhtml\"><div class=\"hapiHeaderText\">ProcTPA&lt;24hrB4_ED_Test_Interval <b>DENEXPASS </b></div><table class=\"hapiPropertyTable\"><tbody><tr><td>Date of birth</td><td><span>05 April 1979</span></td></tr></tbody></table></div>"},"extension":[{"url":"http://hl7.org/fhir/us/core/StructureDefinition/us-core-race","extension":[{"url":"ombCategory","valueCoding":{"system":"urn:oid:2.16.840.1.113883.6.238","code":"2106-3","display":"White","userSelected":true}},{"url":"text","valueString":"White"}]},{"url":"http://hl7.org/fhir/us/core/StructureDefinition/us-core-ethnicity","extension":[{"url":"ombCategory","valueCoding":{"system":"urn:oid:2.16.840.1.113883.6.238","code":"2186-5","display":"Not Hispanic or Latino","userSelected":true}},{"url":"text","valueString":"Not Hispanic or Latino"}]}],"identifier":[{"type":{"coding":[{"system":"http://terminology.hl7.org/CodeSystem/v2-0203","code":"MR"}]},"system":"https://bonnie-fhir.healthit.gov/","value":"60f82c3098086b570510e2cf"}],"active":true,"name":[{"use":"usual","family":"DENEXPass","given":["ProcTPA<24hrB4_ED_Test_Interval"]}],"gender":"male","birthDate":"1980-04-05"},"request":{"method":"PUT","url":"Patient/79a2dd53-a342-41d9-a5c9-1b565bd06fe7"}},{"fullUrl":"https://madie.cms.gov/Encounter/ededc646-683b-4030-8815-c4bb0039e060","resource":{"resourceType":"Encounter","id":"ededc646-683b-4030-8815-c4bb0039e060","meta":{"profile":["http://hl7.org/fhir/us/qicore/StructureDefinition/qicore-encounter"]},"status":"finished","class":{"system":"http://terminology.hl7.org/CodeSystem/v3-ActCode","code":"IMP","display":"inpatient encounter"},"type":[{"coding":[{"system":"http://snomed.info/sct","code":"183452005"}]}],"subject":{"reference":"Patient/79a2dd53-a342-41d9-a5c9-1b565bd06fe7"},"period":{"start":"2026-03-23T08:00:00+00:00","end":"2026-03-30T07:15:00+00:00"},"diagnosis":[{"condition":{"reference":"Condition/efdf9021-0b6b-4791-a37a-6f220e5ba2b2"},"use":{"coding":[{"system":"http://terminology.hl7.org/CodeSystem/diagnosis-role","code":"billing","display":"Billing"}]},"rank":1}]},"request":{"method":"PUT","url":"Encounter/ededc646-683b-4030-8815-c4bb0039e060"}},{"fullUrl":"https://madie.cms.gov/Encounter/ae2d1745-cd20-46c1-8a8b-a03920f3e45a","resource":{"resourceType":"Encounter","id":"ae2d1745-cd20-46c1-8a8b-a03920f3e45a","meta":{"profile":["http://hl7.org/fhir/us/qicore/StructureDefinition/qicore-encounter"]},"status":"finished","class":{"system":"http://terminology.hl7.org/CodeSystem/v3-ActCode","code":"EMER","display":"emergency"},"type":[{"coding":[{"system":"http://snomed.info/sct","code":"4525004"}]}],"subject":{"reference":"Patient/79a2dd53-a342-41d9-a5c9-1b565bd06fe7"},"period":{"start":"2026-03-22T06:00:00+00:00","end":"2026-03-23T07:15:00+00:00"}},"request":{"method":"PUT","url":"Encounter/ae2d1745-cd20-46c1-8a8b-a03920f3e45a"}},{"fullUrl":"https://madie.cms.gov/MedicationAdministration/b7eb7b1e-8c42-4ea8-90f3-41bfadf837c3","resource":{"resourceType":"MedicationAdministration","id":"b7eb7b1e-8c42-4ea8-90f3-41bfadf837c3","meta":{"profile":["http://hl7.org/fhir/us/qicore/StructureDefinition/qicore-medicationadministration"]},"status":"completed","medicationCodeableConcept":{"coding":[{"system":"http://www.nlm.nih.gov/research/umls/rxnorm","code":"1804799"}]},"subject":{"reference":"Patient/79a2dd53-a342-41d9-a5c9-1b565bd06fe7"},"effectivePeriod":{"start":"2026-03-21T06:00:00+00:00","end":"2026-03-22T06:15:00+00:00"}},"request":{"method":"PUT","url":"MedicationAdministration/b7eb7b1e-8c42-4ea8-90f3-41bfadf837c3"}},{"fullUrl":"https://madie.cms.gov/MedicationRequest/7f67eb9d-aa8d-4a83-a465-1553b2d551f1","resource":{"resourceType":"MedicationRequest","id":"7f67eb9d-aa8d-4a83-a465-1553b2d551f1","meta":{"profile":["http://hl7.org/fhir/us/qicore/StructureDefinition/qicore-medicationrequest"]},"status":"completed","intent":"order","medicationCodeableConcept":{"coding":[{"system":"http://www.nlm.nih.gov/research/umls/rxnorm","code":"1037045"}]},"subject":{"reference":"Patient/79a2dd53-a342-41d9-a5c9-1b565bd06fe7"},"authoredOn":"2026-03-23T08:00:00+00:00","requester":{"reference":"Practitioner/example"},"dosageInstruction":[{"timing":{"repeat":{"boundsPeriod":{"start":"2026-03-23T08:00:00+00:00","end":"2026-03-24T07:15:00+00:00"}}}}]},"request":{"method":"PUT","url":"MedicationRequest/7f67eb9d-aa8d-4a83-a465-1553b2d551f1"}},{"fullUrl":"https://madie.cms.gov/Condition/efdf9021-0b6b-4791-a37a-6f220e5ba2b2","resource":{"resourceType":"Condition","id":"efdf9021-0b6b-4791-a37a-6f220e5ba2b2","meta":{"profile":["http://hl7.org/fhir/us/qicore/StructureDefinition/qicore-condition"]},"clinicalStatus":{"coding":[{"system":"http://terminology.hl7.org/CodeSystem/condition-clinical","code":"active"}]},"verificationStatus":{"coding":[{"system":"http://terminology.hl7.org/CodeSystem/condition-ver-status","code":"confirmed"}]},"category":[{"coding":[{"system":"http://terminology.hl7.org/CodeSystem/condition-category","code":"encounter-diagnosis","display":"Encounter Diagnosis"}]}],"code":{"coding":[{"system":"http://snomed.info/sct","version":"2020-09","code":"111297002","display":"Nonparalytic stroke (disorder)","userSelected":true}]},"subject":{"reference":"Patient/79a2dd53-a342-41d9-a5c9-1b565bd06fe7"},"recordedDate":"2026-08-13T08:00:00.000+00:00"},"request":{"method":"PUT","url":"Condition/efdf9021-0b6b-4791-a37a-6f220e5ba2b2"}},{"fullUrl":"https://madie.cms.gov/Coverage/8e1e8e1b-39d0-4af0-9510-989196da8df4","resource":{"resourceType":"Coverage","id":"8e1e8e1b-39d0-4af0-9510-989196da8df4","meta":{"profile":["http://hl7.org/fhir/us/qicore/StructureDefinition/qicore-coverage"]},"status":"active","beneficiary":{"reference":"Patient/79a2dd53-a342-41d9-a5c9-1b565bd06fe7"},"payor":[{"reference":"Organization/880a275e-1cf2-4fb9-869b-f1d2173fdc2b"}]},"request":{"method":"PUT","url":"Coverage/8e1e8e1b-39d0-4af0-9510-989196da8df4"}},{"fullUrl":"https://madie.cms.gov/Organization/fa2a2cb2-387a-4513-913e-fbe9c81697fa","resource":{"resourceType":"Organization","id":"880a275e-1cf2-4fb9-869b-f1d2173fdc2b","meta":{"profile":["http://hl7.org/fhir/us/qicore/StructureDefinition/qicore-organization"]},"identifier":[{"use":"temp","system":"urn:oid:2.16.840.1.113883.4.4","value":"21-3259825"}],"active":true,"type":[{"coding":[{"system":"http://terminology.hl7.org/CodeSystem/organization-type","code":"pay","display":"Payer"}]}],"name":"Blue Cross Blue Shield of Texas","telecom":[{"system":"phone","value":"(+1) 972-766-6900"}],"address":[{"use":"billing","type":"postal","line":["P.O. Box 660044"],"city":"Dallas","state":"TX","postalCode":"75266-0044","country":"USA"}]},"request":{"method":"PUT","url":"Organization/880a275e-1cf2-4fb9-869b-f1d2173fdc2b"}},{"fullUrl":"https://madie.cms.gov/MeasureReport/364818ec-4e04-46ca-9af0-0c7ac729a938","resource":{"resourceType":"MeasureReport","id":"364818ec-4e04-46ca-9af0-0c7ac729a938","meta":{"profile":["http://hl7.org/fhir/us/cqfmeasures/StructureDefinition/test-case-cqfm"]},"contained":[{"resourceType":"Parameters","id":"7c7618d0-df04-499c-a0f6-373f9a556a58-parameters","parameter":[{"name":"subject","valueString":"79a2dd53-a342-41d9-a5c9-1b565bd06fe7"}]}],"extension":[{"url":"http://hl7.org/fhir/us/cqfmeasures/StructureDefinition/cqfm-inputParameters","valueReference":{"reference":"#7c7618d0-df04-499c-a0f6-373f9a556a58-parameters"}},{"url":"http://hl7.org/fhir/us/cqfmeasures/StructureDefinition/cqfm-testCaseDescription","valueMarkdown":"Testing Interval function to determine if the timing of the TPA has an affect of passing the denominator exclusion. Based on 2020 AU issue ticket 2161. Any time before hospitalization starts does not meet the exclusion. \n"}],"modifierExtension":[{"url":"http://hl7.org/fhir/us/cqfmeasures/StructureDefinition/cqfm-isTestCase","valueBoolean":true}],"status":"complete","type":"individual","measure":"https://madie.cms.gov/Measure/CMS72FHIRSTKAntithromboticDay2","period":{"start":"2026-01-01","end":"2026-12-31"},"group":[{"population":[{"code":{"coding":[{"system":"http://terminology.hl7.org/CodeSystem/measure-population","code":"initial-population","display":"Initial Population"}]},"count":1},{"code":{"coding":[{"system":"http://terminology.hl7.org/CodeSystem/measure-population","code":"denominator","display":"Denominator"}]},"count":1},{"code":{"coding":[{"system":"http://terminology.hl7.org/CodeSystem/measure-population","code":"denominator-exclusion","display":"Denominator Exclusion"}]},"count":1},{"code":{"coding":[{"system":"http://terminology.hl7.org/CodeSystem/measure-population","code":"numerator","display":"Numerator"}]},"count":0},{"code":{"coding":[{"system":"http://terminology.hl7.org/CodeSystem/measure-population","code":"denominator-exception","display":"Denominator Exception"}]},"count":0}]}]},"request":{"method":"PUT","url":"MeasureReport/364818ec-4e04-46ca-9af0-0c7ac729a938"}}]}