{"resourceType":"Bundle","id":"tests-205bc592-1309-48f1-a8f7-5d4dc03d8430-bundle","type":"transaction","entry":[{"fullUrl":"https://madie.cms.gov/Patient/205bc592-1309-48f1-a8f7-5d4dc03d8430","resource":{"resourceType":"Patient","id":"205bc592-1309-48f1-a8f7-5d4dc03d8430","meta":{"profile":["http://hl7.org/fhir/us/qicore/StructureDefinition/qicore-patient"]},"text":{"status":"generated","div":"<div xmlns=\"http://www.w3.org/1999/xhtml\"><div class=\"hapiHeaderText\">Age=18DayB4Admission <b>IPPPASS </b></div><table class=\"hapiPropertyTable\"><tbody><tr><td>Identifier</td><td>d5a0c954ca768b9b347de0914f6191a5</td></tr><tr><td>Date of birth</td><td><span>20 August 1994</span></td></tr></tbody></table></div>"},"extension":[{"url":"http://hl7.org/fhir/us/core/StructureDefinition/us-core-race","extension":[{"url":"ombCategory","valueCoding":{"system":"urn:oid:2.16.840.1.113883.6.238","code":"1002-5","display":"American Indian or Alaska Native","userSelected":true}},{"url":"text","valueString":"American Indian or Alaska Native"}]},{"url":"http://hl7.org/fhir/us/core/StructureDefinition/us-core-ethnicity","extension":[{"url":"ombCategory","valueCoding":{"system":"urn:oid:2.16.840.1.113883.6.238","code":"2186-5","display":"Not Hispanic or Latino","userSelected":true}},{"url":"text","valueString":"Not Hispanic or Latino"}]}],"identifier":[{"type":{"coding":[{"system":"http://terminology.hl7.org/CodeSystem/v2-0203","code":"MR"}]},"system":"https://bonnie-fhir.healthit.gov/","value":"60f82c2d98086b570510e253"}],"active":true,"name":[{"use":"usual","family":"IPPPass","given":["Age=18DayB4Admission"]}],"gender":"male","birthDate":"2007-08-20"},"request":{"method":"PUT","url":"Patient/205bc592-1309-48f1-a8f7-5d4dc03d8430"}},{"fullUrl":"https://madie.cms.gov/Encounter/ad7a4d7d-aabf-4d69-a5eb-d980d3fc142d","resource":{"resourceType":"Encounter","id":"ad7a4d7d-aabf-4d69-a5eb-d980d3fc142d","meta":{"profile":["http://hl7.org/fhir/us/qicore/StructureDefinition/qicore-encounter"]},"status":"finished","class":{"system":"http://terminology.hl7.org/CodeSystem/v3-ActCode","code":"IMP","display":"inpatient encounter"},"type":[{"coding":[{"system":"http://snomed.info/sct","code":"32485007"}]}],"subject":{"reference":"Patient/205bc592-1309-48f1-a8f7-5d4dc03d8430"},"period":{"start":"2026-08-21T00:00:00+00:00","end":"2026-12-19T08:15:00+00:00"},"length":{"value":120,"unit":"days"},"diagnosis":[{"condition":{"reference":"Condition/dcf40ef2-b9e8-4af3-84e7-a99c5a83a93e"},"use":{"coding":[{"system":"http://terminology.hl7.org/CodeSystem/diagnosis-role","code":"billing","display":"Billing"}]},"rank":1}]},"request":{"method":"PUT","url":"Encounter/ad7a4d7d-aabf-4d69-a5eb-d980d3fc142d"}},{"fullUrl":"https://madie.cms.gov/Coverage/8230dcf1-6d83-47a6-9523-63b3bba82728","resource":{"resourceType":"Coverage","id":"8230dcf1-6d83-47a6-9523-63b3bba82728","status":"active","beneficiary":{"reference":"Patient/205bc592-1309-48f1-a8f7-5d4dc03d8430"},"period":{"start":"1995-08-20T08:00:00+00:00"},"payor":[{"reference":"Organization/80e3e0d1-b2aa-43a6-b1d2-00bfa3164a0f"}]},"request":{"method":"PUT","url":"Coverage/8230dcf1-6d83-47a6-9523-63b3bba82728"}},{"fullUrl":"https://madie.cms.gov/Condition/dcf40ef2-b9e8-4af3-84e7-a99c5a83a93e","resource":{"resourceType":"Condition","id":"dcf40ef2-b9e8-4af3-84e7-a99c5a83a93e","meta":{"profile":["http://hl7.org/fhir/us/qicore/StructureDefinition/qicore-condition"]},"clinicalStatus":{"coding":[{"system":"http://terminology.hl7.org/CodeSystem/condition-clinical","code":"active"}]},"verificationStatus":{"coding":[{"system":"http://terminology.hl7.org/CodeSystem/condition-ver-status","code":"confirmed"}]},"category":[{"coding":[{"system":"http://terminology.hl7.org/CodeSystem/condition-category","code":"encounter-diagnosis","display":"Encounter Diagnosis"}]}],"code":{"coding":[{"system":"http://snomed.info/sct","version":"2020-09","code":"111297002","display":"Nonparalytic stroke (disorder)","userSelected":true}]},"subject":{"reference":"Patient/205bc592-1309-48f1-a8f7-5d4dc03d8430"},"recordedDate":"2026-08-16T08:00:00.000+00:00"},"request":{"method":"PUT","url":"Condition/dcf40ef2-b9e8-4af3-84e7-a99c5a83a93e"}},{"fullUrl":"https://madie.cms.gov/Organization/80744be4-f82e-4eb2-87ac-f201bbafde18","resource":{"resourceType":"Organization","id":"80e3e0d1-b2aa-43a6-b1d2-00bfa3164a0f","meta":{"profile":["http://hl7.org/fhir/us/qicore/StructureDefinition/qicore-organization"]},"identifier":[{"use":"temp","system":"urn:oid:2.16.840.1.113883.4.4","value":"21-3259825"}],"active":true,"type":[{"coding":[{"system":"http://terminology.hl7.org/CodeSystem/organization-type","code":"pay","display":"Payer"}]}],"name":"Blue Cross Blue Shield of Texas","telecom":[{"system":"phone","value":"(+1) 972-766-6900"}],"address":[{"use":"billing","type":"postal","line":["P.O. Box 660044"],"city":"Dallas","state":"TX","postalCode":"75266-0044","country":"USA"}]},"request":{"method":"PUT","url":"Organization/80e3e0d1-b2aa-43a6-b1d2-00bfa3164a0f"}},{"fullUrl":"https://madie.cms.gov/Practitioner/6578472d-f544-4ee1-8e57-5b79dd7e060e","resource":{"resourceType":"Practitioner","id":"6578472d-f544-4ee1-8e57-5b79dd7e060e","identifier":[{"system":"http://hl7.org/fhir/sid/us-npi","value":"123456"}],"name":[{"family":"Evil","prefix":["Dr"]}]},"request":{"method":"PUT","url":"Practitioner/6578472d-f544-4ee1-8e57-5b79dd7e060e"}},{"fullUrl":"https://madie.cms.gov/MeasureReport/850d1570-a471-4a3d-910c-843cb465b994","resource":{"resourceType":"MeasureReport","id":"850d1570-a471-4a3d-910c-843cb465b994","meta":{"profile":["http://hl7.org/fhir/us/cqfmeasures/StructureDefinition/test-case-cqfm"]},"contained":[{"resourceType":"Parameters","id":"259f6415-4ab8-4991-a011-6ff0c45289d7-parameters","parameter":[{"name":"subject","valueString":"205bc592-1309-48f1-a8f7-5d4dc03d8430"}]}],"extension":[{"url":"http://hl7.org/fhir/us/cqfmeasures/StructureDefinition/cqfm-inputParameters","valueReference":{"reference":"#259f6415-4ab8-4991-a011-6ff0c45289d7-parameters"}},{"url":"http://hl7.org/fhir/us/cqfmeasures/StructureDefinition/cqfm-testCaseDescription","valueMarkdown":"Patient turns 18 day before admission  18DayB4Admission\n"}],"modifierExtension":[{"url":"http://hl7.org/fhir/us/cqfmeasures/StructureDefinition/cqfm-isTestCase","valueBoolean":true}],"status":"complete","type":"individual","measure":"https://madie.cms.gov/Measure/CMS72FHIRSTKAntithromboticDay2","period":{"start":"2026-01-01","end":"2026-12-31"},"group":[{"population":[{"code":{"coding":[{"system":"http://terminology.hl7.org/CodeSystem/measure-population","code":"initial-population","display":"Initial Population"}]},"count":1},{"code":{"coding":[{"system":"http://terminology.hl7.org/CodeSystem/measure-population","code":"denominator","display":"Denominator"}]},"count":1},{"code":{"coding":[{"system":"http://terminology.hl7.org/CodeSystem/measure-population","code":"denominator-exclusion","display":"Denominator Exclusion"}]},"count":0},{"code":{"coding":[{"system":"http://terminology.hl7.org/CodeSystem/measure-population","code":"numerator","display":"Numerator"}]},"count":0},{"code":{"coding":[{"system":"http://terminology.hl7.org/CodeSystem/measure-population","code":"denominator-exception","display":"Denominator Exception"}]},"count":0}]}]},"request":{"method":"PUT","url":"MeasureReport/850d1570-a471-4a3d-910c-843cb465b994"}}]}