{"resourceType":"Bundle","id":"tests-0dde3070-5a99-4be7-94d1-1a7161a7787b-bundle","type":"transaction","entry":[{"fullUrl":"https://madie.cms.gov/Patient/0dde3070-5a99-4be7-94d1-1a7161a7787b","resource":{"resourceType":"Patient","id":"0dde3070-5a99-4be7-94d1-1a7161a7787b","meta":{"profile":["http://hl7.org/fhir/us/qicore/StructureDefinition/qicore-patient"]},"text":{"status":"generated","div":"<div xmlns=\"http://www.w3.org/1999/xhtml\"><div class=\"hapiHeaderText\">NoEncounter <b>IPPFAIL </b></div><table class=\"hapiPropertyTable\"><tbody><tr><td>Identifier</td><td>a67f7fb68219fced7208c268b4a73a22</td></tr><tr><td>Date of birth</td><td><span>21 August 1993</span></td></tr></tbody></table></div>"},"extension":[{"url":"http://hl7.org/fhir/us/core/StructureDefinition/us-core-race","extension":[{"url":"ombCategory","valueCoding":{"system":"urn:oid:2.16.840.1.113883.6.238","code":"1002-5","display":"American Indian or Alaska Native","userSelected":true}},{"url":"detailed","valueCoding":{"system":"urn:oid:2.16.840.1.113883.6.238","code":"2036-2","display":"Filipino"}},{"url":"text","valueString":"American Indian or Alaska Native"}]},{"url":"http://hl7.org/fhir/us/core/StructureDefinition/us-core-ethnicity","extension":[{"url":"ombCategory","valueCoding":{"system":"urn:oid:2.16.840.1.113883.6.238","code":"2186-5","display":"Not Hispanic or Latino","userSelected":true}},{"url":"text","valueString":"Not Hispanic or Latino"},{"url":"detailed","valueCoding":{"system":"urn:oid:2.16.840.1.113883.6.238","code":"2153-5","display":"Mexican American Indian"}}]}],"identifier":[{"type":{"coding":[{"system":"http://terminology.hl7.org/CodeSystem/v2-0203","code":"MR"}]},"system":"https://bonnie-fhir.healthit.gov/","value":"60f82c2d98086b570510e24e"}],"active":true,"name":[{"use":"usual","family":"IPPFail","given":["NoEncounter"]}],"gender":"male","birthDate":"1994-08-21"},"request":{"method":"PUT","url":"Patient/0dde3070-5a99-4be7-94d1-1a7161a7787b"}},{"fullUrl":"https://madie.cms.gov/Coverage/8f2b5235-c068-4d9f-bb83-017372945bf6","resource":{"resourceType":"Coverage","id":"8f2b5235-c068-4d9f-bb83-017372945bf6","status":"active","beneficiary":{"reference":"Patient/0dde3070-5a99-4be7-94d1-1a7161a7787b"},"period":{"start":"1994-08-21T08:00:00+00:00"},"payor":[{"reference":"Organization/aeb2c6be-6577-4bba-a6b6-6eab95111f1b"}]},"request":{"method":"PUT","url":"Coverage/8f2b5235-c068-4d9f-bb83-017372945bf6"}},{"fullUrl":"https://madie.cms.gov/Organization/3ae49619-b7ce-49ae-a7da-a37260574f4c","resource":{"resourceType":"Organization","id":"aeb2c6be-6577-4bba-a6b6-6eab95111f1b","meta":{"profile":["http://hl7.org/fhir/us/qicore/StructureDefinition/qicore-organization"]},"identifier":[{"use":"temp","system":"urn:oid:2.16.840.1.113883.4.4","value":"21-3259825"}],"active":true,"type":[{"coding":[{"system":"http://terminology.hl7.org/CodeSystem/organization-type","code":"pay","display":"Payer"}]}],"name":"Blue Cross Blue Shield of Texas","telecom":[{"system":"phone","value":"(+1) 972-766-6900"}],"address":[{"use":"billing","type":"postal","line":["P.O. Box 660044"],"city":"Dallas","state":"TX","postalCode":"75266-0044","country":"USA"}]},"request":{"method":"PUT","url":"Organization/aeb2c6be-6577-4bba-a6b6-6eab95111f1b"}},{"fullUrl":"https://madie.cms.gov/Practitioner/de39d48f-94dc-439d-924f-749c02659bdf","resource":{"resourceType":"Practitioner","id":"de39d48f-94dc-439d-924f-749c02659bdf","identifier":[{"system":"http://hl7.org/fhir/sid/us-npi","value":"123456"}],"name":[{"family":"Evil","prefix":["Dr"]}]},"request":{"method":"PUT","url":"Practitioner/de39d48f-94dc-439d-924f-749c02659bdf"}},{"fullUrl":"https://madie.cms.gov/MeasureReport/cee48cf4-2e84-4d98-ad61-1098b5f45c33","resource":{"resourceType":"MeasureReport","id":"cee48cf4-2e84-4d98-ad61-1098b5f45c33","meta":{"profile":["http://hl7.org/fhir/us/cqfmeasures/StructureDefinition/test-case-cqfm"]},"contained":[{"resourceType":"Parameters","id":"9d8a6400-8ff3-4a9c-9f44-2e94451a9a7c-parameters","parameter":[{"name":"subject","valueString":"0dde3070-5a99-4be7-94d1-1a7161a7787b"}]}],"extension":[{"url":"http://hl7.org/fhir/us/cqfmeasures/StructureDefinition/cqfm-inputParameters","valueReference":{"reference":"#9d8a6400-8ff3-4a9c-9f44-2e94451a9a7c-parameters"}},{"url":"http://hl7.org/fhir/us/cqfmeasures/StructureDefinition/cqfm-testCaseDescription","valueMarkdown":"Patient is 19 with no Encounter Inpatient\n"}],"modifierExtension":[{"url":"http://hl7.org/fhir/us/cqfmeasures/StructureDefinition/cqfm-isTestCase","valueBoolean":true}],"status":"complete","type":"individual","measure":"https://madie.cms.gov/Measure/CMS72FHIRSTKAntithromboticDay2","period":{"start":"2026-01-01","end":"2026-12-31"},"group":[{"population":[{"code":{"coding":[{"system":"http://terminology.hl7.org/CodeSystem/measure-population","code":"initial-population","display":"Initial Population"}]},"count":0},{"code":{"coding":[{"system":"http://terminology.hl7.org/CodeSystem/measure-population","code":"denominator","display":"Denominator"}]},"count":0},{"code":{"coding":[{"system":"http://terminology.hl7.org/CodeSystem/measure-population","code":"denominator-exclusion","display":"Denominator Exclusion"}]},"count":0},{"code":{"coding":[{"system":"http://terminology.hl7.org/CodeSystem/measure-population","code":"numerator","display":"Numerator"}]},"count":0},{"code":{"coding":[{"system":"http://terminology.hl7.org/CodeSystem/measure-population","code":"denominator-exception","display":"Denominator Exception"}]},"count":0}]}]},"request":{"method":"PUT","url":"MeasureReport/cee48cf4-2e84-4d98-ad61-1098b5f45c33"}}]}