{"resourceType":"Bundle","id":"tests-dce7a5ea-accf-4d47-acee-26bbf654eb56-bundle","type":"transaction","entry":[{"fullUrl":"https://madie.cms.gov/Patient/dce7a5ea-accf-4d47-acee-26bbf654eb56","resource":{"resourceType":"Patient","id":"dce7a5ea-accf-4d47-acee-26bbf654eb56","meta":{"profile":["http://hl7.org/fhir/us/qicore/StructureDefinition/qicore-patient"]},"text":{"status":"generated","div":"<div xmlns=\"http://www.w3.org/1999/xhtml\"><div class=\"hapiHeaderText\">CMP_DayOf_RelvPerStart_OnEDStart_EDEndLT1hrB4Obs_ObsEndLT1hrB4IP <b>DENEXPASS </b></div><table class=\"hapiPropertyTable\"><tbody><tr><td>Date of birth</td><td><span>01 January 1980</span></td></tr></tbody></table></div>"},"extension":[{"url":"http://hl7.org/fhir/us/core/StructureDefinition/us-core-race","extension":[{"url":"ombCategory","valueCoding":{"system":"urn:oid:2.16.840.1.113883.6.238","code":"2106-3","display":"White","userSelected":true}},{"url":"text","valueString":"White"}]},{"url":"http://hl7.org/fhir/us/core/StructureDefinition/us-core-ethnicity","extension":[{"url":"ombCategory","valueCoding":{"system":"urn:oid:2.16.840.1.113883.6.238","code":"2186-5","display":"Not Hispanic or Latino","userSelected":true}},{"url":"text","valueString":"Not Hispanic or Latino"}]}],"identifier":[{"type":{"coding":[{"system":"http://terminology.hl7.org/CodeSystem/v2-0203","code":"MR"}]},"system":"https://bonnie-fhir.healthit.gov/","value":"60f82c3098086b570510e2e4"}],"active":true,"name":[{"use":"usual","family":"DENEXPass","given":["CMP_DayOf_RelvPerStart_OnEDStart_EDEndLT1hrB4Obs_ObsEndLT1hrB4IP"]}],"gender":"female","birthDate":"1981-01-01"},"request":{"method":"PUT","url":"Patient/dce7a5ea-accf-4d47-acee-26bbf654eb56"}},{"fullUrl":"https://madie.cms.gov/Encounter/28ab65f6-b245-48f1-bdfb-0e74429080e5","resource":{"resourceType":"Encounter","id":"28ab65f6-b245-48f1-bdfb-0e74429080e5","meta":{"profile":["http://hl7.org/fhir/us/qicore/StructureDefinition/qicore-encounter"]},"status":"finished","class":{"system":"http://terminology.hl7.org/CodeSystem/v3-ActCode","code":"EMER","display":"emergency"},"type":[{"coding":[{"system":"http://snomed.info/sct","code":"4525004"}]}],"subject":{"reference":"Patient/dce7a5ea-accf-4d47-acee-26bbf654eb56"},"period":{"start":"2026-11-18T07:00:00+00:00","end":"2026-11-18T08:01:00+00:00"},"diagnosis":[{"condition":{"reference":"Condition/ae321ca5-44c6-41fd-843a-87fcde469d5a"},"use":{"coding":[{"system":"http://terminology.hl7.org/CodeSystem/diagnosis-role","code":"billing","display":"Billing"}]},"rank":1}]},"request":{"method":"PUT","url":"Encounter/28ab65f6-b245-48f1-bdfb-0e74429080e5"}},{"fullUrl":"https://madie.cms.gov/Encounter/c6d3cf79-442f-40a0-a05d-fea1cc0d294d","resource":{"resourceType":"Encounter","id":"c6d3cf79-442f-40a0-a05d-fea1cc0d294d","meta":{"profile":["http://hl7.org/fhir/us/qicore/StructureDefinition/qicore-encounter"]},"status":"finished","class":{"system":"http://terminology.hl7.org/CodeSystem/v3-ActCode","code":"OBSENC","display":"observation encounter"},"type":[{"coding":[{"system":"http://snomed.info/sct","code":"448951000124107"}]}],"subject":{"reference":"Patient/dce7a5ea-accf-4d47-acee-26bbf654eb56"},"period":{"start":"2026-11-18T09:00:00+00:00","end":"2026-11-18T10:01:00+00:00"}},"request":{"method":"PUT","url":"Encounter/c6d3cf79-442f-40a0-a05d-fea1cc0d294d"}},{"fullUrl":"https://madie.cms.gov/Encounter/85a4253c-6629-4da3-94ad-6c7a38365774","resource":{"resourceType":"Encounter","id":"85a4253c-6629-4da3-94ad-6c7a38365774","meta":{"profile":["http://hl7.org/fhir/us/qicore/StructureDefinition/qicore-encounter"]},"status":"finished","class":{"system":"http://terminology.hl7.org/CodeSystem/v3-ActCode","code":"IMP","display":"inpatient encounter"},"type":[{"coding":[{"system":"http://snomed.info/sct","code":"183452005"}]}],"subject":{"reference":"Patient/dce7a5ea-accf-4d47-acee-26bbf654eb56"},"period":{"start":"2026-11-18T11:00:00+00:00","end":"2026-11-20T08:15:00+00:00"},"diagnosis":[{"condition":{"reference":"Condition/ae321ca5-44c6-41fd-843a-87fcde469d5a"},"use":{"coding":[{"system":"http://terminology.hl7.org/CodeSystem/diagnosis-role","code":"billing","display":"Billing"}]},"rank":1}]},"request":{"method":"PUT","url":"Encounter/85a4253c-6629-4da3-94ad-6c7a38365774"}},{"fullUrl":"https://madie.cms.gov/Procedure/d3d923e5-cd93-44a2-947e-eaceec946a81","resource":{"resourceType":"Procedure","id":"d3d923e5-cd93-44a2-947e-eaceec946a81","meta":{"profile":["http://hl7.org/fhir/us/qicore/StructureDefinition/qicore-procedure"]},"extension":[{"url":"http://hl7.org/fhir/us/qicore/StructureDefinition/qicore-recorded","valueDateTime":"2026-11-19T09:35:00-04:00"}],"status":"completed","code":{"coding":[{"system":"http://snomed.info/sct","code":"133918004"}]},"subject":{"reference":"Patient/dce7a5ea-accf-4d47-acee-26bbf654eb56"},"performedPeriod":{"start":"2026-11-18T07:00:00+00:00","end":"2026-11-18T08:01:00+00:00"}},"request":{"method":"PUT","url":"Procedure/d3d923e5-cd93-44a2-947e-eaceec946a81"}},{"fullUrl":"https://madie.cms.gov/Condition/ae321ca5-44c6-41fd-843a-87fcde469d5a","resource":{"resourceType":"Condition","id":"ae321ca5-44c6-41fd-843a-87fcde469d5a","meta":{"profile":["http://hl7.org/fhir/us/qicore/StructureDefinition/qicore-condition"]},"clinicalStatus":{"coding":[{"system":"http://terminology.hl7.org/CodeSystem/condition-clinical","code":"active"}]},"verificationStatus":{"coding":[{"system":"http://terminology.hl7.org/CodeSystem/condition-ver-status","code":"confirmed"}]},"category":[{"coding":[{"system":"http://terminology.hl7.org/CodeSystem/condition-category","code":"encounter-diagnosis","display":"Encounter Diagnosis"}]}],"code":{"coding":[{"system":"http://snomed.info/sct","version":"2020-09","code":"111297002","display":"Nonparalytic stroke (disorder)","userSelected":true}]},"subject":{"reference":"Patient/dce7a5ea-accf-4d47-acee-26bbf654eb56"},"recordedDate":"2026-08-13T08:00:00.000+00:00"},"request":{"method":"PUT","url":"Condition/ae321ca5-44c6-41fd-843a-87fcde469d5a"}},{"fullUrl":"https://madie.cms.gov/Coverage/5fe6cfe2-6c9c-4527-94d8-5da306facd9a","resource":{"resourceType":"Coverage","id":"5fe6cfe2-6c9c-4527-94d8-5da306facd9a","meta":{"profile":["http://hl7.org/fhir/us/qicore/StructureDefinition/qicore-coverage"]},"status":"active","beneficiary":{"reference":"Patient/dce7a5ea-accf-4d47-acee-26bbf654eb56"},"payor":[{"reference":"Organization/4da248b0-6e59-49b7-b80e-338aa21d299f"}]},"request":{"method":"PUT","url":"Coverage/5fe6cfe2-6c9c-4527-94d8-5da306facd9a"}},{"fullUrl":"https://madie.cms.gov/Organization/9b78d9f6-c9cd-4de7-9c36-d1cb945f206c","resource":{"resourceType":"Organization","id":"4da248b0-6e59-49b7-b80e-338aa21d299f","meta":{"profile":["http://hl7.org/fhir/us/qicore/StructureDefinition/qicore-organization"]},"identifier":[{"use":"temp","system":"urn:oid:2.16.840.1.113883.4.4","value":"21-3259825"}],"active":true,"type":[{"coding":[{"system":"http://terminology.hl7.org/CodeSystem/organization-type","code":"pay","display":"Payer"}]}],"name":"Blue Cross Blue Shield of Texas","telecom":[{"system":"phone","value":"(+1) 972-766-6900"}],"address":[{"use":"billing","type":"postal","line":["P.O. Box 660044"],"city":"Dallas","state":"TX","postalCode":"75266-0044","country":"USA"}]},"request":{"method":"PUT","url":"Organization/4da248b0-6e59-49b7-b80e-338aa21d299f"}},{"fullUrl":"https://madie.cms.gov/MeasureReport/8dc07d8e-3593-41cd-be86-3f1403f24d6a","resource":{"resourceType":"MeasureReport","id":"8dc07d8e-3593-41cd-be86-3f1403f24d6a","meta":{"profile":["http://hl7.org/fhir/us/cqfmeasures/StructureDefinition/test-case-cqfm"]},"contained":[{"resourceType":"Parameters","id":"ef6c8c5a-752d-4904-99b5-63d399874074-parameters","parameter":[{"name":"subject","valueString":"dce7a5ea-accf-4d47-acee-26bbf654eb56"}]}],"extension":[{"url":"http://hl7.org/fhir/us/cqfmeasures/StructureDefinition/cqfm-inputParameters","valueReference":{"reference":"#ef6c8c5a-752d-4904-99b5-63d399874074-parameters"}},{"url":"http://hl7.org/fhir/us/cqfmeasures/StructureDefinition/cqfm-testCaseDescription","valueMarkdown":"Patient receives comfort measures performed on the day of hospital arrival, on the start of the ED start. ED ends less than 1 hour before Obs Start, Obs ends less than 1 hour before IP start.\n"}],"modifierExtension":[{"url":"http://hl7.org/fhir/us/cqfmeasures/StructureDefinition/cqfm-isTestCase","valueBoolean":true}],"status":"complete","type":"individual","measure":"https://madie.cms.gov/Measure/CMS72FHIRSTKAntithromboticDay2","period":{"start":"2026-01-01","end":"2026-12-31"},"group":[{"population":[{"code":{"coding":[{"system":"http://terminology.hl7.org/CodeSystem/measure-population","code":"initial-population","display":"Initial Population"}]},"count":1},{"code":{"coding":[{"system":"http://terminology.hl7.org/CodeSystem/measure-population","code":"denominator","display":"Denominator"}]},"count":1},{"code":{"coding":[{"system":"http://terminology.hl7.org/CodeSystem/measure-population","code":"denominator-exclusion","display":"Denominator Exclusion"}]},"count":1},{"code":{"coding":[{"system":"http://terminology.hl7.org/CodeSystem/measure-population","code":"numerator","display":"Numerator"}]},"count":0},{"code":{"coding":[{"system":"http://terminology.hl7.org/CodeSystem/measure-population","code":"denominator-exception","display":"Denominator Exception"}]},"count":0}]}]},"request":{"method":"PUT","url":"MeasureReport/8dc07d8e-3593-41cd-be86-3f1403f24d6a"}}]}