{"resourceType":"Bundle","id":"tests-d8ca26ff-f3dd-42e7-ab8c-17647582f5bb-bundle","type":"transaction","entry":[{"fullUrl":"https://madie.cms.gov/Patient/d8ca26ff-f3dd-42e7-ab8c-17647582f5bb","resource":{"resourceType":"Patient","id":"d8ca26ff-f3dd-42e7-ab8c-17647582f5bb","meta":{"profile":["http://hl7.org/fhir/us/qicore/StructureDefinition/qicore-patient"]},"text":{"status":"generated","div":"<div xmlns=\"http://www.w3.org/1999/xhtml\"><div class=\"hapiHeaderText\">EncEndsAfterMP <b>IPPFAIL </b></div><table class=\"hapiPropertyTable\"><tbody><tr><td>Identifier</td><td>247228d5a32cd9e233fcfcbc78ae54f7</td></tr><tr><td>Date of birth</td><td><span>21 August 1994</span></td></tr></tbody></table></div>"},"extension":[{"url":"http://hl7.org/fhir/us/core/StructureDefinition/us-core-race","extension":[{"url":"ombCategory","valueCoding":{"system":"urn:oid:2.16.840.1.113883.6.238","code":"1002-5","display":"American Indian or Alaska Native","userSelected":true}},{"url":"text","valueString":"American Indian or Alaska Native"}]},{"url":"http://hl7.org/fhir/us/core/StructureDefinition/us-core-ethnicity","extension":[{"url":"ombCategory","valueCoding":{"system":"urn:oid:2.16.840.1.113883.6.238","code":"2186-5","display":"Not Hispanic or Latino","userSelected":true}},{"url":"text","valueString":"Not Hispanic or Latino"}]}],"identifier":[{"type":{"coding":[{"system":"http://terminology.hl7.org/CodeSystem/v2-0203","code":"MR"}]},"system":"https://bonnie-fhir.healthit.gov/","value":"60f82c2d98086b570510e252"}],"active":true,"name":[{"use":"usual","family":"IPPFail","given":["EncEndsAfterMP"]}],"gender":"male","birthDate":"1995-08-21"},"request":{"method":"PUT","url":"Patient/d8ca26ff-f3dd-42e7-ab8c-17647582f5bb"}},{"fullUrl":"https://madie.cms.gov/Encounter/399e2dc0-7c5c-4073-9839-933bd9a6fe07","resource":{"resourceType":"Encounter","id":"399e2dc0-7c5c-4073-9839-933bd9a6fe07","meta":{"profile":["http://hl7.org/fhir/us/qicore/StructureDefinition/qicore-encounter"]},"status":"finished","class":{"system":"http://terminology.hl7.org/CodeSystem/v3-ActCode","code":"IMP","display":"inpatient encounter"},"type":[{"coding":[{"system":"http://snomed.info/sct","code":"32485007"}]}],"subject":{"reference":"Patient/d8ca26ff-f3dd-42e7-ab8c-17647582f5bb"},"period":{"start":"2026-12-20T09:30:00+00:00","end":"2027-01-01T00:00:00+00:00"},"length":{"value":12,"unit":"days"},"diagnosis":[{"condition":{"reference":"Condition/6fc280dd-6960-465f-9d03-0302ba36691f"},"use":{"coding":[{"system":"http://snomed.info/sct","code":"111297002","display":"Ischemic Stroke"}]},"rank":1}]},"request":{"method":"PUT","url":"Encounter/399e2dc0-7c5c-4073-9839-933bd9a6fe07"}},{"fullUrl":"https://madie.cms.gov/Coverage/e1de7682-91c0-43db-af7e-765bc12f058a","resource":{"resourceType":"Coverage","id":"e1de7682-91c0-43db-af7e-765bc12f058a","status":"active","beneficiary":{"reference":"Patient/d8ca26ff-f3dd-42e7-ab8c-17647582f5bb"},"period":{"start":"1995-08-21T08:00:00+00:00"},"payor":[{"reference":"Organization/aeb2c6be-6577-4bba-a6b6-6eab95111f1b"}]},"request":{"method":"PUT","url":"Coverage/e1de7682-91c0-43db-af7e-765bc12f058a"}},{"fullUrl":"https://madie.cms.gov/Condition/6fc280dd-6960-465f-9d03-0302ba36691f","resource":{"resourceType":"Condition","id":"6fc280dd-6960-465f-9d03-0302ba36691f","meta":{"profile":["http://hl7.org/fhir/us/qicore/StructureDefinition/qicore-condition"]},"clinicalStatus":{"coding":[{"system":"http://terminology.hl7.org/CodeSystem/condition-clinical","code":"active"}]},"verificationStatus":{"coding":[{"system":"http://terminology.hl7.org/CodeSystem/condition-ver-status","code":"confirmed"}]},"category":[{"coding":[{"system":"http://terminology.hl7.org/CodeSystem/condition-category","code":"encounter-diagnosis","display":"Encounter Diagnosis"}]}],"code":{"coding":[{"system":"http://snomed.info/sct","version":"2020-09","code":"111297002","display":"Nonparalytic stroke (disorder)","userSelected":true}]},"subject":{"reference":"Patient/d8ca26ff-f3dd-42e7-ab8c-17647582f5bb"},"recordedDate":"2026-08-16T08:00:00.000+00:00"},"request":{"method":"PUT","url":"Condition/6fc280dd-6960-465f-9d03-0302ba36691f"}},{"fullUrl":"https://madie.cms.gov/Organization/f16dfc39-8d6f-422a-ae0a-a0cd4e8b73af","resource":{"resourceType":"Organization","id":"aeb2c6be-6577-4bba-a6b6-6eab95111f1b","meta":{"profile":["http://hl7.org/fhir/us/qicore/StructureDefinition/qicore-organization"]},"identifier":[{"use":"temp","system":"urn:oid:2.16.840.1.113883.4.4","value":"21-3259825"}],"active":true,"type":[{"coding":[{"system":"http://terminology.hl7.org/CodeSystem/organization-type","code":"pay","display":"Payer"}]}],"name":"Blue Cross Blue Shield of Texas","telecom":[{"system":"phone","value":"(+1) 972-766-6900"}],"address":[{"use":"billing","type":"postal","line":["P.O. Box 660044"],"city":"Dallas","state":"TX","postalCode":"75266-0044","country":"USA"}]},"request":{"method":"PUT","url":"Organization/aeb2c6be-6577-4bba-a6b6-6eab95111f1b"}},{"fullUrl":"https://madie.cms.gov/Practitioner/cfa11034-3f22-4e44-b7db-acc1c36b255f","resource":{"resourceType":"Practitioner","id":"cfa11034-3f22-4e44-b7db-acc1c36b255f","identifier":[{"system":"http://hl7.org/fhir/sid/us-npi","value":"123456"}],"name":[{"family":"Evil","prefix":["Dr"]}]},"request":{"method":"PUT","url":"Practitioner/cfa11034-3f22-4e44-b7db-acc1c36b255f"}},{"fullUrl":"https://madie.cms.gov/MeasureReport/c1fde5f7-1b47-4ecb-9930-7b973f8aa5fb","resource":{"resourceType":"MeasureReport","id":"c1fde5f7-1b47-4ecb-9930-7b973f8aa5fb","meta":{"profile":["http://hl7.org/fhir/us/cqfmeasures/StructureDefinition/test-case-cqfm"]},"contained":[{"resourceType":"Parameters","id":"433884be-ba9e-4df7-b961-24f568841778-parameters","parameter":[{"name":"subject","valueString":"d8ca26ff-f3dd-42e7-ab8c-17647582f5bb"}]}],"extension":[{"url":"http://hl7.org/fhir/us/cqfmeasures/StructureDefinition/cqfm-inputParameters","valueReference":{"reference":"#433884be-ba9e-4df7-b961-24f568841778-parameters"}},{"url":"http://hl7.org/fhir/us/cqfmeasures/StructureDefinition/cqfm-testCaseDescription","valueMarkdown":" Encounter ends after MP \n"}],"modifierExtension":[{"url":"http://hl7.org/fhir/us/cqfmeasures/StructureDefinition/cqfm-isTestCase","valueBoolean":true}],"status":"complete","type":"individual","measure":"https://madie.cms.gov/Measure/CMS72FHIRSTKAntithromboticDay2","period":{"start":"2026-01-01","end":"2026-12-31"},"group":[{"population":[{"code":{"coding":[{"system":"http://terminology.hl7.org/CodeSystem/measure-population","code":"initial-population","display":"Initial Population"}]},"count":0},{"code":{"coding":[{"system":"http://terminology.hl7.org/CodeSystem/measure-population","code":"denominator","display":"Denominator"}]},"count":0},{"code":{"coding":[{"system":"http://terminology.hl7.org/CodeSystem/measure-population","code":"denominator-exclusion","display":"Denominator Exclusion"}]},"count":0},{"code":{"coding":[{"system":"http://terminology.hl7.org/CodeSystem/measure-population","code":"numerator","display":"Numerator"}]},"count":0},{"code":{"coding":[{"system":"http://terminology.hl7.org/CodeSystem/measure-population","code":"denominator-exception","display":"Denominator Exception"}]},"count":0}]}]},"request":{"method":"PUT","url":"MeasureReport/c1fde5f7-1b47-4ecb-9930-7b973f8aa5fb"}}]}