{"resourceType":"Bundle","id":"tests-82fd75d8-4816-4d24-b18c-0e454c430eb5-bundle","type":"transaction","entry":[{"fullUrl":"https://madie.cms.gov/Patient/82fd75d8-4816-4d24-b18c-0e454c430eb5","resource":{"resourceType":"Patient","id":"82fd75d8-4816-4d24-b18c-0e454c430eb5","meta":{"profile":["http://hl7.org/fhir/us/qicore/StructureDefinition/qicore-patient"]},"text":{"status":"generated","div":"<div xmlns=\"http://www.w3.org/1999/xhtml\"><div class=\"hapiHeaderText\">INRdurED_ED&lt;1hrNoObsBFEncDayOf <b>DENEXCEPASS </b></div><table class=\"hapiPropertyTable\"><tbody><tr><td>Identifier</td><td>44c405eb45d9fc2297eae64da0d160d3e28aefa9526a796ba05a2ea4fcc08a26</td></tr><tr><td>Date of birth</td><td><span>26 September 1975</span></td></tr></tbody></table></div>"},"extension":[{"url":"http://hl7.org/fhir/us/core/StructureDefinition/us-core-race","extension":[{"url":"ombCategory","valueCoding":{"system":"urn:oid:2.16.840.1.113883.6.238","code":"2054-5","display":"Black or African American","userSelected":true}},{"url":"text","valueString":"Black or African American"}]},{"url":"http://hl7.org/fhir/us/core/StructureDefinition/us-core-ethnicity","extension":[{"url":"ombCategory","valueCoding":{"system":"urn:oid:2.16.840.1.113883.6.238","code":"2186-5","display":"Not Hispanic or Latino","userSelected":true}},{"url":"text","valueString":"Not Hispanic or Latino"}]}],"identifier":[{"type":{"coding":[{"system":"http://terminology.hl7.org/CodeSystem/v2-0203","code":"MR"}]},"system":"https://bonnie-fhir.healthit.gov/","value":"60f82c2f98086b570510e2b0"}],"active":true,"name":[{"use":"usual","family":"DENEXCEPass","given":["INRdurED_ED<1hrNoObsBFEncDayOf"]}],"gender":"female","birthDate":"1976-09-26"},"request":{"method":"PUT","url":"Patient/82fd75d8-4816-4d24-b18c-0e454c430eb5"}},{"fullUrl":"https://madie.cms.gov/Encounter/137bdb39-c802-44bd-9721-51bb1716ab26","resource":{"resourceType":"Encounter","id":"137bdb39-c802-44bd-9721-51bb1716ab26","meta":{"profile":["http://hl7.org/fhir/us/qicore/StructureDefinition/qicore-encounter"]},"status":"finished","class":{"system":"http://terminology.hl7.org/CodeSystem/v3-ActCode","code":"EMER","display":"emergency","userSelected":true},"type":[{"coding":[{"system":"http://snomed.info/sct","code":"4525004"}]}],"subject":{"reference":"Patient/82fd75d8-4816-4d24-b18c-0e454c430eb5"},"period":{"start":"2026-10-10T06:15:00+00:00","end":"2026-10-10T06:31:00+00:00"},"length":{"value":0,"unit":"days"}},"request":{"method":"PUT","url":"Encounter/137bdb39-c802-44bd-9721-51bb1716ab26"}},{"fullUrl":"https://madie.cms.gov/Encounter/e7a929fa-e547-4bf4-b98d-1f7b8678b878","resource":{"resourceType":"Encounter","id":"e7a929fa-e547-4bf4-b98d-1f7b8678b878","meta":{"profile":["http://hl7.org/fhir/us/qicore/StructureDefinition/qicore-encounter"]},"status":"finished","class":{"system":"http://terminology.hl7.org/CodeSystem/v3-ActCode","code":"IMP","display":"inpatient encounter","userSelected":true},"type":[{"coding":[{"system":"http://snomed.info/sct","code":"32485007"}]}],"subject":{"reference":"Patient/82fd75d8-4816-4d24-b18c-0e454c430eb5"},"period":{"start":"2026-10-10T06:32:00+00:00","end":"2026-10-15T11:30:00+00:00"},"length":{"value":5,"unit":"days"},"diagnosis":[{"condition":{"reference":"Condition/cf8c3a14-b97d-4287-b83d-0ab4e2a365ec"},"use":{"coding":[{"system":"http://terminology.hl7.org/CodeSystem/diagnosis-role","code":"billing","display":"Billing"}]},"rank":1}]},"request":{"method":"PUT","url":"Encounter/e7a929fa-e547-4bf4-b98d-1f7b8678b878"}},{"fullUrl":"https://madie.cms.gov/Observation/d707e397-37cb-4d43-99b1-a45d394547fc","resource":{"resourceType":"Observation","id":"d707e397-37cb-4d43-99b1-a45d394547fc","meta":{"profile":["http://hl7.org/fhir/us/qicore/StructureDefinition/qicore-observation"]},"status":"final","category":[{"coding":[{"system":"http://terminology.hl7.org/CodeSystem/observation-category","code":"laboratory","display":"Laboratory"}]}],"code":{"coding":[{"system":"http://loinc.org","code":"34714-6"}]},"subject":{"reference":"Patient/82fd75d8-4816-4d24-b18c-0e454c430eb5"},"effectivePeriod":{"start":"2026-10-10T06:15:00+00:00"},"issued":"2026-10-10T06:31:00.000+00:00","valueQuantity":{"value":3.6}},"request":{"method":"PUT","url":"Observation/d707e397-37cb-4d43-99b1-a45d394547fc"}},{"fullUrl":"https://madie.cms.gov/Coverage/6f3a64ef-15a2-4bfe-bc5e-392b407f72fc","resource":{"resourceType":"Coverage","id":"6f3a64ef-15a2-4bfe-bc5e-392b407f72fc","status":"active","beneficiary":{"reference":"Patient/82fd75d8-4816-4d24-b18c-0e454c430eb5"},"period":{"start":"1976-09-26T08:00:00+00:00"},"payor":[{"reference":"Organization/880a275e-1cf2-4fb9-869b-f1d2173fdc2b"}]},"request":{"method":"PUT","url":"Coverage/6f3a64ef-15a2-4bfe-bc5e-392b407f72fc"}},{"fullUrl":"https://madie.cms.gov/Condition/cf8c3a14-b97d-4287-b83d-0ab4e2a365ec","resource":{"resourceType":"Condition","id":"cf8c3a14-b97d-4287-b83d-0ab4e2a365ec","meta":{"profile":["http://hl7.org/fhir/us/qicore/StructureDefinition/qicore-condition"]},"clinicalStatus":{"coding":[{"system":"http://terminology.hl7.org/CodeSystem/condition-clinical","code":"active"}]},"verificationStatus":{"coding":[{"system":"http://terminology.hl7.org/CodeSystem/condition-ver-status","code":"confirmed"}]},"category":[{"coding":[{"system":"http://terminology.hl7.org/CodeSystem/condition-category","code":"encounter-diagnosis","display":"Encounter Diagnosis"}]}],"code":{"coding":[{"system":"http://snomed.info/sct","version":"2020-09","code":"111297002","display":"Nonparalytic stroke (disorder)","userSelected":true}]},"subject":{"reference":"Patient/82fd75d8-4816-4d24-b18c-0e454c430eb5"},"recordedDate":"2026-08-06T08:00:00.000+00:00"},"request":{"method":"PUT","url":"Condition/cf8c3a14-b97d-4287-b83d-0ab4e2a365ec"}},{"fullUrl":"https://madie.cms.gov/Organization/a42376d3-47c2-4a5b-8ae1-d268abbab44f","resource":{"resourceType":"Organization","id":"880a275e-1cf2-4fb9-869b-f1d2173fdc2b","meta":{"profile":["http://hl7.org/fhir/us/qicore/StructureDefinition/qicore-organization"]},"identifier":[{"use":"temp","system":"urn:oid:2.16.840.1.113883.4.4","value":"21-3259825"}],"active":true,"type":[{"coding":[{"system":"http://terminology.hl7.org/CodeSystem/organization-type","code":"pay","display":"Payer"}]}],"name":"Blue Cross Blue Shield of Texas","telecom":[{"system":"phone","value":"(+1) 972-766-6900"}],"address":[{"use":"billing","type":"postal","line":["P.O. Box 660044"],"city":"Dallas","state":"TX","postalCode":"75266-0044","country":"USA"}]},"request":{"method":"PUT","url":"Organization/880a275e-1cf2-4fb9-869b-f1d2173fdc2b"}},{"fullUrl":"https://madie.cms.gov/MeasureReport/7438a884-04aa-4c4c-b308-192cdc636331","resource":{"resourceType":"MeasureReport","id":"7438a884-04aa-4c4c-b308-192cdc636331","meta":{"profile":["http://hl7.org/fhir/us/cqfmeasures/StructureDefinition/test-case-cqfm"]},"contained":[{"resourceType":"Parameters","id":"af3ba69f-33fd-4a23-8632-3c29893db833-parameters","parameter":[{"name":"subject","valueString":"82fd75d8-4816-4d24-b18c-0e454c430eb5"}]}],"extension":[{"url":"http://hl7.org/fhir/us/cqfmeasures/StructureDefinition/cqfm-inputParameters","valueReference":{"reference":"#af3ba69f-33fd-4a23-8632-3c29893db833-parameters"}},{"url":"http://hl7.org/fhir/us/cqfmeasures/StructureDefinition/cqfm-testCaseDescription","valueMarkdown":"Patient receives INR of 3.6 the day of ED start. ED ends 1 minute before IP on the same day. No Obs. Testing Day of operator with HospitalizationWithObservation function.\n"}],"modifierExtension":[{"url":"http://hl7.org/fhir/us/cqfmeasures/StructureDefinition/cqfm-isTestCase","valueBoolean":true}],"status":"complete","type":"individual","measure":"https://madie.cms.gov/Measure/CMS72FHIRSTKAntithromboticDay2","period":{"start":"2026-01-01","end":"2026-12-31"},"group":[{"population":[{"code":{"coding":[{"system":"http://terminology.hl7.org/CodeSystem/measure-population","code":"initial-population","display":"Initial Population"}]},"count":1},{"code":{"coding":[{"system":"http://terminology.hl7.org/CodeSystem/measure-population","code":"denominator","display":"Denominator"}]},"count":1},{"code":{"coding":[{"system":"http://terminology.hl7.org/CodeSystem/measure-population","code":"denominator-exclusion","display":"Denominator Exclusion"}]},"count":0},{"code":{"coding":[{"system":"http://terminology.hl7.org/CodeSystem/measure-population","code":"numerator","display":"Numerator"}]},"count":0},{"code":{"coding":[{"system":"http://terminology.hl7.org/CodeSystem/measure-population","code":"denominator-exception","display":"Denominator Exception"}]},"count":1}]}]},"request":{"method":"PUT","url":"MeasureReport/7438a884-04aa-4c4c-b308-192cdc636331"}}]}