{"resourceType":"Bundle","id":"tests-6678ed6f-3c94-4630-a7c5-d35a003b4535-bundle","type":"transaction","entry":[{"fullUrl":"https://madie.cms.gov/Patient/6678ed6f-3c94-4630-a7c5-d35a003b4535","resource":{"resourceType":"Patient","id":"6678ed6f-3c94-4630-a7c5-d35a003b4535","meta":{"profile":["http://hl7.org/fhir/us/qicore/StructureDefinition/qicore-patient"]},"text":{"status":"generated","div":"<div xmlns=\"http://www.w3.org/1999/xhtml\"><div class=\"hapiHeaderText\">MedAntithromboticStart_gt1dayDuringEd <b>NUMERFAIL </b></div><table class=\"hapiPropertyTable\"><tbody><tr><td>Identifier</td><td>a5e30d399f249a9c074a30cd5f10a75b</td></tr><tr><td>Date of birth</td><td><span>26 September 1975</span></td></tr></tbody></table></div>"},"extension":[{"url":"http://hl7.org/fhir/us/core/StructureDefinition/us-core-race","extension":[{"url":"ombCategory","valueCoding":{"system":"urn:oid:2.16.840.1.113883.6.238","code":"2054-5","display":"Black or African American","userSelected":true}},{"url":"text","valueString":"Black or African American"}]},{"url":"http://hl7.org/fhir/us/core/StructureDefinition/us-core-ethnicity","extension":[{"url":"ombCategory","valueCoding":{"system":"urn:oid:2.16.840.1.113883.6.238","code":"2186-5","display":"Not Hispanic or Latino","userSelected":true}},{"url":"text","valueString":"Not Hispanic or Latino"}]}],"identifier":[{"type":{"coding":[{"system":"http://terminology.hl7.org/CodeSystem/v2-0203","code":"MR"}]},"system":"https://bonnie-fhir.healthit.gov/","value":"60f82c2d98086b570510e25b"}],"active":true,"name":[{"use":"usual","family":"NUMERFail","given":["MedAntithromboticStart_gt1dayDuringEd"]}],"gender":"female","birthDate":"1976-09-26"},"request":{"method":"PUT","url":"Patient/6678ed6f-3c94-4630-a7c5-d35a003b4535"}},{"fullUrl":"https://madie.cms.gov/Encounter/45b8c5ed-b2ec-4336-863a-f2dd01e7dc8f","resource":{"resourceType":"Encounter","id":"45b8c5ed-b2ec-4336-863a-f2dd01e7dc8f","meta":{"profile":["http://hl7.org/fhir/us/qicore/StructureDefinition/qicore-encounter"]},"status":"finished","class":{"system":"http://terminology.hl7.org/CodeSystem/v3-ActCode","code":"EMER","display":"emergency"},"type":[{"coding":[{"system":"http://snomed.info/sct","code":"4525004"}]}],"subject":{"reference":"Patient/6678ed6f-3c94-4630-a7c5-d35a003b4535"},"period":{"start":"2026-10-08T23:59:00+00:00","end":"2026-10-10T08:15:00+00:00"},"length":{"value":2,"unit":"days"}},"request":{"method":"PUT","url":"Encounter/45b8c5ed-b2ec-4336-863a-f2dd01e7dc8f"}},{"fullUrl":"https://madie.cms.gov/Encounter/e6e2d81f-ce87-44aa-a07e-1be2a672636c","resource":{"resourceType":"Encounter","id":"e6e2d81f-ce87-44aa-a07e-1be2a672636c","meta":{"profile":["http://hl7.org/fhir/us/qicore/StructureDefinition/qicore-encounter"]},"status":"finished","class":{"system":"http://terminology.hl7.org/CodeSystem/v3-ActCode","code":"IMP","display":"inpatient encounter"},"type":[{"coding":[{"system":"http://snomed.info/sct","code":"32485007"}]}],"subject":{"reference":"Patient/6678ed6f-3c94-4630-a7c5-d35a003b4535"},"period":{"start":"2026-10-10T09:00:00+00:00","end":"2026-10-12T11:15:00+00:00"},"length":{"value":2,"unit":"days"},"diagnosis":[{"condition":{"reference":"Condition/4d7ac206-881c-4801-bfd6-aa08b19347f0"},"use":{"coding":[{"system":"http://terminology.hl7.org/CodeSystem/diagnosis-role","code":"billing","display":"Billing"}]},"rank":1}]},"request":{"method":"PUT","url":"Encounter/e6e2d81f-ce87-44aa-a07e-1be2a672636c"}},{"fullUrl":"https://madie.cms.gov/MedicationAdministration/85b44e02-296a-4097-9913-a778eeff5f58","resource":{"resourceType":"MedicationAdministration","id":"85b44e02-296a-4097-9913-a778eeff5f58","meta":{"profile":["http://hl7.org/fhir/us/qicore/StructureDefinition/qicore-medicationadministration"]},"status":"completed","medicationCodeableConcept":{"coding":[{"system":"http://www.nlm.nih.gov/research/umls/rxnorm","code":"198466"}]},"subject":{"reference":"Patient/6678ed6f-3c94-4630-a7c5-d35a003b4535"},"effectivePeriod":{"start":"2026-10-10T08:01:00+00:00","end":"2026-10-10T08:45:00+00:00"}},"request":{"method":"PUT","url":"MedicationAdministration/85b44e02-296a-4097-9913-a778eeff5f58"}},{"fullUrl":"https://madie.cms.gov/Coverage/9f8e89cb-67e0-4e3c-abe9-f22a5aaa88cd","resource":{"resourceType":"Coverage","id":"9f8e89cb-67e0-4e3c-abe9-f22a5aaa88cd","status":"active","beneficiary":{"reference":"Patient/6678ed6f-3c94-4630-a7c5-d35a003b4535"},"period":{"start":"1976-09-26T08:00:00+00:00"},"payor":[{"reference":"Organization/e75793c9-fdf6-463a-8c1d-4ee44320dc25"}]},"request":{"method":"PUT","url":"Coverage/9f8e89cb-67e0-4e3c-abe9-f22a5aaa88cd"}},{"fullUrl":"https://madie.cms.gov/Condition/4d7ac206-881c-4801-bfd6-aa08b19347f0","resource":{"resourceType":"Condition","id":"4d7ac206-881c-4801-bfd6-aa08b19347f0","meta":{"profile":["http://hl7.org/fhir/us/qicore/StructureDefinition/qicore-condition"]},"clinicalStatus":{"coding":[{"system":"http://terminology.hl7.org/CodeSystem/condition-clinical","code":"active"}]},"verificationStatus":{"coding":[{"system":"http://terminology.hl7.org/CodeSystem/condition-ver-status","code":"confirmed"}]},"category":[{"coding":[{"system":"http://terminology.hl7.org/CodeSystem/condition-category","code":"encounter-diagnosis","display":"Encounter Diagnosis"}]}],"code":{"coding":[{"system":"http://snomed.info/sct","version":"2020-09","code":"111297002","display":"Nonparalytic stroke (disorder)","userSelected":true}]},"subject":{"reference":"Patient/6678ed6f-3c94-4630-a7c5-d35a003b4535"},"recordedDate":"2026-08-16T08:00:00.000+00:00"},"request":{"method":"PUT","url":"Condition/4d7ac206-881c-4801-bfd6-aa08b19347f0"}},{"fullUrl":"https://madie.cms.gov/Organization/07f8af08-dc24-4ff3-afb8-5b428fc96040","resource":{"resourceType":"Organization","id":"e75793c9-fdf6-463a-8c1d-4ee44320dc25","meta":{"profile":["http://hl7.org/fhir/us/qicore/StructureDefinition/qicore-organization"]},"identifier":[{"use":"temp","system":"urn:oid:2.16.840.1.113883.4.4","value":"21-3259825"}],"active":true,"type":[{"coding":[{"system":"http://terminology.hl7.org/CodeSystem/organization-type","code":"pay","display":"Payer"}]}],"name":"Blue Cross Blue Shield of Texas","telecom":[{"system":"phone","value":"(+1) 972-766-6900"}],"address":[{"use":"billing","type":"postal","line":["P.O. Box 660044"],"city":"Dallas","state":"TX","postalCode":"75266-0044","country":"USA"}]},"request":{"method":"PUT","url":"Organization/e75793c9-fdf6-463a-8c1d-4ee44320dc25"}},{"fullUrl":"https://madie.cms.gov/Practitioner/2c2971a0-b435-448c-b6c4-8db51fab3fcb","resource":{"resourceType":"Practitioner","id":"2c2971a0-b435-448c-b6c4-8db51fab3fcb","identifier":[{"system":"http://hl7.org/fhir/sid/us-npi","value":"123456"}],"name":[{"family":"Evil","prefix":["Dr"]}]},"request":{"method":"PUT","url":"Practitioner/2c2971a0-b435-448c-b6c4-8db51fab3fcb"}},{"fullUrl":"https://madie.cms.gov/MeasureReport/364f8436-05f0-4b14-95fb-9cedc3b90855","resource":{"resourceType":"MeasureReport","id":"364f8436-05f0-4b14-95fb-9cedc3b90855","meta":{"profile":["http://hl7.org/fhir/us/cqfmeasures/StructureDefinition/test-case-cqfm"]},"contained":[{"resourceType":"Parameters","id":"c4033cc1-1e80-4d66-b097-ea040cdbb763-parameters","parameter":[{"name":"subject","valueString":"6678ed6f-3c94-4630-a7c5-d35a003b4535"}]}],"extension":[{"url":"http://hl7.org/fhir/us/cqfmeasures/StructureDefinition/cqfm-inputParameters","valueReference":{"reference":"#c4033cc1-1e80-4d66-b097-ea040cdbb763-parameters"}},{"url":"http://hl7.org/fhir/us/cqfmeasures/StructureDefinition/cqfm-testCaseDescription","valueMarkdown":"\"antithrombotic therapy >1 day (=2 days) after ED start,\nglobal.\"\"Hospitalization\"\" =(Ed+IP)\"\n"}],"modifierExtension":[{"url":"http://hl7.org/fhir/us/cqfmeasures/StructureDefinition/cqfm-isTestCase","valueBoolean":true}],"status":"complete","type":"individual","measure":"https://madie.cms.gov/Measure/CMS72FHIRSTKAntithromboticDay2","period":{"start":"2026-01-01","end":"2026-12-31"},"group":[{"population":[{"code":{"coding":[{"system":"http://terminology.hl7.org/CodeSystem/measure-population","code":"initial-population","display":"Initial Population"}]},"count":1},{"code":{"coding":[{"system":"http://terminology.hl7.org/CodeSystem/measure-population","code":"denominator","display":"Denominator"}]},"count":1},{"code":{"coding":[{"system":"http://terminology.hl7.org/CodeSystem/measure-population","code":"denominator-exclusion","display":"Denominator Exclusion"}]},"count":0},{"code":{"coding":[{"system":"http://terminology.hl7.org/CodeSystem/measure-population","code":"numerator","display":"Numerator"}]},"count":0},{"code":{"coding":[{"system":"http://terminology.hl7.org/CodeSystem/measure-population","code":"denominator-exception","display":"Denominator Exception"}]},"count":0}]}]},"request":{"method":"PUT","url":"MeasureReport/364f8436-05f0-4b14-95fb-9cedc3b90855"}}]}