{"resourceType":"Bundle","id":"tests-0ccb9c3c-d834-4769-a68a-6b01ce1e868e-bundle","type":"transaction","entry":[{"fullUrl":"https://madie.cms.gov/Patient/0ccb9c3c-d834-4769-a68a-6b01ce1e868e","resource":{"resourceType":"Patient","id":"0ccb9c3c-d834-4769-a68a-6b01ce1e868e","meta":{"profile":["http://hl7.org/fhir/us/qicore/StructureDefinition/qicore-patient"]},"text":{"status":"generated","div":"<div xmlns=\"http://www.w3.org/1999/xhtml\"><div class=\"hapiHeaderText\">CMP_DayOf_RelvDat_1minAftIPEnd_EDEndLT1hrB4Obs_ObsEndLT1hrB4IP <b>DENEXPASS </b></div><table class=\"hapiPropertyTable\"><tbody><tr><td>Date of birth</td><td><span>01 January 1980</span></td></tr></tbody></table></div>"},"extension":[{"url":"http://hl7.org/fhir/us/core/StructureDefinition/us-core-race","extension":[{"url":"ombCategory","valueCoding":{"system":"urn:oid:2.16.840.1.113883.6.238","code":"2106-3","display":"White","userSelected":true}},{"url":"text","valueString":"White"}]},{"url":"http://hl7.org/fhir/us/core/StructureDefinition/us-core-ethnicity","extension":[{"url":"ombCategory","valueCoding":{"system":"urn:oid:2.16.840.1.113883.6.238","code":"2186-5","display":"Not Hispanic or Latino","userSelected":true}},{"url":"text","valueString":"Not Hispanic or Latino"}]}],"identifier":[{"type":{"coding":[{"system":"http://terminology.hl7.org/CodeSystem/v2-0203","code":"MR"}]},"system":"https://bonnie-fhir.healthit.gov/","value":"60f82c3098086b570510e2e3"}],"active":true,"name":[{"use":"usual","family":"DENEXPass","given":["CMP_DayOf_RelvDat_1minAftIPEnd_EDEndLT1hrB4Obs_ObsEndLT1hrB4IP"]}],"gender":"female","birthDate":"1981-01-01"},"request":{"method":"PUT","url":"Patient/0ccb9c3c-d834-4769-a68a-6b01ce1e868e"}},{"fullUrl":"https://madie.cms.gov/Encounter/ed124541-0d32-4cac-9d34-411aaf223a51","resource":{"resourceType":"Encounter","id":"ed124541-0d32-4cac-9d34-411aaf223a51","meta":{"profile":["http://hl7.org/fhir/us/qicore/StructureDefinition/qicore-encounter"]},"status":"finished","class":{"system":"http://terminology.hl7.org/CodeSystem/v3-ActCode","code":"EMER","display":"emergency","userSelected":true},"type":[{"coding":[{"system":"http://snomed.info/sct","code":"4525004"}]}],"subject":{"reference":"Patient/0ccb9c3c-d834-4769-a68a-6b01ce1e868e"},"period":{"start":"2026-11-18T07:00:00+00:00","end":"2026-11-18T08:01:00+00:00"},"diagnosis":[{"condition":{"reference":"Condition/a93dbd4f-59c4-4220-9dc3-51683b28e645"},"use":{"coding":[{"system":"http://terminology.hl7.org/CodeSystem/diagnosis-role","code":"billing","display":"Billing"}]},"rank":1}]},"request":{"method":"PUT","url":"Encounter/ed124541-0d32-4cac-9d34-411aaf223a51"}},{"fullUrl":"https://madie.cms.gov/Encounter/d4c46a6d-a91f-4ae9-8742-187b5301e1b9","resource":{"resourceType":"Encounter","id":"d4c46a6d-a91f-4ae9-8742-187b5301e1b9","meta":{"profile":["http://hl7.org/fhir/us/qicore/StructureDefinition/qicore-encounter"]},"status":"finished","class":{"system":"http://terminology.hl7.org/CodeSystem/v3-ActCode","code":"OBSENC","display":"observation encounter","userSelected":true},"type":[{"coding":[{"system":"http://snomed.info/sct","code":"448951000124107"}]}],"subject":{"reference":"Patient/0ccb9c3c-d834-4769-a68a-6b01ce1e868e"},"period":{"start":"2026-11-18T09:00:00+00:00","end":"2026-11-18T10:01:00+00:00"}},"request":{"method":"PUT","url":"Encounter/d4c46a6d-a91f-4ae9-8742-187b5301e1b9"}},{"fullUrl":"https://madie.cms.gov/Encounter/64555e41-1f1c-4353-af70-b7f70d01a511","resource":{"resourceType":"Encounter","id":"64555e41-1f1c-4353-af70-b7f70d01a511","meta":{"profile":["http://hl7.org/fhir/us/qicore/StructureDefinition/qicore-encounter"]},"status":"finished","class":{"system":"http://terminology.hl7.org/CodeSystem/v3-ActCode","code":"IMP","display":"inpatient encounter","userSelected":true},"type":[{"coding":[{"system":"http://snomed.info/sct","code":"183452005"}]}],"subject":{"reference":"Patient/0ccb9c3c-d834-4769-a68a-6b01ce1e868e"},"period":{"start":"2026-11-18T11:00:00+00:00","end":"2026-11-18T20:15:00+00:00"},"diagnosis":[{"condition":{"reference":"Condition/a93dbd4f-59c4-4220-9dc3-51683b28e645"},"use":{"coding":[{"system":"http://terminology.hl7.org/CodeSystem/diagnosis-role","code":"billing","display":"Billing"}]},"rank":1}]},"request":{"method":"PUT","url":"Encounter/64555e41-1f1c-4353-af70-b7f70d01a511"}},{"fullUrl":"https://madie.cms.gov/Procedure/ae1a1b87-6998-4419-8dfd-c04400b9e498","resource":{"resourceType":"Procedure","id":"ae1a1b87-6998-4419-8dfd-c04400b9e498","meta":{"profile":["http://hl7.org/fhir/us/qicore/StructureDefinition/qicore-procedure"]},"extension":[{"url":"http://hl7.org/fhir/us/qicore/StructureDefinition/qicore-recorded","valueDateTime":"2026-11-18T11:00:00+00:00"}],"status":"completed","code":{"coding":[{"system":"http://snomed.info/sct","code":"133918004"}]},"subject":{"reference":"Patient/0ccb9c3c-d834-4769-a68a-6b01ce1e868e"},"performedPeriod":{"start":"2026-11-18T11:00:00+00:00","end":"2026-11-18T20:15:00+00:00"}},"request":{"method":"PUT","url":"Procedure/ae1a1b87-6998-4419-8dfd-c04400b9e498"}},{"fullUrl":"https://madie.cms.gov/Condition/a93dbd4f-59c4-4220-9dc3-51683b28e645","resource":{"resourceType":"Condition","id":"a93dbd4f-59c4-4220-9dc3-51683b28e645","meta":{"profile":["http://hl7.org/fhir/us/qicore/StructureDefinition/qicore-condition"]},"clinicalStatus":{"coding":[{"system":"http://terminology.hl7.org/CodeSystem/condition-clinical","code":"active"}]},"verificationStatus":{"coding":[{"system":"http://terminology.hl7.org/CodeSystem/condition-ver-status","code":"confirmed"}]},"category":[{"coding":[{"system":"http://terminology.hl7.org/CodeSystem/condition-category","code":"encounter-diagnosis","display":"Encounter Diagnosis"}]}],"code":{"coding":[{"system":"http://snomed.info/sct","version":"2020-09","code":"111297002","display":"Nonparalytic stroke (disorder)","userSelected":true}]},"subject":{"reference":"Patient/0ccb9c3c-d834-4769-a68a-6b01ce1e868e"},"recordedDate":"2026-08-13T08:00:00.000+00:00"},"request":{"method":"PUT","url":"Condition/a93dbd4f-59c4-4220-9dc3-51683b28e645"}},{"fullUrl":"https://madie.cms.gov/Coverage/99a1f2ad-beab-496d-b551-7a57294748df","resource":{"resourceType":"Coverage","id":"99a1f2ad-beab-496d-b551-7a57294748df","meta":{"profile":["http://hl7.org/fhir/us/qicore/StructureDefinition/qicore-coverage"]},"status":"active","beneficiary":{"reference":"Patient/0ccb9c3c-d834-4769-a68a-6b01ce1e868e"},"payor":[{"reference":"Organization/18ca435c-cae6-4c34-8033-af717477f9fc"}]},"request":{"method":"PUT","url":"Coverage/99a1f2ad-beab-496d-b551-7a57294748df"}},{"fullUrl":"https://madie.cms.gov/Organization/f28fb974-de34-4bab-9cca-c8ff9525b18d","resource":{"resourceType":"Organization","id":"18ca435c-cae6-4c34-8033-af717477f9fc","meta":{"profile":["http://hl7.org/fhir/us/qicore/StructureDefinition/qicore-organization"]},"identifier":[{"use":"temp","system":"urn:oid:2.16.840.1.113883.4.4","value":"21-3259825"}],"active":true,"type":[{"coding":[{"system":"http://terminology.hl7.org/CodeSystem/organization-type","code":"pay","display":"Payer"}]}],"name":"Blue Cross Blue Shield of Texas","telecom":[{"system":"phone","value":"(+1) 972-766-6900"}],"address":[{"use":"billing","type":"postal","line":["P.O. Box 660044"],"city":"Dallas","state":"TX","postalCode":"75266-0044","country":"USA"}]},"request":{"method":"PUT","url":"Organization/18ca435c-cae6-4c34-8033-af717477f9fc"}},{"fullUrl":"https://madie.cms.gov/MeasureReport/e9661789-0fb6-4dce-a913-ef08c9d379c9","resource":{"resourceType":"MeasureReport","id":"e9661789-0fb6-4dce-a913-ef08c9d379c9","meta":{"profile":["http://hl7.org/fhir/us/cqfmeasures/StructureDefinition/test-case-cqfm"]},"contained":[{"resourceType":"Parameters","id":"c67e383d-f0b1-4142-9469-e614255250c0-parameters","parameter":[{"name":"subject","valueString":"0ccb9c3c-d834-4769-a68a-6b01ce1e868e"}]}],"extension":[{"url":"http://hl7.org/fhir/us/cqfmeasures/StructureDefinition/cqfm-inputParameters","valueReference":{"reference":"#c67e383d-f0b1-4142-9469-e614255250c0-parameters"}},{"url":"http://hl7.org/fhir/us/cqfmeasures/StructureDefinition/cqfm-testCaseDescription","valueMarkdown":"Patient receives comfort measures performed on the day of hospital arrival, 1 minute after IP end. ED ends less than 1 hour before Obs Start, Obs ends less than 1 hour before IP start.\n"}],"modifierExtension":[{"url":"http://hl7.org/fhir/us/cqfmeasures/StructureDefinition/cqfm-isTestCase","valueBoolean":true}],"status":"complete","type":"individual","measure":"https://madie.cms.gov/Measure/CMS72FHIRSTKAntithromboticDay2","period":{"start":"2026-01-01","end":"2026-12-31"},"group":[{"population":[{"code":{"coding":[{"system":"http://terminology.hl7.org/CodeSystem/measure-population","code":"initial-population","display":"Initial Population"}]},"count":1},{"code":{"coding":[{"system":"http://terminology.hl7.org/CodeSystem/measure-population","code":"denominator","display":"Denominator"}]},"count":1},{"code":{"coding":[{"system":"http://terminology.hl7.org/CodeSystem/measure-population","code":"denominator-exclusion","display":"Denominator Exclusion"}]},"count":1},{"code":{"coding":[{"system":"http://terminology.hl7.org/CodeSystem/measure-population","code":"numerator","display":"Numerator"}]},"count":0},{"code":{"coding":[{"system":"http://terminology.hl7.org/CodeSystem/measure-population","code":"denominator-exception","display":"Denominator Exception"}]},"count":0}]}]},"request":{"method":"PUT","url":"MeasureReport/e9661789-0fb6-4dce-a913-ef08c9d379c9"}}]}