{"resourceType":"Bundle","id":"tests-05ec524f-1d2d-4f9e-8eaa-cc2662030fc6-bundle","type":"transaction","entry":[{"fullUrl":"https://madie.cms.gov/Patient/05ec524f-1d2d-4f9e-8eaa-cc2662030fc6","resource":{"resourceType":"Patient","id":"05ec524f-1d2d-4f9e-8eaa-cc2662030fc6","meta":{"profile":["http://hl7.org/fhir/us/qicore/StructureDefinition/qicore-patient"]},"text":{"status":"generated","div":"<div xmlns=\"http://www.w3.org/1999/xhtml\"><div class=\"hapiHeaderText\">INRdurED_ED&lt;1hrObs&lt;1hrBFEncDayAft <b>DENEXCEPASS </b></div><table class=\"hapiPropertyTable\"><tbody><tr><td>Identifier</td><td>00e7688de4ce78bc9928efc7c58d050e4007772e7111560948ff30af68fe37ac</td></tr><tr><td>Date of birth</td><td><span>26 September 1975</span></td></tr></tbody></table></div>"},"extension":[{"url":"http://hl7.org/fhir/us/core/StructureDefinition/us-core-race","extension":[{"url":"ombCategory","valueCoding":{"system":"urn:oid:2.16.840.1.113883.6.238","code":"2054-5","display":"Black or African American","userSelected":true}},{"url":"text","valueString":"Black or African American"}]},{"url":"http://hl7.org/fhir/us/core/StructureDefinition/us-core-ethnicity","extension":[{"url":"ombCategory","valueCoding":{"system":"urn:oid:2.16.840.1.113883.6.238","code":"2186-5","display":"Not Hispanic or Latino","userSelected":true}},{"url":"text","valueString":"Not Hispanic or Latino"}]}],"identifier":[{"type":{"coding":[{"system":"http://terminology.hl7.org/CodeSystem/v2-0203","code":"MR"}]},"system":"https://bonnie-fhir.healthit.gov/","value":"60f82c2f98086b570510e2b6"}],"active":true,"name":[{"use":"usual","family":"DENEXCEPass","given":["INRdurED_ED<1hrObs<1hrBFEncDayAft"]}],"gender":"female","birthDate":"1976-09-26"},"request":{"method":"PUT","url":"Patient/05ec524f-1d2d-4f9e-8eaa-cc2662030fc6"}},{"fullUrl":"https://madie.cms.gov/Encounter/29a917e5-e4c0-4d03-a391-209e0e5d36a9","resource":{"resourceType":"Encounter","id":"29a917e5-e4c0-4d03-a391-209e0e5d36a9","meta":{"profile":["http://hl7.org/fhir/us/qicore/StructureDefinition/qicore-encounter"]},"status":"finished","class":{"system":"http://terminology.hl7.org/CodeSystem/v3-ActCode","code":"EMER","display":"emergency","userSelected":true},"type":[{"coding":[{"system":"http://snomed.info/sct","code":"4525004"}]}],"subject":{"reference":"Patient/05ec524f-1d2d-4f9e-8eaa-cc2662030fc6"},"period":{"start":"2026-10-10T06:15:00+00:00","end":"2026-10-10T06:30:00+00:00"},"length":{"value":0,"unit":"days"}},"request":{"method":"PUT","url":"Encounter/29a917e5-e4c0-4d03-a391-209e0e5d36a9"}},{"fullUrl":"https://madie.cms.gov/Encounter/b18c48d5-d118-4788-a2ce-e9c638ea0bc1","resource":{"resourceType":"Encounter","id":"b18c48d5-d118-4788-a2ce-e9c638ea0bc1","meta":{"profile":["http://hl7.org/fhir/us/qicore/StructureDefinition/qicore-encounter"]},"status":"finished","class":{"system":"http://terminology.hl7.org/CodeSystem/v3-ActCode","code":"OBSENC","display":"observation encounter","userSelected":true},"type":[{"coding":[{"system":"http://snomed.info/sct","code":"448951000124107"}]}],"subject":{"reference":"Patient/05ec524f-1d2d-4f9e-8eaa-cc2662030fc6"},"period":{"start":"2026-10-10T06:31:00+00:00","end":"2026-10-10T23:59:00+00:00"},"length":{"value":0,"unit":"days"}},"request":{"method":"PUT","url":"Encounter/b18c48d5-d118-4788-a2ce-e9c638ea0bc1"}},{"fullUrl":"https://madie.cms.gov/Encounter/8e09e170-ffcb-4b64-b09f-37d39ac2cb53","resource":{"resourceType":"Encounter","id":"8e09e170-ffcb-4b64-b09f-37d39ac2cb53","meta":{"profile":["http://hl7.org/fhir/us/qicore/StructureDefinition/qicore-encounter"]},"status":"finished","class":{"system":"http://terminology.hl7.org/CodeSystem/v3-ActCode","code":"IMP","display":"inpatient encounter","userSelected":true},"type":[{"coding":[{"system":"http://snomed.info/sct","code":"32485007"}]}],"subject":{"reference":"Patient/05ec524f-1d2d-4f9e-8eaa-cc2662030fc6"},"period":{"start":"2026-10-11T00:00:00+00:00","end":"2026-10-15T11:30:00+00:00"},"length":{"value":4,"unit":"days"},"diagnosis":[{"condition":{"reference":"Condition/0bb158cc-9118-417f-9b1f-38d875707fe2"},"use":{"coding":[{"system":"http://terminology.hl7.org/CodeSystem/diagnosis-role","code":"billing","display":"Billing"}]},"rank":1}]},"request":{"method":"PUT","url":"Encounter/8e09e170-ffcb-4b64-b09f-37d39ac2cb53"}},{"fullUrl":"https://madie.cms.gov/Observation/b835c4d3-43a3-4e30-85f9-680a461ab773","resource":{"resourceType":"Observation","id":"b835c4d3-43a3-4e30-85f9-680a461ab773","meta":{"profile":["http://hl7.org/fhir/us/qicore/StructureDefinition/qicore-observation"]},"status":"final","category":[{"coding":[{"system":"http://terminology.hl7.org/CodeSystem/observation-category","code":"laboratory","display":"Laboratory"}]}],"code":{"coding":[{"system":"http://loinc.org","code":"34714-6"}]},"subject":{"reference":"Patient/05ec524f-1d2d-4f9e-8eaa-cc2662030fc6"},"effectivePeriod":{"start":"2026-10-10T06:15:00+00:00"},"issued":"2026-10-10T06:30:00.000+00:00","valueQuantity":{"value":3.6}},"request":{"method":"PUT","url":"Observation/b835c4d3-43a3-4e30-85f9-680a461ab773"}},{"fullUrl":"https://madie.cms.gov/Coverage/b0b2f1a8-ef95-4a0f-86e4-6cb3d86c61af","resource":{"resourceType":"Coverage","id":"b0b2f1a8-ef95-4a0f-86e4-6cb3d86c61af","status":"active","beneficiary":{"reference":"Patient/05ec524f-1d2d-4f9e-8eaa-cc2662030fc6"},"period":{"start":"1976-09-26T08:00:00+00:00"},"payor":[{"reference":"Organization/f7da4368-fb6d-4d73-a75b-f78024cbb18d"}]},"request":{"method":"PUT","url":"Coverage/b0b2f1a8-ef95-4a0f-86e4-6cb3d86c61af"}},{"fullUrl":"https://madie.cms.gov/Condition/0bb158cc-9118-417f-9b1f-38d875707fe2","resource":{"resourceType":"Condition","id":"0bb158cc-9118-417f-9b1f-38d875707fe2","meta":{"profile":["http://hl7.org/fhir/us/qicore/StructureDefinition/qicore-condition"]},"clinicalStatus":{"coding":[{"system":"http://terminology.hl7.org/CodeSystem/condition-clinical","code":"active"}]},"verificationStatus":{"coding":[{"system":"http://terminology.hl7.org/CodeSystem/condition-ver-status","code":"confirmed"}]},"category":[{"coding":[{"system":"http://terminology.hl7.org/CodeSystem/condition-category","code":"encounter-diagnosis","display":"Encounter Diagnosis"}]}],"code":{"coding":[{"system":"http://snomed.info/sct","version":"2020-09","code":"111297002","display":"Nonparalytic stroke (disorder)","userSelected":true}]},"subject":{"reference":"Patient/05ec524f-1d2d-4f9e-8eaa-cc2662030fc6"},"recordedDate":"2026-08-06T08:00:00.000+00:00"},"request":{"method":"PUT","url":"Condition/0bb158cc-9118-417f-9b1f-38d875707fe2"}},{"fullUrl":"https://madie.cms.gov/Organization/9e436091-9d7d-4649-8b87-dde955ccd004","resource":{"resourceType":"Organization","id":"f7da4368-fb6d-4d73-a75b-f78024cbb18d","meta":{"profile":["http://hl7.org/fhir/us/qicore/StructureDefinition/qicore-organization"]},"identifier":[{"use":"temp","system":"urn:oid:2.16.840.1.113883.4.4","value":"21-3259825"}],"active":true,"type":[{"coding":[{"system":"http://terminology.hl7.org/CodeSystem/organization-type","code":"pay","display":"Payer"}]}],"name":"Blue Cross Blue Shield of Texas","telecom":[{"system":"phone","value":"(+1) 972-766-6900"}],"address":[{"use":"billing","type":"postal","line":["P.O. Box 660044"],"city":"Dallas","state":"TX","postalCode":"75266-0044","country":"USA"}]},"request":{"method":"PUT","url":"Organization/f7da4368-fb6d-4d73-a75b-f78024cbb18d"}},{"fullUrl":"https://madie.cms.gov/MeasureReport/31acbfc1-2702-4ad0-a833-749824457748","resource":{"resourceType":"MeasureReport","id":"31acbfc1-2702-4ad0-a833-749824457748","meta":{"profile":["http://hl7.org/fhir/us/cqfmeasures/StructureDefinition/test-case-cqfm"]},"contained":[{"resourceType":"Parameters","id":"6f1f1e70-32a5-479b-8b0e-783d5216c95d-parameters","parameter":[{"name":"subject","valueString":"05ec524f-1d2d-4f9e-8eaa-cc2662030fc6"}]}],"extension":[{"url":"http://hl7.org/fhir/us/cqfmeasures/StructureDefinition/cqfm-inputParameters","valueReference":{"reference":"#6f1f1e70-32a5-479b-8b0e-783d5216c95d-parameters"}},{"url":"http://hl7.org/fhir/us/cqfmeasures/StructureDefinition/cqfm-testCaseDescription","valueMarkdown":"Patient receives INR of 3.6 the day of ED. ED ends 1 minute before Obs, Obs ends 1 min before IP the next day at midnight. Testing Day of operator with HospitalizationWithObservation function.\n"}],"modifierExtension":[{"url":"http://hl7.org/fhir/us/cqfmeasures/StructureDefinition/cqfm-isTestCase","valueBoolean":true}],"status":"complete","type":"individual","measure":"https://madie.cms.gov/Measure/CMS72FHIRSTKAntithromboticDay2","period":{"start":"2026-01-01","end":"2026-12-31"},"group":[{"population":[{"code":{"coding":[{"system":"http://terminology.hl7.org/CodeSystem/measure-population","code":"initial-population","display":"Initial Population"}]},"count":1},{"code":{"coding":[{"system":"http://terminology.hl7.org/CodeSystem/measure-population","code":"denominator","display":"Denominator"}]},"count":1},{"code":{"coding":[{"system":"http://terminology.hl7.org/CodeSystem/measure-population","code":"denominator-exclusion","display":"Denominator Exclusion"}]},"count":0},{"code":{"coding":[{"system":"http://terminology.hl7.org/CodeSystem/measure-population","code":"numerator","display":"Numerator"}]},"count":0},{"code":{"coding":[{"system":"http://terminology.hl7.org/CodeSystem/measure-population","code":"denominator-exception","display":"Denominator Exception"}]},"count":1}]}]},"request":{"method":"PUT","url":"MeasureReport/31acbfc1-2702-4ad0-a833-749824457748"}}]}