{"resourceType":"Bundle","id":"tests-de4005d0-549c-40bb-93b9-26650c194d04-bundle","type":"transaction","entry":[{"fullUrl":"https://madie.cms.gov/Patient/de4005d0-549c-40bb-93b9-26650c194d04","resource":{"resourceType":"Patient","id":"de4005d0-549c-40bb-93b9-26650c194d04","meta":{"profile":["http://hl7.org/fhir/us/qicore/StructureDefinition/qicore-patient"]},"text":{"status":"generated","div":"<div xmlns=\"http://www.w3.org/1999/xhtml\"><div class=\"hapiHeaderText\">CMP_DayOf_RelvPerStart_OnIPEnd_EDEndLT1hrB4Obs_ObsEndLT1hrB4IP <b>DENEXFAIL </b></div><table class=\"hapiPropertyTable\"><tbody><tr><td>Date of birth</td><td><span>01 January 1980</span></td></tr></tbody></table></div>"},"extension":[{"url":"http://hl7.org/fhir/us/core/StructureDefinition/us-core-race","extension":[{"url":"ombCategory","valueCoding":{"system":"urn:oid:2.16.840.1.113883.6.238","code":"2054-5","display":"Black or African American","userSelected":true}},{"url":"text","valueString":"Black or African American"}]},{"url":"http://hl7.org/fhir/us/core/StructureDefinition/us-core-ethnicity","extension":[{"url":"ombCategory","valueCoding":{"system":"urn:oid:2.16.840.1.113883.6.238","code":"2186-5","display":"Not Hispanic or Latino","userSelected":true}},{"url":"text","valueString":"Not Hispanic or Latino"}]}],"identifier":[{"type":{"coding":[{"system":"http://terminology.hl7.org/CodeSystem/v2-0203","code":"MR"}]},"system":"https://bonnie-fhir.healthit.gov/","value":"60f82c3098086b570510e2f2"}],"active":true,"name":[{"use":"usual","family":"DENEXFail","given":["CMP_DayOf_RelvPerStart_OnIPEnd_EDEndLT1hrB4Obs_ObsEndLT1hrB4IP"]}],"gender":"female","birthDate":"1981-01-01"},"request":{"method":"PUT","url":"Patient/de4005d0-549c-40bb-93b9-26650c194d04"}},{"fullUrl":"https://madie.cms.gov/Encounter/a7046ed8-49b6-4fe8-8ca2-63c7fdb7128d","resource":{"resourceType":"Encounter","id":"a7046ed8-49b6-4fe8-8ca2-63c7fdb7128d","meta":{"profile":["http://hl7.org/fhir/us/qicore/StructureDefinition/qicore-encounter"]},"status":"finished","class":{"system":"http://terminology.hl7.org/CodeSystem/v3-ActCode","code":"EMER","display":"emergency","userSelected":true},"type":[{"coding":[{"system":"http://snomed.info/sct","code":"4525004"}]}],"subject":{"reference":"Patient/de4005d0-549c-40bb-93b9-26650c194d04"},"period":{"start":"2026-11-18T07:00:00+00:00","end":"2026-11-18T08:01:00+00:00"},"diagnosis":[{"condition":{"reference":"Condition/c66d33cc-d304-4dca-8a64-0f1e04c6fd3d"},"use":{"coding":[{"system":"http://terminology.hl7.org/CodeSystem/diagnosis-role","code":"billing","display":"Billing"}]},"rank":1}]},"request":{"method":"PUT","url":"Encounter/a7046ed8-49b6-4fe8-8ca2-63c7fdb7128d"}},{"fullUrl":"https://madie.cms.gov/Encounter/a2fd2b28-33a0-4ab4-9fc2-2629fe6f59a0","resource":{"resourceType":"Encounter","id":"a2fd2b28-33a0-4ab4-9fc2-2629fe6f59a0","meta":{"profile":["http://hl7.org/fhir/us/qicore/StructureDefinition/qicore-encounter"]},"status":"finished","class":{"system":"http://terminology.hl7.org/CodeSystem/v3-ActCode","code":"OBSENC","display":"observation encounter","userSelected":true},"type":[{"coding":[{"system":"http://snomed.info/sct","code":"448951000124107"}]}],"subject":{"reference":"Patient/de4005d0-549c-40bb-93b9-26650c194d04"},"period":{"start":"2026-11-18T09:00:00+00:00","end":"2026-11-18T10:01:00+00:00"}},"request":{"method":"PUT","url":"Encounter/a2fd2b28-33a0-4ab4-9fc2-2629fe6f59a0"}},{"fullUrl":"https://madie.cms.gov/Encounter/658fb51f-6563-4f0d-9743-01815d4f3925","resource":{"resourceType":"Encounter","id":"658fb51f-6563-4f0d-9743-01815d4f3925","meta":{"profile":["http://hl7.org/fhir/us/qicore/StructureDefinition/qicore-encounter"]},"status":"finished","class":{"system":"http://terminology.hl7.org/CodeSystem/v3-ActCode","code":"IMP","display":"inpatient encounter","userSelected":true},"type":[{"coding":[{"system":"http://snomed.info/sct","code":"183452005"}]}],"subject":{"reference":"Patient/de4005d0-549c-40bb-93b9-26650c194d04"},"period":{"start":"2026-11-18T11:00:00+00:00","end":"2026-11-20T08:15:00+00:00"},"diagnosis":[{"condition":{"reference":"Condition/c66d33cc-d304-4dca-8a64-0f1e04c6fd3d"},"use":{"coding":[{"system":"http://terminology.hl7.org/CodeSystem/diagnosis-role","code":"billing","display":"Billing"}]},"rank":1}]},"request":{"method":"PUT","url":"Encounter/658fb51f-6563-4f0d-9743-01815d4f3925"}},{"fullUrl":"https://madie.cms.gov/Procedure/1693e8e9-37df-45a7-b1ca-89b906f4843e","resource":{"resourceType":"Procedure","id":"1693e8e9-37df-45a7-b1ca-89b906f4843e","meta":{"profile":["http://hl7.org/fhir/us/qicore/StructureDefinition/qicore-procedure"]},"extension":[{"url":"http://hl7.org/fhir/us/qicore/StructureDefinition/qicore-recorded","valueDateTime":"2014-04-05T09:35:00-04:00"}],"status":"completed","code":{"coding":[{"system":"http://snomed.info/sct","code":"133918004"}]},"subject":{"reference":"Patient/de4005d0-549c-40bb-93b9-26650c194d04"},"performedPeriod":{"start":"2026-11-20T08:15:00+00:00","end":"2026-11-20T08:15:00+00:00"}},"request":{"method":"PUT","url":"Procedure/1693e8e9-37df-45a7-b1ca-89b906f4843e"}},{"fullUrl":"https://madie.cms.gov/Condition/c66d33cc-d304-4dca-8a64-0f1e04c6fd3d","resource":{"resourceType":"Condition","id":"c66d33cc-d304-4dca-8a64-0f1e04c6fd3d","meta":{"profile":["http://hl7.org/fhir/us/qicore/StructureDefinition/qicore-condition"]},"clinicalStatus":{"coding":[{"system":"http://terminology.hl7.org/CodeSystem/condition-clinical","code":"active"}]},"verificationStatus":{"coding":[{"system":"http://terminology.hl7.org/CodeSystem/condition-ver-status","code":"confirmed"}]},"category":[{"coding":[{"system":"http://terminology.hl7.org/CodeSystem/condition-category","code":"encounter-diagnosis","display":"Encounter Diagnosis"}]}],"code":{"coding":[{"system":"http://snomed.info/sct","version":"2020-09","code":"111297002","display":"Nonparalytic stroke (disorder)","userSelected":true}]},"subject":{"reference":"Patient/de4005d0-549c-40bb-93b9-26650c194d04"},"recordedDate":"2026-08-11T08:00:00.000+00:00"},"request":{"method":"PUT","url":"Condition/c66d33cc-d304-4dca-8a64-0f1e04c6fd3d"}},{"fullUrl":"https://madie.cms.gov/Coverage/4869183b-f1b5-47f2-906a-b8ab877309f5","resource":{"resourceType":"Coverage","id":"4869183b-f1b5-47f2-906a-b8ab877309f5","meta":{"profile":["http://hl7.org/fhir/us/qicore/StructureDefinition/qicore-coverage"]},"status":"active","beneficiary":{"reference":"Patient/de4005d0-549c-40bb-93b9-26650c194d04"},"payor":[{"reference":"Organization/aeb2c6be-6577-4bba-a6b6-6eab95111f1b"}]},"request":{"method":"PUT","url":"Coverage/4869183b-f1b5-47f2-906a-b8ab877309f5"}},{"fullUrl":"https://madie.cms.gov/Organization/3f798593-f6d3-4ac8-ad21-153246add603","resource":{"resourceType":"Organization","id":"aeb2c6be-6577-4bba-a6b6-6eab95111f1b","meta":{"profile":["http://hl7.org/fhir/us/qicore/StructureDefinition/qicore-organization"]},"identifier":[{"use":"temp","system":"urn:oid:2.16.840.1.113883.4.4","value":"21-3259825"}],"active":true,"type":[{"coding":[{"system":"http://terminology.hl7.org/CodeSystem/organization-type","code":"pay","display":"Payer"}]}],"name":"Blue Cross Blue Shield of Texas","telecom":[{"system":"phone","value":"(+1) 972-766-6900"}],"address":[{"use":"billing","type":"postal","line":["P.O. Box 660044"],"city":"Dallas","state":"TX","postalCode":"75266-0044","country":"USA"}]},"request":{"method":"PUT","url":"Organization/aeb2c6be-6577-4bba-a6b6-6eab95111f1b"}},{"fullUrl":"https://madie.cms.gov/MeasureReport/c8def1f3-54f5-4f53-984e-8214613dc3e0","resource":{"resourceType":"MeasureReport","id":"c8def1f3-54f5-4f53-984e-8214613dc3e0","meta":{"profile":["http://hl7.org/fhir/us/cqfmeasures/StructureDefinition/test-case-cqfm"]},"contained":[{"resourceType":"Parameters","id":"e9fba77d-1cdc-40f1-bdbe-e0b181ed79e3-parameters","parameter":[{"name":"subject","valueString":"de4005d0-549c-40bb-93b9-26650c194d04"}]}],"extension":[{"url":"http://hl7.org/fhir/us/cqfmeasures/StructureDefinition/cqfm-inputParameters","valueReference":{"reference":"#e9fba77d-1cdc-40f1-bdbe-e0b181ed79e3-parameters"}},{"url":"http://hl7.org/fhir/us/cqfmeasures/StructureDefinition/cqfm-testCaseDescription","valueMarkdown":"Patient receives comfort measures performed on the day of hospital arrival,  on IP end. ED ends less than 1 hour before Obs Start, Obs ends less than 1 hour before IP start.\n"}],"modifierExtension":[{"url":"http://hl7.org/fhir/us/cqfmeasures/StructureDefinition/cqfm-isTestCase","valueBoolean":true}],"status":"complete","type":"individual","measure":"https://madie.cms.gov/Measure/CMS72FHIRSTKAntithromboticDay2","period":{"start":"2026-01-01","end":"2026-12-31"},"group":[{"population":[{"code":{"coding":[{"system":"http://terminology.hl7.org/CodeSystem/measure-population","code":"initial-population","display":"Initial Population"}]},"count":1},{"code":{"coding":[{"system":"http://terminology.hl7.org/CodeSystem/measure-population","code":"denominator","display":"Denominator"}]},"count":1},{"code":{"coding":[{"system":"http://terminology.hl7.org/CodeSystem/measure-population","code":"denominator-exclusion","display":"Denominator Exclusion"}]},"count":0},{"code":{"coding":[{"system":"http://terminology.hl7.org/CodeSystem/measure-population","code":"numerator","display":"Numerator"}]},"count":0},{"code":{"coding":[{"system":"http://terminology.hl7.org/CodeSystem/measure-population","code":"denominator-exception","display":"Denominator Exception"}]},"count":0}]}]},"request":{"method":"PUT","url":"MeasureReport/c8def1f3-54f5-4f53-984e-8214613dc3e0"}}]}