{"resourceType":"Bundle","id":"tests-82399522-ba6c-4997-afc9-23f55bb7da89-bundle","type":"transaction","entry":[{"fullUrl":"https://madie.cms.gov/Patient/82399522-ba6c-4997-afc9-23f55bb7da89","resource":{"resourceType":"Patient","id":"82399522-ba6c-4997-afc9-23f55bb7da89","meta":{"profile":["http://hl7.org/fhir/us/qicore/StructureDefinition/qicore-patient"]},"text":{"status":"generated","div":"<div xmlns=\"http://www.w3.org/1999/xhtml\"><div class=\"hapiHeaderText\">MedOrdMedReason_eq1dayduringEncIP <b>DENEXCEPPASS </b></div><table class=\"hapiPropertyTable\"><tbody><tr><td>Identifier</td><td>0bf9ba598fd248583d92ceeedb6d1e4a</td></tr><tr><td>Date of birth</td><td><span>26 September 1975</span></td></tr></tbody></table></div>"},"extension":[{"url":"http://hl7.org/fhir/us/core/StructureDefinition/us-core-race","extension":[{"url":"ombCategory","valueCoding":{"system":"urn:oid:2.16.840.1.113883.6.238","code":"2054-5","display":"Black or African American","userSelected":true}},{"url":"text","valueString":"Black or African American"}]},{"url":"http://hl7.org/fhir/us/core/StructureDefinition/us-core-ethnicity","extension":[{"url":"ombCategory","valueCoding":{"system":"urn:oid:2.16.840.1.113883.6.238","code":"2186-5","display":"Not Hispanic or Latino","userSelected":true}},{"url":"text","valueString":"Not Hispanic or Latino"}]}],"identifier":[{"type":{"coding":[{"system":"http://terminology.hl7.org/CodeSystem/v2-0203","code":"MR"}]},"system":"https://bonnie-fhir.healthit.gov/","value":"60f82c2d98086b570510e24a"}],"active":true,"name":[{"use":"usual","family":"DENEXCEPPass","given":["MedOrdMedReason_eq1dayduringEncIP"]}],"gender":"female","birthDate":"1976-09-26"},"request":{"method":"PUT","url":"Patient/82399522-ba6c-4997-afc9-23f55bb7da89"}},{"fullUrl":"https://madie.cms.gov/Encounter/f3ab7474-a6bf-458f-bc93-d5d8f26ef433","resource":{"resourceType":"Encounter","id":"f3ab7474-a6bf-458f-bc93-d5d8f26ef433","meta":{"profile":["http://hl7.org/fhir/us/qicore/StructureDefinition/qicore-encounter"]},"status":"finished","class":{"system":"http://terminology.hl7.org/CodeSystem/v3-ActCode","code":"IMP","display":"inpatient encounter","userSelected":true},"type":[{"coding":[{"system":"http://snomed.info/sct","code":"32485007"}]}],"subject":{"reference":"Patient/82399522-ba6c-4997-afc9-23f55bb7da89"},"period":{"start":"2026-10-10T09:00:00+00:00","end":"2026-10-12T11:15:00+00:00"},"length":{"value":2,"unit":"days"},"diagnosis":[{"condition":{"reference":"Condition/ef0cbb62-ffc2-49d0-a75a-c50cbbff3db7"},"use":{"coding":[{"system":"http://terminology.hl7.org/CodeSystem/diagnosis-role","code":"billing","display":"Billing"}]},"rank":1}]},"request":{"method":"PUT","url":"Encounter/f3ab7474-a6bf-458f-bc93-d5d8f26ef433"}},{"fullUrl":"https://madie.cms.gov/MedicationRequest/bd13838d-86ce-4788-a1d7-6a0a81596dcc","resource":{"resourceType":"MedicationRequest","id":"bd13838d-86ce-4788-a1d7-6a0a81596dcc","meta":{"profile":["http://hl7.org/fhir/us/qicore/StructureDefinition/qicore-mednotrequested"]},"status":"completed","intent":"order","category":[{"coding":[{"system":"http://terminology.hl7.org/CodeSystem/medicationrequest-category","code":"community"}]}],"doNotPerform":true,"medicationCodeableConcept":{"coding":[{"system":"http://www.nlm.nih.gov/research/umls/rxnorm","code":"1037045"}]},"subject":{"reference":"Patient/82399522-ba6c-4997-afc9-23f55bb7da89"},"authoredOn":"2026-10-11T09:00:00+00:00","requester":{"reference":"Practitioner/example"},"reasonCode":[{"coding":[{"system":"http://snomed.info/sct","code":"183932001","display":"Procedure contraindicated (situation)","userSelected":true}]}],"dosageInstruction":[{"timing":{"repeat":{"boundsPeriod":{"start":"2026-10-11T09:00:00+00:00"}}}}]},"request":{"method":"PUT","url":"MedicationRequest/bd13838d-86ce-4788-a1d7-6a0a81596dcc"}},{"fullUrl":"https://madie.cms.gov/Coverage/15cd4906-93ed-417c-b6ee-77f6b4ecacaf","resource":{"resourceType":"Coverage","id":"15cd4906-93ed-417c-b6ee-77f6b4ecacaf","status":"active","beneficiary":{"reference":"Patient/82399522-ba6c-4997-afc9-23f55bb7da89"},"period":{"start":"1976-09-26T08:00:00+00:00"},"payor":[{"reference":"Organization/9e9b3f13-a353-4173-b29b-947d6f1f2031"}]},"request":{"method":"PUT","url":"Coverage/15cd4906-93ed-417c-b6ee-77f6b4ecacaf"}},{"fullUrl":"https://madie.cms.gov/Condition/ef0cbb62-ffc2-49d0-a75a-c50cbbff3db7","resource":{"resourceType":"Condition","id":"ef0cbb62-ffc2-49d0-a75a-c50cbbff3db7","meta":{"profile":["http://hl7.org/fhir/us/qicore/StructureDefinition/qicore-condition"]},"clinicalStatus":{"coding":[{"system":"http://terminology.hl7.org/CodeSystem/condition-clinical","code":"active"}]},"verificationStatus":{"coding":[{"system":"http://terminology.hl7.org/CodeSystem/condition-ver-status","code":"confirmed"}]},"category":[{"coding":[{"system":"http://terminology.hl7.org/CodeSystem/condition-category","code":"encounter-diagnosis","display":"Encounter Diagnosis"}]}],"code":{"coding":[{"system":"http://snomed.info/sct","version":"2020-09","code":"111297002","display":"Nonparalytic stroke (disorder)","userSelected":true}]},"subject":{"reference":"Patient/82399522-ba6c-4997-afc9-23f55bb7da89"},"recordedDate":"2026-08-06T08:00:00.000+00:00"},"request":{"method":"PUT","url":"Condition/ef0cbb62-ffc2-49d0-a75a-c50cbbff3db7"}},{"fullUrl":"https://madie.cms.gov/Organization/f2bc97d7-6828-44af-a718-5343484d92ef","resource":{"resourceType":"Organization","id":"9e9b3f13-a353-4173-b29b-947d6f1f2031","meta":{"profile":["http://hl7.org/fhir/us/qicore/StructureDefinition/qicore-organization"]},"identifier":[{"use":"temp","system":"urn:oid:2.16.840.1.113883.4.4","value":"21-3259825"}],"active":true,"type":[{"coding":[{"system":"http://terminology.hl7.org/CodeSystem/organization-type","code":"pay","display":"Payer"}]}],"name":"Blue Cross Blue Shield of Texas","telecom":[{"system":"phone","value":"(+1) 972-766-6900"}],"address":[{"use":"billing","type":"postal","line":["P.O. Box 660044"],"city":"Dallas","state":"TX","postalCode":"75266-0044","country":"USA"}]},"request":{"method":"PUT","url":"Organization/9e9b3f13-a353-4173-b29b-947d6f1f2031"}},{"fullUrl":"https://madie.cms.gov/MeasureReport/f293dd5c-7f04-493f-b41d-83a7d01e3c7d","resource":{"resourceType":"MeasureReport","id":"f293dd5c-7f04-493f-b41d-83a7d01e3c7d","meta":{"profile":["http://hl7.org/fhir/us/cqfmeasures/StructureDefinition/test-case-cqfm"]},"contained":[{"resourceType":"Parameters","id":"fb4c767c-7c5c-49f5-b400-644bad790b4d-parameters","parameter":[{"name":"subject","valueString":"82399522-ba6c-4997-afc9-23f55bb7da89"}]}],"extension":[{"url":"http://hl7.org/fhir/us/cqfmeasures/StructureDefinition/cqfm-inputParameters","valueReference":{"reference":"#fb4c767c-7c5c-49f5-b400-644bad790b4d-parameters"}},{"url":"http://hl7.org/fhir/us/cqfmeasures/StructureDefinition/cqfm-testCaseDescription","valueMarkdown":"antithrombotic not done due to medical reason =1 day after IP encounter starts AND NOT ED visit\n"}],"modifierExtension":[{"url":"http://hl7.org/fhir/us/cqfmeasures/StructureDefinition/cqfm-isTestCase","valueBoolean":true}],"status":"complete","type":"individual","measure":"https://madie.cms.gov/Measure/CMS72FHIRSTKAntithromboticDay2","period":{"start":"2026-01-01","end":"2026-12-31"},"group":[{"population":[{"code":{"coding":[{"system":"http://terminology.hl7.org/CodeSystem/measure-population","code":"initial-population","display":"Initial Population"}]},"count":1},{"code":{"coding":[{"system":"http://terminology.hl7.org/CodeSystem/measure-population","code":"denominator","display":"Denominator"}]},"count":1},{"code":{"coding":[{"system":"http://terminology.hl7.org/CodeSystem/measure-population","code":"denominator-exclusion","display":"Denominator Exclusion"}]},"count":0},{"code":{"coding":[{"system":"http://terminology.hl7.org/CodeSystem/measure-population","code":"numerator","display":"Numerator"}]},"count":0},{"code":{"coding":[{"system":"http://terminology.hl7.org/CodeSystem/measure-population","code":"denominator-exception","display":"Denominator Exception"}]},"count":1}]}]},"request":{"method":"PUT","url":"MeasureReport/f293dd5c-7f04-493f-b41d-83a7d01e3c7d"}}]}