{"resourceType":"Bundle","id":"tests-3b193bfc-511a-49a2-987a-50d8c7d9a0df-bundle","type":"transaction","entry":[{"fullUrl":"https://madie.cms.gov/Patient/3b193bfc-511a-49a2-987a-50d8c7d9a0df","resource":{"resourceType":"Patient","id":"3b193bfc-511a-49a2-987a-50d8c7d9a0df","meta":{"profile":["http://hl7.org/fhir/us/qicore/StructureDefinition/qicore-patient"]},"text":{"status":"generated","div":"<div xmlns=\"http://www.w3.org/1999/xhtml\"><div class=\"hapiHeaderText\">CMP_DayOf_RelvDat_1minB4EDEnd_EDEndLT1hrB4Obs_ObsEndLT1hrB4IP <b>DENEXPASS </b></div><table class=\"hapiPropertyTable\"><tbody><tr><td>Identifier</td><td>e45ea273a97caf856d1691cd883a08e0</td></tr><tr><td>Date of birth</td><td><span>26 September 1975</span></td></tr></tbody></table></div>"},"extension":[{"url":"http://hl7.org/fhir/us/core/StructureDefinition/us-core-race","extension":[{"url":"ombCategory","valueCoding":{"system":"urn:oid:2.16.840.1.113883.6.238","code":"2054-5","display":"Black or African American","userSelected":true}},{"url":"text","valueString":"Black or African American"}]},{"url":"http://hl7.org/fhir/us/core/StructureDefinition/us-core-ethnicity","extension":[{"url":"ombCategory","valueCoding":{"system":"urn:oid:2.16.840.1.113883.6.238","code":"2186-5","display":"Not Hispanic or Latino","userSelected":true}},{"url":"text","valueString":"Not Hispanic or Latino"}]}],"identifier":[{"type":{"coding":[{"system":"http://terminology.hl7.org/CodeSystem/v2-0203","code":"MR"}]},"system":"https://bonnie-fhir.healthit.gov/","value":"60f82c2e98086b570510e287"}],"active":true,"name":[{"use":"usual","family":"DENEXPass","given":["CMP_DayOf_RelvDat_1minB4EDEnd_EDEndLT1hrB4Obs_ObsEndLT1hrB4IP"]}],"gender":"female","birthDate":"1976-09-26"},"request":{"method":"PUT","url":"Patient/3b193bfc-511a-49a2-987a-50d8c7d9a0df"}},{"fullUrl":"https://madie.cms.gov/Encounter/bfa0b84d-d65f-48c6-9be1-181e1ed409c7","resource":{"resourceType":"Encounter","id":"bfa0b84d-d65f-48c6-9be1-181e1ed409c7","meta":{"profile":["http://hl7.org/fhir/us/qicore/StructureDefinition/qicore-encounter"]},"status":"finished","class":{"system":"http://terminology.hl7.org/CodeSystem/v3-ActCode","code":"EMER","display":"emergency"},"type":[{"coding":[{"system":"http://snomed.info/sct","code":"4525004"}]}],"subject":{"reference":"Patient/3b193bfc-511a-49a2-987a-50d8c7d9a0df"},"period":{"start":"2026-10-10T04:00:00+00:00","end":"2026-10-10T06:00:00+00:00"},"length":{"value":1,"unit":"days"}},"request":{"method":"PUT","url":"Encounter/bfa0b84d-d65f-48c6-9be1-181e1ed409c7"}},{"fullUrl":"https://madie.cms.gov/Encounter/41b05682-3c28-401f-b27f-0ca614413c4e","resource":{"resourceType":"Encounter","id":"41b05682-3c28-401f-b27f-0ca614413c4e","meta":{"profile":["http://hl7.org/fhir/us/qicore/StructureDefinition/qicore-encounter"]},"status":"finished","class":{"system":"http://terminology.hl7.org/CodeSystem/v3-ActCode","code":"IMP","display":"inpatient encounter"},"type":[{"coding":[{"system":"http://snomed.info/sct","code":"32485007"}]}],"subject":{"reference":"Patient/3b193bfc-511a-49a2-987a-50d8c7d9a0df"},"period":{"start":"2026-10-10T08:59:00+00:00","end":"2026-10-11T11:15:00+00:00"},"length":{"value":1,"unit":"days"},"diagnosis":[{"condition":{"reference":"Condition/b2bbbe78-2c57-4e05-bffc-1115b23401b6"},"use":{"coding":[{"system":"http://terminology.hl7.org/CodeSystem/diagnosis-role","code":"billing","display":"Billing"}]},"rank":1}]},"request":{"method":"PUT","url":"Encounter/41b05682-3c28-401f-b27f-0ca614413c4e"}},{"fullUrl":"https://madie.cms.gov/Encounter/4006d9ac-9c3b-487b-b983-c737f5b97e65","resource":{"resourceType":"Encounter","id":"4006d9ac-9c3b-487b-b983-c737f5b97e65","meta":{"profile":["http://hl7.org/fhir/us/qicore/StructureDefinition/qicore-encounter"]},"status":"finished","class":{"system":"http://terminology.hl7.org/CodeSystem/v3-ActCode","code":"OBSENC","display":"observation encounter"},"type":[{"coding":[{"system":"http://snomed.info/sct","code":"448951000124107"}]}],"subject":{"reference":"Patient/3b193bfc-511a-49a2-987a-50d8c7d9a0df"},"period":{"start":"2026-10-10T06:59:00+00:00","end":"2026-10-10T08:00:00+00:00"}},"request":{"method":"PUT","url":"Encounter/4006d9ac-9c3b-487b-b983-c737f5b97e65"}},{"fullUrl":"https://madie.cms.gov/Procedure/4831413a-ccc5-4da1-8dd9-50152424e2cf","resource":{"resourceType":"Procedure","id":"4831413a-ccc5-4da1-8dd9-50152424e2cf","meta":{"profile":["http://hl7.org/fhir/us/qicore/StructureDefinition/qicore-procedure"]},"extension":[{"url":"http://hl7.org/fhir/us/qicore/StructureDefinition/qicore-recorded","valueDateTime":"2026-10-10T05:59:00+00:00"}],"status":"completed","code":{"coding":[{"system":"http://snomed.info/sct","code":"133918004"}]},"subject":{"reference":"Patient/3b193bfc-511a-49a2-987a-50d8c7d9a0df"},"performedPeriod":{"start":"2026-10-10T05:59:00+00:00","end":"2026-10-10T06:00:00+00:00"}},"request":{"method":"PUT","url":"Procedure/4831413a-ccc5-4da1-8dd9-50152424e2cf"}},{"fullUrl":"https://madie.cms.gov/Coverage/95afb05f-01e9-4c97-81e6-89d18318ab45","resource":{"resourceType":"Coverage","id":"95afb05f-01e9-4c97-81e6-89d18318ab45","status":"active","beneficiary":{"reference":"Patient/3b193bfc-511a-49a2-987a-50d8c7d9a0df"},"period":{"start":"1976-09-26T08:00:00+00:00"},"payor":[{"reference":"Organization/e75793c9-fdf6-463a-8c1d-4ee44320dc25"}]},"request":{"method":"PUT","url":"Coverage/95afb05f-01e9-4c97-81e6-89d18318ab45"}},{"fullUrl":"https://madie.cms.gov/Condition/b2bbbe78-2c57-4e05-bffc-1115b23401b6","resource":{"resourceType":"Condition","id":"b2bbbe78-2c57-4e05-bffc-1115b23401b6","meta":{"profile":["http://hl7.org/fhir/us/qicore/StructureDefinition/qicore-condition"]},"clinicalStatus":{"coding":[{"system":"http://terminology.hl7.org/CodeSystem/condition-clinical","code":"active"}]},"verificationStatus":{"coding":[{"system":"http://terminology.hl7.org/CodeSystem/condition-ver-status","code":"confirmed"}]},"category":[{"coding":[{"system":"http://terminology.hl7.org/CodeSystem/condition-category","code":"encounter-diagnosis","display":"Encounter Diagnosis"}]}],"code":{"coding":[{"system":"http://snomed.info/sct","version":"2020-09","code":"111297002","display":"Nonparalytic stroke (disorder)","userSelected":true}]},"subject":{"reference":"Patient/3b193bfc-511a-49a2-987a-50d8c7d9a0df"},"recordedDate":"2026-08-13T08:00:00.000+00:00"},"request":{"method":"PUT","url":"Condition/b2bbbe78-2c57-4e05-bffc-1115b23401b6"}},{"fullUrl":"https://madie.cms.gov/Organization/7024510e-9835-4e6f-b158-33608dbf7e5d","resource":{"resourceType":"Organization","id":"e75793c9-fdf6-463a-8c1d-4ee44320dc25","meta":{"profile":["http://hl7.org/fhir/us/qicore/StructureDefinition/qicore-organization"]},"identifier":[{"use":"temp","system":"urn:oid:2.16.840.1.113883.4.4","value":"21-3259825"}],"active":true,"type":[{"coding":[{"system":"http://terminology.hl7.org/CodeSystem/organization-type","code":"pay","display":"Payer"}]}],"name":"Blue Cross Blue Shield of Texas","telecom":[{"system":"phone","value":"(+1) 972-766-6900"}],"address":[{"use":"billing","type":"postal","line":["P.O. Box 660044"],"city":"Dallas","state":"TX","postalCode":"75266-0044","country":"USA"}]},"request":{"method":"PUT","url":"Organization/e75793c9-fdf6-463a-8c1d-4ee44320dc25"}},{"fullUrl":"https://madie.cms.gov/MeasureReport/ac794612-35fb-4e46-beaa-c46e02178025","resource":{"resourceType":"MeasureReport","id":"ac794612-35fb-4e46-beaa-c46e02178025","meta":{"profile":["http://hl7.org/fhir/us/cqfmeasures/StructureDefinition/test-case-cqfm"]},"contained":[{"resourceType":"Parameters","id":"d96307b5-0f1f-4bdb-b10f-df1b05cd3329-parameters","parameter":[{"name":"subject","valueString":"3b193bfc-511a-49a2-987a-50d8c7d9a0df"}]}],"extension":[{"url":"http://hl7.org/fhir/us/cqfmeasures/StructureDefinition/cqfm-inputParameters","valueReference":{"reference":"#d96307b5-0f1f-4bdb-b10f-df1b05cd3329-parameters"}},{"url":"http://hl7.org/fhir/us/cqfmeasures/StructureDefinition/cqfm-testCaseDescription","valueMarkdown":"Comfort measures performed on the first day of hospitalization using relevant date time, 1 minute before ED end, ED ends less than 1 hour before Obs, Obs ends less than 1 hour before IP. \n"}],"modifierExtension":[{"url":"http://hl7.org/fhir/us/cqfmeasures/StructureDefinition/cqfm-isTestCase","valueBoolean":true}],"status":"complete","type":"individual","measure":"https://madie.cms.gov/Measure/CMS72FHIRSTKAntithromboticDay2","period":{"start":"2026-01-01","end":"2026-12-31"},"group":[{"population":[{"code":{"coding":[{"system":"http://terminology.hl7.org/CodeSystem/measure-population","code":"initial-population","display":"Initial Population"}]},"count":1},{"code":{"coding":[{"system":"http://terminology.hl7.org/CodeSystem/measure-population","code":"denominator","display":"Denominator"}]},"count":1},{"code":{"coding":[{"system":"http://terminology.hl7.org/CodeSystem/measure-population","code":"denominator-exclusion","display":"Denominator Exclusion"}]},"count":1},{"code":{"coding":[{"system":"http://terminology.hl7.org/CodeSystem/measure-population","code":"numerator","display":"Numerator"}]},"count":0},{"code":{"coding":[{"system":"http://terminology.hl7.org/CodeSystem/measure-population","code":"denominator-exception","display":"Denominator Exception"}]},"count":0}]}]},"request":{"method":"PUT","url":"MeasureReport/ac794612-35fb-4e46-beaa-c46e02178025"}}]}