{"resourceType":"Bundle","id":"tests-b83b6e42-6291-4b2c-83e0-06e09e30e973-bundle","type":"transaction","entry":[{"fullUrl":"https://madie.cms.gov/Patient/b83b6e42-6291-4b2c-83e0-06e09e30e973","resource":{"resourceType":"Patient","id":"b83b6e42-6291-4b2c-83e0-06e09e30e973","meta":{"profile":["http://hl7.org/fhir/us/qicore/StructureDefinition/qicore-patient"]},"text":{"status":"generated","div":"<div xmlns=\"http://www.w3.org/1999/xhtml\"><div class=\"hapiHeaderText\">CMO_DayOf_AuthDat_OnEDStart_EDEndLT1hrB4Obs_ObsEndLT1hrB4IP <b>DENEXPASS </b></div><table class=\"hapiPropertyTable\"><tbody><tr><td>Date of birth</td><td><span>01 January 1980</span></td></tr></tbody></table></div>"},"extension":[{"url":"http://hl7.org/fhir/us/core/StructureDefinition/us-core-race","extension":[{"url":"ombCategory","valueCoding":{"system":"urn:oid:2.16.840.1.113883.6.238","code":"2106-3","display":"White","userSelected":true}},{"url":"text","valueString":"White"}]},{"url":"http://hl7.org/fhir/us/core/StructureDefinition/us-core-ethnicity","extension":[{"url":"ombCategory","valueCoding":{"system":"urn:oid:2.16.840.1.113883.6.238","code":"2186-5","display":"Not Hispanic or Latino","userSelected":true}},{"url":"text","valueString":"Not Hispanic or Latino"}]}],"identifier":[{"type":{"coding":[{"system":"http://terminology.hl7.org/CodeSystem/v2-0203","code":"MR"}]},"system":"https://bonnie-fhir.healthit.gov/","value":"60f82c3098086b570510e2f5"}],"active":true,"name":[{"use":"usual","family":"DENEXPass","given":["CMO_DayOf_AuthDat_OnEDStart_EDEndLT1hrB4Obs_ObsEndLT1hrB4IP"]}],"gender":"female","birthDate":"1981-01-01"},"request":{"method":"PUT","url":"Patient/b83b6e42-6291-4b2c-83e0-06e09e30e973"}},{"fullUrl":"https://madie.cms.gov/Encounter/37d4ceec-9074-4400-ae4b-91e18d17a1ce","resource":{"resourceType":"Encounter","id":"37d4ceec-9074-4400-ae4b-91e18d17a1ce","meta":{"profile":["http://hl7.org/fhir/us/qicore/StructureDefinition/qicore-encounter"]},"status":"finished","class":{"system":"http://terminology.hl7.org/CodeSystem/v3-ActCode","code":"EMER","display":"emergency","userSelected":true},"type":[{"coding":[{"system":"http://snomed.info/sct","code":"4525004"}]}],"subject":{"reference":"Patient/b83b6e42-6291-4b2c-83e0-06e09e30e973"},"period":{"start":"2026-11-18T07:00:00+00:00","end":"2026-11-18T08:01:00+00:00"},"diagnosis":[{"condition":{"reference":"Condition/39eaf19c-b5c3-4d6f-a39e-42b9673311b1"},"use":{"coding":[{"system":"http://snomed.info/sct","code":"111297002","display":"Nonparalytic stroke (disorder)"}]},"rank":1}]},"request":{"method":"PUT","url":"Encounter/37d4ceec-9074-4400-ae4b-91e18d17a1ce"}},{"fullUrl":"https://madie.cms.gov/Encounter/3b7c2352-9f7e-4a28-92ed-12c440854113","resource":{"resourceType":"Encounter","id":"3b7c2352-9f7e-4a28-92ed-12c440854113","meta":{"profile":["http://hl7.org/fhir/us/qicore/StructureDefinition/qicore-encounter"]},"status":"finished","class":{"system":"http://terminology.hl7.org/CodeSystem/v3-ActCode","code":"OBSENC","display":"observation encounter","userSelected":true},"type":[{"coding":[{"system":"http://snomed.info/sct","code":"448951000124107"}]}],"subject":{"reference":"Patient/b83b6e42-6291-4b2c-83e0-06e09e30e973"},"period":{"start":"2026-11-18T09:00:00+00:00","end":"2026-11-18T10:01:00+00:00"}},"request":{"method":"PUT","url":"Encounter/3b7c2352-9f7e-4a28-92ed-12c440854113"}},{"fullUrl":"https://madie.cms.gov/Encounter/debcac5c-7657-44da-ba4c-939f012ed9ee","resource":{"resourceType":"Encounter","id":"debcac5c-7657-44da-ba4c-939f012ed9ee","meta":{"profile":["http://hl7.org/fhir/us/qicore/StructureDefinition/qicore-encounter"]},"status":"finished","class":{"system":"http://terminology.hl7.org/CodeSystem/v3-ActCode","code":"IMP","display":"inpatient encounter","userSelected":true},"type":[{"coding":[{"system":"http://snomed.info/sct","code":"183452005"}]}],"subject":{"reference":"Patient/b83b6e42-6291-4b2c-83e0-06e09e30e973"},"period":{"start":"2026-11-18T11:00:00+00:00","end":"2026-11-20T08:15:00+00:00"},"diagnosis":[{"condition":{"reference":"Condition/39eaf19c-b5c3-4d6f-a39e-42b9673311b1"},"use":{"coding":[{"system":"http://terminology.hl7.org/CodeSystem/diagnosis-role","code":"billing","display":"Billing"}]},"rank":1}]},"request":{"method":"PUT","url":"Encounter/debcac5c-7657-44da-ba4c-939f012ed9ee"}},{"fullUrl":"https://madie.cms.gov/ServiceRequest/28e4900a-1364-4649-b7a4-b9f203576f0e","resource":{"resourceType":"ServiceRequest","id":"28e4900a-1364-4649-b7a4-b9f203576f0e","meta":{"profile":["http://hl7.org/fhir/us/qicore/StructureDefinition/qicore-servicerequest"]},"status":"active","intent":"order","code":{"coding":[{"system":"http://snomed.info/sct","code":"133918004"}]},"subject":{"reference":"Patient/b83b6e42-6291-4b2c-83e0-06e09e30e973"},"authoredOn":"2026-11-18T07:00:00+00:00"},"request":{"method":"PUT","url":"ServiceRequest/28e4900a-1364-4649-b7a4-b9f203576f0e"}},{"fullUrl":"https://madie.cms.gov/Condition/39eaf19c-b5c3-4d6f-a39e-42b9673311b1","resource":{"resourceType":"Condition","id":"39eaf19c-b5c3-4d6f-a39e-42b9673311b1","meta":{"profile":["http://hl7.org/fhir/us/qicore/StructureDefinition/qicore-condition"]},"clinicalStatus":{"coding":[{"system":"http://terminology.hl7.org/CodeSystem/condition-clinical","code":"active"}]},"verificationStatus":{"coding":[{"system":"http://terminology.hl7.org/CodeSystem/condition-ver-status","code":"confirmed"}]},"category":[{"coding":[{"system":"http://terminology.hl7.org/CodeSystem/condition-category","code":"encounter-diagnosis","display":"Encounter Diagnosis"}]}],"code":{"coding":[{"system":"http://snomed.info/sct","version":"2020-09","code":"111297002","display":"Nonparalytic stroke (disorder)","userSelected":true}]},"subject":{"reference":"Patient/b83b6e42-6291-4b2c-83e0-06e09e30e973"},"recordedDate":"2026-08-13T08:00:00.000+00:00"},"request":{"method":"PUT","url":"Condition/39eaf19c-b5c3-4d6f-a39e-42b9673311b1"}},{"fullUrl":"https://madie.cms.gov/Coverage/b57cb240-a44f-4ea1-95ee-c5ae1b770ca8","resource":{"resourceType":"Coverage","id":"b57cb240-a44f-4ea1-95ee-c5ae1b770ca8","meta":{"profile":["http://hl7.org/fhir/us/qicore/StructureDefinition/qicore-coverage"]},"status":"active","beneficiary":{"reference":"Patient/b83b6e42-6291-4b2c-83e0-06e09e30e973"},"payor":[{"reference":"Organization/890316dc-a4ad-43b4-ba6f-9fb9e6eca282"}]},"request":{"method":"PUT","url":"Coverage/b57cb240-a44f-4ea1-95ee-c5ae1b770ca8"}},{"fullUrl":"https://madie.cms.gov/Organization/cf0b3dbd-d5cd-4001-b2bc-6574cc922994","resource":{"resourceType":"Organization","id":"890316dc-a4ad-43b4-ba6f-9fb9e6eca282","meta":{"profile":["http://hl7.org/fhir/us/qicore/StructureDefinition/qicore-organization"]},"identifier":[{"use":"temp","system":"urn:oid:2.16.840.1.113883.4.4","value":"21-3259825"}],"active":true,"type":[{"coding":[{"system":"http://terminology.hl7.org/CodeSystem/organization-type","code":"pay","display":"Payer"}]}],"name":"Blue Cross Blue Shield of Texas","telecom":[{"system":"phone","value":"(+1) 972-766-6900"}],"address":[{"use":"billing","type":"postal","line":["P.O. Box 660044"],"city":"Dallas","state":"TX","postalCode":"75266-0044","country":"USA"}]},"request":{"method":"PUT","url":"Organization/890316dc-a4ad-43b4-ba6f-9fb9e6eca282"}},{"fullUrl":"https://madie.cms.gov/MeasureReport/8a1f5455-b303-4f8c-a39c-c5759855c7cd","resource":{"resourceType":"MeasureReport","id":"8a1f5455-b303-4f8c-a39c-c5759855c7cd","meta":{"profile":["http://hl7.org/fhir/us/cqfmeasures/StructureDefinition/test-case-cqfm"]},"contained":[{"resourceType":"Parameters","id":"034cc7c5-cda2-44d3-819b-ca012f72bde8-parameters","parameter":[{"name":"subject","valueString":"b83b6e42-6291-4b2c-83e0-06e09e30e973"}]}],"extension":[{"url":"http://hl7.org/fhir/us/cqfmeasures/StructureDefinition/cqfm-inputParameters","valueReference":{"reference":"#034cc7c5-cda2-44d3-819b-ca012f72bde8-parameters"}},{"url":"http://hl7.org/fhir/us/cqfmeasures/StructureDefinition/cqfm-testCaseDescription","valueMarkdown":"Patient receives comfort measures ordereded on the day of hospital arrival, on the start of the ED start. ED ends less than 1 hour before Obs Start, Obs ends less than 1 hour before IP start.\n"}],"modifierExtension":[{"url":"http://hl7.org/fhir/us/cqfmeasures/StructureDefinition/cqfm-isTestCase","valueBoolean":true}],"status":"complete","type":"individual","measure":"https://madie.cms.gov/Measure/CMS72FHIRSTKAntithromboticDay2","period":{"start":"2026-01-01","end":"2026-12-31"},"group":[{"population":[{"code":{"coding":[{"system":"http://terminology.hl7.org/CodeSystem/measure-population","code":"initial-population","display":"Initial Population"}]},"count":1},{"code":{"coding":[{"system":"http://terminology.hl7.org/CodeSystem/measure-population","code":"denominator","display":"Denominator"}]},"count":1},{"code":{"coding":[{"system":"http://terminology.hl7.org/CodeSystem/measure-population","code":"denominator-exclusion","display":"Denominator Exclusion"}]},"count":1},{"code":{"coding":[{"system":"http://terminology.hl7.org/CodeSystem/measure-population","code":"numerator","display":"Numerator"}]},"count":0},{"code":{"coding":[{"system":"http://terminology.hl7.org/CodeSystem/measure-population","code":"denominator-exception","display":"Denominator Exception"}]},"count":0}]}]},"request":{"method":"PUT","url":"MeasureReport/8a1f5455-b303-4f8c-a39c-c5759855c7cd"}}]}