{"resourceType":"Bundle","id":"tests-fba66844-a0b7-4a8b-a33b-d75df55e9fea-bundle","type":"transaction","entry":[{"fullUrl":"https://madie.cms.gov/Patient/fba66844-a0b7-4a8b-a33b-d75df55e9fea","resource":{"resourceType":"Patient","id":"fba66844-a0b7-4a8b-a33b-d75df55e9fea","meta":{"profile":["http://hl7.org/fhir/us/qicore/StructureDefinition/qicore-patient"]},"text":{"status":"generated","div":"<div xmlns=\"http://www.w3.org/1999/xhtml\"><div class=\"hapiHeaderText\">MedTPAdurObs_ED&lt;1hrObs&lt;1hrBFEnc <b>DENEXPASS </b></div><table class=\"hapiPropertyTable\"><tbody><tr><td>Identifier</td><td>1849d3434d2b47f16c7674f9526a9103bbee1b7e9de727db2be8290bb8155111</td></tr><tr><td>Date of birth</td><td><span>26 September 1975</span></td></tr></tbody></table></div>"},"extension":[{"url":"http://hl7.org/fhir/us/core/StructureDefinition/us-core-race","extension":[{"url":"ombCategory","valueCoding":{"system":"urn:oid:2.16.840.1.113883.6.238","code":"2054-5","display":"Black or African American","userSelected":true}},{"url":"text","valueString":"Black or African American"}]},{"url":"http://hl7.org/fhir/us/core/StructureDefinition/us-core-ethnicity","extension":[{"url":"ombCategory","valueCoding":{"system":"urn:oid:2.16.840.1.113883.6.238","code":"2186-5","display":"Not Hispanic or Latino","userSelected":true}},{"url":"text","valueString":"Not Hispanic or Latino"}]}],"identifier":[{"type":{"coding":[{"system":"http://terminology.hl7.org/CodeSystem/v2-0203","code":"MR"}]},"system":"https://bonnie-fhir.healthit.gov/","value":"60f82c2f98086b570510e29d"}],"active":true,"name":[{"use":"usual","family":"DENEXPass","given":["MedTPAdurObs_ED<1hrObs<1hrBFEnc"]}],"gender":"female","birthDate":"1976-09-26"},"request":{"method":"PUT","url":"Patient/fba66844-a0b7-4a8b-a33b-d75df55e9fea"}},{"fullUrl":"https://madie.cms.gov/Encounter/c7cd8e85-c0eb-48f7-bcef-9236c21d55c6","resource":{"resourceType":"Encounter","id":"c7cd8e85-c0eb-48f7-bcef-9236c21d55c6","meta":{"profile":["http://hl7.org/fhir/us/qicore/StructureDefinition/qicore-encounter"]},"status":"finished","class":{"system":"http://terminology.hl7.org/CodeSystem/v3-ActCode","code":"EMER","display":"emergency"},"type":[{"coding":[{"system":"http://snomed.info/sct","code":"4525004"}]}],"subject":{"reference":"Patient/fba66844-a0b7-4a8b-a33b-d75df55e9fea"},"period":{"start":"2026-10-10T06:00:00+00:00","end":"2026-10-10T06:30:00+00:00"},"length":{"value":0,"unit":"days"}},"request":{"method":"PUT","url":"Encounter/c7cd8e85-c0eb-48f7-bcef-9236c21d55c6"}},{"fullUrl":"https://madie.cms.gov/Encounter/1caf1b78-7dff-4a50-bfbf-e5294e58af2f","resource":{"resourceType":"Encounter","id":"1caf1b78-7dff-4a50-bfbf-e5294e58af2f","meta":{"profile":["http://hl7.org/fhir/us/qicore/StructureDefinition/qicore-encounter"]},"status":"finished","class":{"system":"http://terminology.hl7.org/CodeSystem/v3-ActCode","code":"OBSENC","display":"observation encounter"},"type":[{"coding":[{"system":"http://snomed.info/sct","code":"448851000124103"}]}],"subject":{"reference":"Patient/fba66844-a0b7-4a8b-a33b-d75df55e9fea"},"period":{"start":"2026-10-10T06:31:00+00:00","end":"2026-10-10T07:30:00+00:00"},"length":{"value":0,"unit":"days"}},"request":{"method":"PUT","url":"Encounter/1caf1b78-7dff-4a50-bfbf-e5294e58af2f"}},{"fullUrl":"https://madie.cms.gov/Encounter/ed3ee908-9a01-4218-aeb2-3dc12290d977","resource":{"resourceType":"Encounter","id":"ed3ee908-9a01-4218-aeb2-3dc12290d977","meta":{"profile":["http://hl7.org/fhir/us/qicore/StructureDefinition/qicore-encounter"]},"status":"finished","class":{"system":"http://terminology.hl7.org/CodeSystem/v3-ActCode","code":"IMP","display":"inpatient encounter"},"type":[{"coding":[{"system":"http://snomed.info/sct","code":"32485007"}]}],"subject":{"reference":"Patient/fba66844-a0b7-4a8b-a33b-d75df55e9fea"},"period":{"start":"2026-10-10T07:31:00+00:00","end":"2026-10-12T11:15:00+00:00"},"length":{"value":2,"unit":"days"},"diagnosis":[{"condition":{"reference":"Condition/2bc4e0e1-7a4b-47e6-a526-91cce4807fd2"},"use":{"coding":[{"system":"http://terminology.hl7.org/CodeSystem/diagnosis-role","code":"billing","display":"Billing"}]},"rank":1}]},"request":{"method":"PUT","url":"Encounter/ed3ee908-9a01-4218-aeb2-3dc12290d977"}},{"fullUrl":"https://madie.cms.gov/MedicationAdministration/bfbf9893-4444-4be6-af4b-d8ca5b84d4e5","resource":{"resourceType":"MedicationAdministration","id":"bfbf9893-4444-4be6-af4b-d8ca5b84d4e5","meta":{"profile":["http://hl7.org/fhir/us/qicore/StructureDefinition/qicore-medicationadministration"]},"status":"completed","medicationCodeableConcept":{"coding":[{"system":"http://www.nlm.nih.gov/research/umls/rxnorm","code":"1804799"}]},"subject":{"reference":"Patient/fba66844-a0b7-4a8b-a33b-d75df55e9fea"},"effectivePeriod":{"start":"2026-10-10T06:31:00+00:00"}},"request":{"method":"PUT","url":"MedicationAdministration/bfbf9893-4444-4be6-af4b-d8ca5b84d4e5"}},{"fullUrl":"https://madie.cms.gov/Coverage/b3de0b27-f2d4-41fe-92fe-f5993301250a","resource":{"resourceType":"Coverage","id":"b3de0b27-f2d4-41fe-92fe-f5993301250a","status":"active","beneficiary":{"reference":"Patient/fba66844-a0b7-4a8b-a33b-d75df55e9fea"},"period":{"start":"1976-09-26T08:00:00+00:00"},"payor":[{"reference":"Organization/5ad6ea38-07e9-4482-9e1b-c09eee595be9"}]},"request":{"method":"PUT","url":"Coverage/b3de0b27-f2d4-41fe-92fe-f5993301250a"}},{"fullUrl":"https://madie.cms.gov/Condition/2bc4e0e1-7a4b-47e6-a526-91cce4807fd2","resource":{"resourceType":"Condition","id":"2bc4e0e1-7a4b-47e6-a526-91cce4807fd2","meta":{"profile":["http://hl7.org/fhir/us/qicore/StructureDefinition/qicore-condition"]},"clinicalStatus":{"coding":[{"system":"http://terminology.hl7.org/CodeSystem/condition-clinical","code":"active"}]},"verificationStatus":{"coding":[{"system":"http://terminology.hl7.org/CodeSystem/condition-ver-status","code":"confirmed"}]},"category":[{"coding":[{"system":"http://terminology.hl7.org/CodeSystem/condition-category","code":"encounter-diagnosis","display":"Encounter Diagnosis"}]}],"code":{"coding":[{"system":"http://snomed.info/sct","version":"2020-09","code":"111297002","display":"Nonparalytic stroke (disorder)","userSelected":true}]},"subject":{"reference":"Patient/fba66844-a0b7-4a8b-a33b-d75df55e9fea"},"recordedDate":"2026-08-13T08:00:00.000+00:00"},"request":{"method":"PUT","url":"Condition/2bc4e0e1-7a4b-47e6-a526-91cce4807fd2"}},{"fullUrl":"https://madie.cms.gov/Organization/e7a419d7-a5b5-4d2d-af77-3fac2fef42e6","resource":{"resourceType":"Organization","id":"5ad6ea38-07e9-4482-9e1b-c09eee595be9","meta":{"profile":["http://hl7.org/fhir/us/qicore/StructureDefinition/qicore-organization"]},"identifier":[{"use":"temp","system":"urn:oid:2.16.840.1.113883.4.4","value":"21-3259825"}],"active":true,"type":[{"coding":[{"system":"http://terminology.hl7.org/CodeSystem/organization-type","code":"pay","display":"Payer"}]}],"name":"Blue Cross Blue Shield of Texas","telecom":[{"system":"phone","value":"(+1) 972-766-6900"}],"address":[{"use":"billing","type":"postal","line":["P.O. Box 660044"],"city":"Dallas","state":"TX","postalCode":"75266-0044","country":"USA"}]},"request":{"method":"PUT","url":"Organization/5ad6ea38-07e9-4482-9e1b-c09eee595be9"}},{"fullUrl":"https://madie.cms.gov/MeasureReport/b01e79ec-ecbf-4471-9710-da1ae470051b","resource":{"resourceType":"MeasureReport","id":"b01e79ec-ecbf-4471-9710-da1ae470051b","meta":{"profile":["http://hl7.org/fhir/us/cqfmeasures/StructureDefinition/test-case-cqfm"]},"contained":[{"resourceType":"Parameters","id":"1afe8706-1d2b-49bb-a8dd-a6a16e467d4b-parameters","parameter":[{"name":"subject","valueString":"fba66844-a0b7-4a8b-a33b-d75df55e9fea"}]}],"extension":[{"url":"http://hl7.org/fhir/us/cqfmeasures/StructureDefinition/cqfm-inputParameters","valueReference":{"reference":"#1afe8706-1d2b-49bb-a8dd-a6a16e467d4b-parameters"}},{"url":"http://hl7.org/fhir/us/cqfmeasures/StructureDefinition/cqfm-testCaseDescription","valueMarkdown":"Patient receives thrombolytic therapy prior to arrival as an encounter diagnosis.\n"}],"modifierExtension":[{"url":"http://hl7.org/fhir/us/cqfmeasures/StructureDefinition/cqfm-isTestCase","valueBoolean":true}],"status":"complete","type":"individual","measure":"https://madie.cms.gov/Measure/CMS72FHIRSTKAntithromboticDay2","period":{"start":"2026-01-01","end":"2026-12-31"},"group":[{"population":[{"code":{"coding":[{"system":"http://terminology.hl7.org/CodeSystem/measure-population","code":"initial-population","display":"Initial Population"}]},"count":1},{"code":{"coding":[{"system":"http://terminology.hl7.org/CodeSystem/measure-population","code":"denominator","display":"Denominator"}]},"count":1},{"code":{"coding":[{"system":"http://terminology.hl7.org/CodeSystem/measure-population","code":"denominator-exclusion","display":"Denominator Exclusion"}]},"count":1},{"code":{"coding":[{"system":"http://terminology.hl7.org/CodeSystem/measure-population","code":"numerator","display":"Numerator"}]},"count":0},{"code":{"coding":[{"system":"http://terminology.hl7.org/CodeSystem/measure-population","code":"denominator-exception","display":"Denominator Exception"}]},"count":0}]}]},"request":{"method":"PUT","url":"MeasureReport/b01e79ec-ecbf-4471-9710-da1ae470051b"}}]}