{"resourceType":"Bundle","id":"tests-155afb0b-baef-4e1a-8255-dd3bc96c9c0d-bundle","type":"transaction","entry":[{"fullUrl":"https://madie.cms.gov/Patient/155afb0b-baef-4e1a-8255-dd3bc96c9c0d","resource":{"resourceType":"Patient","id":"155afb0b-baef-4e1a-8255-dd3bc96c9c0d","meta":{"profile":["http://hl7.org/fhir/us/qicore/StructureDefinition/qicore-patient"]},"text":{"status":"generated","div":"<div xmlns=\"http://www.w3.org/1999/xhtml\"><div class=\"hapiHeaderText\">PharmContra2DayAftObs_ED&lt;1hrDayOfObs&lt;1hrDayAftBFEnc <b>DENEXCEPFAIL </b></div><table class=\"hapiPropertyTable\"><tbody><tr><td>Identifier</td><td>0103105e2f27712406d6c0e67f07d973c7aef843dfe22913e133b63fea98440f</td></tr><tr><td>Date of birth</td><td><span>26 September 1975</span></td></tr></tbody></table></div>"},"extension":[{"url":"http://hl7.org/fhir/us/core/StructureDefinition/us-core-race","extension":[{"url":"ombCategory","valueCoding":{"system":"urn:oid:2.16.840.1.113883.6.238","code":"2054-5","display":"Black or African American","userSelected":true}},{"url":"text","valueString":"Black or African American"}]},{"url":"http://hl7.org/fhir/us/core/StructureDefinition/us-core-ethnicity","extension":[{"url":"ombCategory","valueCoding":{"system":"urn:oid:2.16.840.1.113883.6.238","code":"2186-5","display":"Not Hispanic or Latino","userSelected":true}},{"url":"text","valueString":"Not Hispanic or Latino"}]}],"identifier":[{"type":{"coding":[{"system":"http://terminology.hl7.org/CodeSystem/v2-0203","code":"MR"}]},"system":"https://bonnie-fhir.healthit.gov/","value":"60f82c2f98086b570510e2ba"}],"active":true,"name":[{"use":"usual","family":"DENEXCEPFail","given":["PharmContra2DayAftObs_ED<1hrDayOfObs<1hrDayAftBFEnc"]}],"gender":"female","birthDate":"1976-09-26"},"request":{"method":"PUT","url":"Patient/155afb0b-baef-4e1a-8255-dd3bc96c9c0d"}},{"fullUrl":"https://madie.cms.gov/Encounter/1c70b769-f1f6-4b97-bba8-d9fb89cd4f5d","resource":{"resourceType":"Encounter","id":"1c70b769-f1f6-4b97-bba8-d9fb89cd4f5d","meta":{"profile":["http://hl7.org/fhir/us/qicore/StructureDefinition/qicore-encounter"]},"status":"finished","class":{"system":"http://terminology.hl7.org/CodeSystem/v3-ActCode","code":"EMER","display":"emergency","userSelected":true},"type":[{"coding":[{"system":"http://snomed.info/sct","code":"4525004"}]}],"subject":{"reference":"Patient/155afb0b-baef-4e1a-8255-dd3bc96c9c0d"},"period":{"start":"2026-10-10T09:00:00.000+00:00","end":"2026-10-10T09:15:00.000+00:00"},"length":{"value":0,"unit":"days"}},"request":{"method":"PUT","url":"Encounter/1c70b769-f1f6-4b97-bba8-d9fb89cd4f5d"}},{"fullUrl":"https://madie.cms.gov/Encounter/17a50736-4a30-40b2-9c4b-e888235eacd3","resource":{"resourceType":"Encounter","id":"17a50736-4a30-40b2-9c4b-e888235eacd3","meta":{"profile":["http://hl7.org/fhir/us/qicore/StructureDefinition/qicore-encounter"]},"status":"finished","class":{"system":"http://terminology.hl7.org/CodeSystem/v3-ActCode","code":"OBSENC","display":"observation encounter","userSelected":true},"type":[{"coding":[{"system":"http://snomed.info/sct","code":"448951000124107"}]}],"subject":{"reference":"Patient/155afb0b-baef-4e1a-8255-dd3bc96c9c0d"},"period":{"start":"2026-10-10T09:16:00.000+00:00","end":"2026-10-12T23:59:00.000+00:00"},"length":{"value":2,"unit":"days"}},"request":{"method":"PUT","url":"Encounter/17a50736-4a30-40b2-9c4b-e888235eacd3"}},{"fullUrl":"https://madie.cms.gov/Encounter/37924985-8268-4692-9de4-069e02e8f72b","resource":{"resourceType":"Encounter","id":"37924985-8268-4692-9de4-069e02e8f72b","meta":{"profile":["http://hl7.org/fhir/us/qicore/StructureDefinition/qicore-encounter"]},"status":"finished","class":{"system":"http://terminology.hl7.org/CodeSystem/v3-ActCode","code":"IMP","display":"inpatient encounter","userSelected":true},"type":[{"coding":[{"system":"http://snomed.info/sct","code":"32485007"}]}],"subject":{"reference":"Patient/155afb0b-baef-4e1a-8255-dd3bc96c9c0d"},"period":{"start":"2026-10-13T00:00:00.000+00:00","end":"2026-10-17T11:15:00.000+00:00"},"length":{"value":4,"unit":"days"},"diagnosis":[{"condition":{"reference":"Condition/9ae62cde-965b-4abe-ac98-370f03942500"},"use":{"coding":[{"system":"http://terminology.hl7.org/CodeSystem/diagnosis-role","code":"billing","display":"Billing"}]},"rank":1}]},"request":{"method":"PUT","url":"Encounter/37924985-8268-4692-9de4-069e02e8f72b"}},{"fullUrl":"https://madie.cms.gov/MedicationAdministration/11c6e643-6139-4ba3-a6ae-9e8bbafe8d7e","resource":{"resourceType":"MedicationAdministration","id":"11c6e643-6139-4ba3-a6ae-9e8bbafe8d7e","meta":{"profile":["http://hl7.org/fhir/us/qicore/StructureDefinition/qicore-medicationadministration"]},"status":"completed","medicationCodeableConcept":{"coding":[{"system":"http://www.nlm.nih.gov/research/umls/rxnorm","code":"1116635"}]},"subject":{"reference":"Patient/155afb0b-baef-4e1a-8255-dd3bc96c9c0d"},"effectivePeriod":{"start":"2026-10-12T23:59:00+00:00"}},"request":{"method":"PUT","url":"MedicationAdministration/11c6e643-6139-4ba3-a6ae-9e8bbafe8d7e"}},{"fullUrl":"https://madie.cms.gov/Coverage/1b50e3e0-a47c-4108-bfd0-fa01fa763df8","resource":{"resourceType":"Coverage","id":"1b50e3e0-a47c-4108-bfd0-fa01fa763df8","status":"active","beneficiary":{"reference":"Patient/155afb0b-baef-4e1a-8255-dd3bc96c9c0d"},"period":{"start":"1976-09-26T08:00:00+00:00"},"payor":[{"reference":"Organization/4da248b0-6e59-49b7-b80e-338aa21d299f"}]},"request":{"method":"PUT","url":"Coverage/1b50e3e0-a47c-4108-bfd0-fa01fa763df8"}},{"fullUrl":"https://madie.cms.gov/Condition/9ae62cde-965b-4abe-ac98-370f03942500","resource":{"resourceType":"Condition","id":"9ae62cde-965b-4abe-ac98-370f03942500","meta":{"profile":["http://hl7.org/fhir/us/qicore/StructureDefinition/qicore-condition"]},"clinicalStatus":{"coding":[{"system":"http://terminology.hl7.org/CodeSystem/condition-clinical","code":"active"}]},"verificationStatus":{"coding":[{"system":"http://terminology.hl7.org/CodeSystem/condition-ver-status","code":"confirmed"}]},"category":[{"coding":[{"system":"http://terminology.hl7.org/CodeSystem/condition-category","code":"encounter-diagnosis","display":"Encounter Diagnosis"}]}],"code":{"coding":[{"system":"http://snomed.info/sct","version":"2020-09","code":"111297002","display":"Nonparalytic stroke (disorder)","userSelected":true}]},"subject":{"reference":"Patient/155afb0b-baef-4e1a-8255-dd3bc96c9c0d"},"recordedDate":"2026-08-03T08:00:00.000+00:00"},"request":{"method":"PUT","url":"Condition/9ae62cde-965b-4abe-ac98-370f03942500"}},{"fullUrl":"https://madie.cms.gov/Organization/9a7bfcb5-d215-45f8-b81d-59bb708fbb7d","resource":{"resourceType":"Organization","id":"4da248b0-6e59-49b7-b80e-338aa21d299f","meta":{"profile":["http://hl7.org/fhir/us/qicore/StructureDefinition/qicore-organization"]},"identifier":[{"use":"temp","system":"urn:oid:2.16.840.1.113883.4.4","value":"21-3259825"}],"active":true,"type":[{"coding":[{"system":"http://terminology.hl7.org/CodeSystem/organization-type","code":"pay","display":"Payer"}]}],"name":"Blue Cross Blue Shield of Texas","telecom":[{"system":"phone","value":"(+1) 972-766-6900"}],"address":[{"use":"billing","type":"postal","line":["P.O. Box 660044"],"city":"Dallas","state":"TX","postalCode":"75266-0044","country":"USA"}]},"request":{"method":"PUT","url":"Organization/4da248b0-6e59-49b7-b80e-338aa21d299f"}},{"fullUrl":"https://madie.cms.gov/MeasureReport/7a56b494-f5ad-44df-830d-0e2b23d0f3d3","resource":{"resourceType":"MeasureReport","id":"7a56b494-f5ad-44df-830d-0e2b23d0f3d3","meta":{"profile":["http://hl7.org/fhir/us/cqfmeasures/StructureDefinition/test-case-cqfm"]},"contained":[{"resourceType":"Parameters","id":"4a89483c-443f-4a44-a460-2c73dd64c03e-parameters","parameter":[{"name":"subject","valueString":"155afb0b-baef-4e1a-8255-dd3bc96c9c0d"}]}],"extension":[{"url":"http://hl7.org/fhir/us/cqfmeasures/StructureDefinition/cqfm-inputParameters","valueReference":{"reference":"#4a89483c-443f-4a44-a460-2c73dd64c03e-parameters"}},{"url":"http://hl7.org/fhir/us/cqfmeasures/StructureDefinition/cqfm-testCaseDescription","valueMarkdown":"Patient receives Ticagrelor during Obs, 2 days after Obs starts. ED ends 1 min before Obs.Obs ends 1 min before IP start at midnight. Testing Day of operator with HospitalizationWithObservation function.\n"}],"modifierExtension":[{"url":"http://hl7.org/fhir/us/cqfmeasures/StructureDefinition/cqfm-isTestCase","valueBoolean":true}],"status":"complete","type":"individual","measure":"https://madie.cms.gov/Measure/CMS72FHIRSTKAntithromboticDay2","period":{"start":"2026-01-01","end":"2026-12-31"},"group":[{"population":[{"code":{"coding":[{"system":"http://terminology.hl7.org/CodeSystem/measure-population","code":"initial-population","display":"Initial Population"}]},"count":1},{"code":{"coding":[{"system":"http://terminology.hl7.org/CodeSystem/measure-population","code":"denominator","display":"Denominator"}]},"count":1},{"code":{"coding":[{"system":"http://terminology.hl7.org/CodeSystem/measure-population","code":"denominator-exclusion","display":"Denominator Exclusion"}]},"count":0},{"code":{"coding":[{"system":"http://terminology.hl7.org/CodeSystem/measure-population","code":"numerator","display":"Numerator"}]},"count":0},{"code":{"coding":[{"system":"http://terminology.hl7.org/CodeSystem/measure-population","code":"denominator-exception","display":"Denominator Exception"}]},"count":0}]}]},"request":{"method":"PUT","url":"MeasureReport/7a56b494-f5ad-44df-830d-0e2b23d0f3d3"}}]}