{"resourceType":"Bundle","id":"tests-c075959b-dafd-4dfd-a310-23bd9c53fe68-bundle","type":"transaction","entry":[{"fullUrl":"https://madie.cms.gov/Patient/c075959b-dafd-4dfd-a310-23bd9c53fe68","resource":{"resourceType":"Patient","id":"c075959b-dafd-4dfd-a310-23bd9c53fe68","meta":{"profile":["http://hl7.org/fhir/us/qicore/StructureDefinition/qicore-patient"]},"text":{"status":"generated","div":"<div xmlns=\"http://www.w3.org/1999/xhtml\"><div class=\"hapiHeaderText\">CMP_DayOf_RelvDat_OnIPStart_EDEndLT1hrB4Obs_ObsEndLT1hrB4IP <b>DENEXPASS </b></div><table class=\"hapiPropertyTable\"><tbody><tr><td>Date of birth</td><td><span>01 January 1980</span></td></tr></tbody></table></div>"},"extension":[{"url":"http://hl7.org/fhir/us/core/StructureDefinition/us-core-race","extension":[{"url":"ombCategory","valueCoding":{"system":"urn:oid:2.16.840.1.113883.6.238","code":"2106-3","display":"White","userSelected":true}},{"url":"text","valueString":"White"}]},{"url":"http://hl7.org/fhir/us/core/StructureDefinition/us-core-ethnicity","extension":[{"url":"ombCategory","valueCoding":{"system":"urn:oid:2.16.840.1.113883.6.238","code":"2186-5","display":"Not Hispanic or Latino","userSelected":true}},{"url":"text","valueString":"Not Hispanic or Latino"}]}],"identifier":[{"type":{"coding":[{"system":"http://terminology.hl7.org/CodeSystem/v2-0203","code":"MR"}]},"system":"https://bonnie-fhir.healthit.gov/","value":"60f82c3098086b570510e2df"}],"active":true,"name":[{"use":"usual","family":"DENEXPass","given":["CMP_DayOf_RelvDat_OnIPStart_EDEndLT1hrB4Obs_ObsEndLT1hrB4IP"]}],"gender":"female","birthDate":"1981-01-01"},"request":{"method":"PUT","url":"Patient/c075959b-dafd-4dfd-a310-23bd9c53fe68"}},{"fullUrl":"https://madie.cms.gov/Encounter/e3b2760c-3b6f-4f79-86fe-06f997b69a1d","resource":{"resourceType":"Encounter","id":"e3b2760c-3b6f-4f79-86fe-06f997b69a1d","meta":{"profile":["http://hl7.org/fhir/us/qicore/StructureDefinition/qicore-encounter"]},"status":"finished","class":{"system":"http://terminology.hl7.org/CodeSystem/v3-ActCode","code":"EMER","display":"emergency"},"type":[{"coding":[{"system":"http://snomed.info/sct","code":"4525004"}]}],"subject":{"reference":"Patient/c075959b-dafd-4dfd-a310-23bd9c53fe68"},"period":{"start":"2026-11-18T07:00:00+00:00","end":"2026-11-18T08:01:00+00:00"},"diagnosis":[{"condition":{"reference":"Condition/0fe1041b-f3ce-4d1d-9c2d-8009b4588fdc"},"use":{"coding":[{"system":"http://terminology.hl7.org/CodeSystem/diagnosis-role","code":"billing","display":"Billing"}]},"rank":1}]},"request":{"method":"PUT","url":"Encounter/e3b2760c-3b6f-4f79-86fe-06f997b69a1d"}},{"fullUrl":"https://madie.cms.gov/Encounter/bcfc8373-1c42-4d26-8af8-74628f41c265","resource":{"resourceType":"Encounter","id":"bcfc8373-1c42-4d26-8af8-74628f41c265","meta":{"profile":["http://hl7.org/fhir/us/qicore/StructureDefinition/qicore-encounter"]},"status":"finished","class":{"system":"http://terminology.hl7.org/CodeSystem/v3-ActCode","code":"OBSENC","display":"observation encounter"},"type":[{"coding":[{"system":"http://snomed.info/sct","code":"448951000124107"}]}],"subject":{"reference":"Patient/c075959b-dafd-4dfd-a310-23bd9c53fe68"},"period":{"start":"2026-11-18T09:00:00+00:00","end":"2026-11-18T10:01:00+00:00"}},"request":{"method":"PUT","url":"Encounter/bcfc8373-1c42-4d26-8af8-74628f41c265"}},{"fullUrl":"https://madie.cms.gov/Encounter/1d948e31-25b7-4fae-a19b-c4dd8047b1ec","resource":{"resourceType":"Encounter","id":"1d948e31-25b7-4fae-a19b-c4dd8047b1ec","meta":{"profile":["http://hl7.org/fhir/us/qicore/StructureDefinition/qicore-encounter"]},"status":"finished","class":{"system":"http://terminology.hl7.org/CodeSystem/v3-ActCode","code":"IMP","display":"inpatient encounter"},"type":[{"coding":[{"system":"http://snomed.info/sct","code":"183452005"}]}],"subject":{"reference":"Patient/c075959b-dafd-4dfd-a310-23bd9c53fe68"},"period":{"start":"2026-11-18T11:00:00+00:00","end":"2026-11-20T08:15:00+00:00"},"diagnosis":[{"condition":{"reference":"Condition/0fe1041b-f3ce-4d1d-9c2d-8009b4588fdc"},"use":{"coding":[{"system":"http://terminology.hl7.org/CodeSystem/diagnosis-role","code":"billing","display":"Billing"}]},"rank":1}]},"request":{"method":"PUT","url":"Encounter/1d948e31-25b7-4fae-a19b-c4dd8047b1ec"}},{"fullUrl":"https://madie.cms.gov/Procedure/5bc41987-18d7-4517-9952-cbdfcd207d0a","resource":{"resourceType":"Procedure","id":"5bc41987-18d7-4517-9952-cbdfcd207d0a","meta":{"profile":["http://hl7.org/fhir/us/qicore/StructureDefinition/qicore-procedure"]},"extension":[{"url":"http://hl7.org/fhir/us/qicore/StructureDefinition/qicore-recorded","valueDateTime":"2026-11-18T11:00:00.000+00:00"}],"status":"completed","code":{"coding":[{"system":"http://snomed.info/sct","code":"133918004"}]},"subject":{"reference":"Patient/c075959b-dafd-4dfd-a310-23bd9c53fe68"},"performedDateTime":"2026-11-18T11:00:00.000+00:00"},"request":{"method":"PUT","url":"Procedure/5bc41987-18d7-4517-9952-cbdfcd207d0a"}},{"fullUrl":"https://madie.cms.gov/Condition/0fe1041b-f3ce-4d1d-9c2d-8009b4588fdc","resource":{"resourceType":"Condition","id":"0fe1041b-f3ce-4d1d-9c2d-8009b4588fdc","meta":{"profile":["http://hl7.org/fhir/us/qicore/StructureDefinition/qicore-condition"]},"clinicalStatus":{"coding":[{"system":"http://terminology.hl7.org/CodeSystem/condition-clinical","code":"active"}]},"verificationStatus":{"coding":[{"system":"http://terminology.hl7.org/CodeSystem/condition-ver-status","code":"confirmed"}]},"category":[{"coding":[{"system":"http://terminology.hl7.org/CodeSystem/condition-category","code":"encounter-diagnosis","display":"Encounter Diagnosis"}]}],"code":{"coding":[{"system":"http://snomed.info/sct","version":"2020-09","code":"111297002","display":"Nonparalytic stroke (disorder)","userSelected":true}]},"subject":{"reference":"Patient/c075959b-dafd-4dfd-a310-23bd9c53fe68"},"recordedDate":"2026-08-13T08:00:00.000+00:00"},"request":{"method":"PUT","url":"Condition/0fe1041b-f3ce-4d1d-9c2d-8009b4588fdc"}},{"fullUrl":"https://madie.cms.gov/Coverage/77f02f31-4ea8-49f9-a15b-454b1e71ac01","resource":{"resourceType":"Coverage","id":"77f02f31-4ea8-49f9-a15b-454b1e71ac01","meta":{"profile":["http://hl7.org/fhir/us/qicore/StructureDefinition/qicore-coverage"]},"status":"active","beneficiary":{"reference":"Patient/c075959b-dafd-4dfd-a310-23bd9c53fe68"},"payor":[{"reference":"Organization/607fdef9-3983-4cef-ab1a-95434d29b463"}]},"request":{"method":"PUT","url":"Coverage/77f02f31-4ea8-49f9-a15b-454b1e71ac01"}},{"fullUrl":"https://madie.cms.gov/Organization/64cea3fd-c994-4876-94a8-31fbcf8d3a28","resource":{"resourceType":"Organization","id":"607fdef9-3983-4cef-ab1a-95434d29b463","meta":{"profile":["http://hl7.org/fhir/us/qicore/StructureDefinition/qicore-organization"]},"identifier":[{"use":"temp","system":"urn:oid:2.16.840.1.113883.4.4","value":"21-3259825"}],"active":true,"type":[{"coding":[{"system":"http://terminology.hl7.org/CodeSystem/organization-type","code":"pay","display":"Payer"}]}],"name":"Blue Cross Blue Shield of Texas","telecom":[{"system":"phone","value":"(+1) 972-766-6900"}],"address":[{"use":"billing","type":"postal","line":["P.O. Box 660044"],"city":"Dallas","state":"TX","postalCode":"75266-0044","country":"USA"}]},"request":{"method":"PUT","url":"Organization/607fdef9-3983-4cef-ab1a-95434d29b463"}},{"fullUrl":"https://madie.cms.gov/MeasureReport/7eea8b56-2c80-4e8f-9f5c-4459ccad014b","resource":{"resourceType":"MeasureReport","id":"7eea8b56-2c80-4e8f-9f5c-4459ccad014b","meta":{"profile":["http://hl7.org/fhir/us/cqfmeasures/StructureDefinition/test-case-cqfm"]},"contained":[{"resourceType":"Parameters","id":"5b84481d-851f-43e1-8cfc-686bb5486d81-parameters","parameter":[{"name":"subject","valueString":"c075959b-dafd-4dfd-a310-23bd9c53fe68"}]}],"extension":[{"url":"http://hl7.org/fhir/us/cqfmeasures/StructureDefinition/cqfm-inputParameters","valueReference":{"reference":"#5b84481d-851f-43e1-8cfc-686bb5486d81-parameters"}},{"url":"http://hl7.org/fhir/us/cqfmeasures/StructureDefinition/cqfm-testCaseDescription","valueMarkdown":"Patient receives comfort measures performed on the day of hospital arrival, on IP start. ED ends less than 1 hour before Obs Start, Obs ends less than 1 hour before IP start.\n"}],"modifierExtension":[{"url":"http://hl7.org/fhir/us/cqfmeasures/StructureDefinition/cqfm-isTestCase","valueBoolean":true}],"status":"complete","type":"individual","measure":"https://madie.cms.gov/Measure/CMS72FHIRSTKAntithromboticDay2","period":{"start":"2026-01-01","end":"2026-12-31"},"group":[{"population":[{"code":{"coding":[{"system":"http://terminology.hl7.org/CodeSystem/measure-population","code":"initial-population","display":"Initial Population"}]},"count":1},{"code":{"coding":[{"system":"http://terminology.hl7.org/CodeSystem/measure-population","code":"denominator","display":"Denominator"}]},"count":1},{"code":{"coding":[{"system":"http://terminology.hl7.org/CodeSystem/measure-population","code":"denominator-exclusion","display":"Denominator Exclusion"}]},"count":1},{"code":{"coding":[{"system":"http://terminology.hl7.org/CodeSystem/measure-population","code":"numerator","display":"Numerator"}]},"count":0},{"code":{"coding":[{"system":"http://terminology.hl7.org/CodeSystem/measure-population","code":"denominator-exception","display":"Denominator Exception"}]},"count":0}]}]},"request":{"method":"PUT","url":"MeasureReport/7eea8b56-2c80-4e8f-9f5c-4459ccad014b"}}]}