{"resourceType":"Bundle","id":"tests-0bc6d4d8-81a0-42a2-9efb-9efbfc3ebe2a-bundle","type":"transaction","entry":[{"fullUrl":"https://madie.cms.gov/Patient/0bc6d4d8-81a0-42a2-9efb-9efbfc3ebe2a","resource":{"resourceType":"Patient","id":"0bc6d4d8-81a0-42a2-9efb-9efbfc3ebe2a","meta":{"profile":["http://hl7.org/fhir/us/qicore/StructureDefinition/qicore-patient"]},"text":{"status":"generated","div":"<div xmlns=\"http://www.w3.org/1999/xhtml\"><div class=\"hapiHeaderText\">ProcTPA&lt;24hrB4_EncIP <b>DENEXPASS </b></div><table class=\"hapiPropertyTable\"><tbody><tr><td>Identifier</td><td>74a7987d4786d2cb2d90aceec2d71900</td></tr><tr><td>Date of birth</td><td><span>26 September 1975</span></td></tr></tbody></table></div>"},"extension":[{"url":"http://hl7.org/fhir/us/core/StructureDefinition/us-core-race","extension":[{"url":"ombCategory","valueCoding":{"system":"urn:oid:2.16.840.1.113883.6.238","code":"2054-5","display":"Black or African American","userSelected":true}},{"url":"text","valueString":"Black or African American"}]},{"url":"http://hl7.org/fhir/us/core/StructureDefinition/us-core-ethnicity","extension":[{"url":"ombCategory","valueCoding":{"system":"urn:oid:2.16.840.1.113883.6.238","code":"2186-5","display":"Not Hispanic or Latino","userSelected":true}},{"url":"text","valueString":"Not Hispanic or Latino"}]}],"identifier":[{"type":{"coding":[{"system":"http://terminology.hl7.org/CodeSystem/v2-0203","code":"MR"}]},"system":"https://bonnie-fhir.healthit.gov/","value":"60f82c2e98086b570510e26f"}],"active":true,"name":[{"use":"usual","family":"DENEXPass","given":["ProcTPA<24hrB4_EncIP"]}],"gender":"female","birthDate":"1976-09-26"},"request":{"method":"PUT","url":"Patient/0bc6d4d8-81a0-42a2-9efb-9efbfc3ebe2a"}},{"fullUrl":"https://madie.cms.gov/Encounter/47614d55-4cad-4831-8547-c4ecae035faf","resource":{"resourceType":"Encounter","id":"47614d55-4cad-4831-8547-c4ecae035faf","meta":{"profile":["http://hl7.org/fhir/us/qicore/StructureDefinition/qicore-encounter"]},"status":"finished","class":{"system":"http://terminology.hl7.org/CodeSystem/v3-ActCode","code":"IMP","display":"inpatient encounter"},"type":[{"coding":[{"system":"http://snomed.info/sct","code":"32485007"}]}],"subject":{"reference":"Patient/0bc6d4d8-81a0-42a2-9efb-9efbfc3ebe2a"},"period":{"start":"2026-10-10T09:00:00+00:00","end":"2026-10-12T11:15:00+00:00"},"length":{"value":2,"unit":"days"},"diagnosis":[{"condition":{"reference":"Condition/c032de5c-2e68-4246-814e-809e7727ff45"},"use":{"coding":[{"system":"http://terminology.hl7.org/CodeSystem/diagnosis-role","code":"billing","display":"Billing"}]},"rank":1}]},"request":{"method":"PUT","url":"Encounter/47614d55-4cad-4831-8547-c4ecae035faf"}},{"fullUrl":"https://madie.cms.gov/Coverage/c27a2ce2-a9dc-4314-b6e0-bf6607377255","resource":{"resourceType":"Coverage","id":"c27a2ce2-a9dc-4314-b6e0-bf6607377255","status":"active","beneficiary":{"reference":"Patient/0bc6d4d8-81a0-42a2-9efb-9efbfc3ebe2a"},"period":{"start":"1976-09-26T08:00:00+00:00"},"payor":[{"reference":"Organization/a6c3e6fa-301e-4714-9d04-3dde9a7e7c49"}]},"request":{"method":"PUT","url":"Coverage/c27a2ce2-a9dc-4314-b6e0-bf6607377255"}},{"fullUrl":"https://madie.cms.gov/Procedure/955db590-c170-4c01-a487-de84399973a4","resource":{"resourceType":"Procedure","id":"955db590-c170-4c01-a487-de84399973a4","meta":{"profile":["http://hl7.org/fhir/us/qicore/StructureDefinition/qicore-procedure"]},"extension":[{"url":"http://hl7.org/fhir/us/qicore/StructureDefinition/qicore-recorded","valueDateTime":"2026-11-19T09:35:00-04:00"}],"status":"completed","code":{"coding":[{"system":"http://snomed.info/sct","code":"307521008"}]},"subject":{"reference":"Patient/0bc6d4d8-81a0-42a2-9efb-9efbfc3ebe2a"},"performedPeriod":{"start":"2026-10-09T09:00:00+00:00"}},"request":{"method":"PUT","url":"Procedure/955db590-c170-4c01-a487-de84399973a4"}},{"fullUrl":"https://madie.cms.gov/Condition/c032de5c-2e68-4246-814e-809e7727ff45","resource":{"resourceType":"Condition","id":"c032de5c-2e68-4246-814e-809e7727ff45","meta":{"profile":["http://hl7.org/fhir/us/qicore/StructureDefinition/qicore-condition"]},"clinicalStatus":{"coding":[{"system":"http://terminology.hl7.org/CodeSystem/condition-clinical","code":"active"}]},"verificationStatus":{"coding":[{"system":"http://terminology.hl7.org/CodeSystem/condition-ver-status","code":"confirmed"}]},"category":[{"coding":[{"system":"http://terminology.hl7.org/CodeSystem/condition-category","code":"encounter-diagnosis","display":"Encounter Diagnosis"}]}],"code":{"coding":[{"system":"http://snomed.info/sct","version":"2020-09","code":"111297002","display":"Nonparalytic stroke (disorder)","userSelected":true}]},"subject":{"reference":"Patient/0bc6d4d8-81a0-42a2-9efb-9efbfc3ebe2a"},"recordedDate":"2026-08-13T08:00:00.000+00:00"},"request":{"method":"PUT","url":"Condition/c032de5c-2e68-4246-814e-809e7727ff45"}},{"fullUrl":"https://madie.cms.gov/Organization/adc85e96-e136-4c6c-aebc-a2c375a745dd","resource":{"resourceType":"Organization","id":"a6c3e6fa-301e-4714-9d04-3dde9a7e7c49","meta":{"profile":["http://hl7.org/fhir/us/qicore/StructureDefinition/qicore-organization"]},"identifier":[{"use":"temp","system":"urn:oid:2.16.840.1.113883.4.4","value":"21-3259825"}],"active":true,"type":[{"coding":[{"system":"http://terminology.hl7.org/CodeSystem/organization-type","code":"pay","display":"Payer"}]}],"name":"Blue Cross Blue Shield of Texas","telecom":[{"system":"phone","value":"(+1) 972-766-6900"}],"address":[{"use":"billing","type":"postal","line":["P.O. Box 660044"],"city":"Dallas","state":"TX","postalCode":"75266-0044","country":"USA"}]},"request":{"method":"PUT","url":"Organization/a6c3e6fa-301e-4714-9d04-3dde9a7e7c49"}},{"fullUrl":"https://madie.cms.gov/MeasureReport/13daff68-cb02-44f4-90b9-e3fee33af7f0","resource":{"resourceType":"MeasureReport","id":"13daff68-cb02-44f4-90b9-e3fee33af7f0","meta":{"profile":["http://hl7.org/fhir/us/cqfmeasures/StructureDefinition/test-case-cqfm"]},"contained":[{"resourceType":"Parameters","id":"ccd5785e-4202-4f5a-8345-b47248a14a0f-parameters","parameter":[{"name":"subject","valueString":"0bc6d4d8-81a0-42a2-9efb-9efbfc3ebe2a"}]}],"extension":[{"url":"http://hl7.org/fhir/us/cqfmeasures/StructureDefinition/cqfm-inputParameters","valueReference":{"reference":"#ccd5785e-4202-4f5a-8345-b47248a14a0f-parameters"}},{"url":"http://hl7.org/fhir/us/cqfmeasures/StructureDefinition/cqfm-testCaseDescription","valueMarkdown":"Patient receives  Procedure IV or IA  24 hours and one minute before IP encounter starts\n"}],"modifierExtension":[{"url":"http://hl7.org/fhir/us/cqfmeasures/StructureDefinition/cqfm-isTestCase","valueBoolean":true}],"status":"complete","type":"individual","measure":"https://madie.cms.gov/Measure/CMS72FHIRSTKAntithromboticDay2","period":{"start":"2026-01-01","end":"2026-12-31"},"group":[{"population":[{"code":{"coding":[{"system":"http://terminology.hl7.org/CodeSystem/measure-population","code":"initial-population","display":"Initial Population"}]},"count":1},{"code":{"coding":[{"system":"http://terminology.hl7.org/CodeSystem/measure-population","code":"denominator","display":"Denominator"}]},"count":1},{"code":{"coding":[{"system":"http://terminology.hl7.org/CodeSystem/measure-population","code":"denominator-exclusion","display":"Denominator Exclusion"}]},"count":1},{"code":{"coding":[{"system":"http://terminology.hl7.org/CodeSystem/measure-population","code":"numerator","display":"Numerator"}]},"count":0},{"code":{"coding":[{"system":"http://terminology.hl7.org/CodeSystem/measure-population","code":"denominator-exception","display":"Denominator Exception"}]},"count":0}]}]},"request":{"method":"PUT","url":"MeasureReport/13daff68-cb02-44f4-90b9-e3fee33af7f0"}}]}