{"resourceType":"Bundle","id":"tests-93798745-af1c-4eb6-8dc4-446a531c05a4-bundle","type":"transaction","entry":[{"fullUrl":"https://madie.cms.gov/Patient/93798745-af1c-4eb6-8dc4-446a531c05a4","resource":{"resourceType":"Patient","id":"93798745-af1c-4eb6-8dc4-446a531c05a4","meta":{"profile":["http://hl7.org/fhir/us/qicore/StructureDefinition/qicore-patient"]},"text":{"status":"generated","div":"<div xmlns=\"http://www.w3.org/1999/xhtml\"><div class=\"hapiHeaderText\">MedAntithromboticStart_eq1dayDuringEncIPwEd <b>NUMERFAIL - 3061 </b></div><table class=\"hapiPropertyTable\"><tbody><tr><td>Identifier</td><td>efb6046ae135027a64d1fa1873b580614d445125bf8cff274eca2380ad404ec9</td></tr><tr><td>Date of birth</td><td><span>26 September 1975</span></td></tr></tbody></table></div>"},"extension":[{"url":"http://hl7.org/fhir/us/core/StructureDefinition/us-core-race","extension":[{"url":"ombCategory","valueCoding":{"system":"urn:oid:2.16.840.1.113883.6.238","code":"2054-5","display":"Black or African American","userSelected":true}},{"url":"text","valueString":"Black or African American"}]},{"url":"http://hl7.org/fhir/us/core/StructureDefinition/us-core-ethnicity","extension":[{"url":"ombCategory","valueCoding":{"system":"urn:oid:2.16.840.1.113883.6.238","code":"2186-5","display":"Not Hispanic or Latino","userSelected":true}},{"url":"text","valueString":"Not Hispanic or Latino"}]}],"identifier":[{"type":{"coding":[{"system":"http://terminology.hl7.org/CodeSystem/v2-0203","code":"MR"}]},"system":"https://bonnie-fhir.healthit.gov/","value":"60f82c2e98086b570510e298"}],"active":true,"name":[{"use":"usual","family":"NUMERFail - 3061","given":["MedAntithromboticStart_eq1dayDuringEncIPwEd"]}],"gender":"female","birthDate":"1976-09-26"},"request":{"method":"PUT","url":"Patient/93798745-af1c-4eb6-8dc4-446a531c05a4"}},{"fullUrl":"https://madie.cms.gov/Encounter/968aedb8-3c75-48a4-b55c-6f889668405c","resource":{"resourceType":"Encounter","id":"968aedb8-3c75-48a4-b55c-6f889668405c","meta":{"profile":["http://hl7.org/fhir/us/qicore/StructureDefinition/qicore-encounter"]},"status":"finished","class":{"system":"http://terminology.hl7.org/CodeSystem/v3-ActCode","code":"EMER","display":"emergency"},"type":[{"coding":[{"system":"http://snomed.info/sct","code":"4525004"}]}],"subject":{"reference":"Patient/93798745-af1c-4eb6-8dc4-446a531c05a4"},"period":{"start":"2026-10-10T01:00:00+00:00","end":"2026-10-11T01:59:00+00:00"},"length":{"value":1,"unit":"days"}},"request":{"method":"PUT","url":"Encounter/968aedb8-3c75-48a4-b55c-6f889668405c"}},{"fullUrl":"https://madie.cms.gov/Encounter/d1e647b1-2836-4f64-a79d-dd3a908ffe85","resource":{"resourceType":"Encounter","id":"d1e647b1-2836-4f64-a79d-dd3a908ffe85","meta":{"profile":["http://hl7.org/fhir/us/qicore/StructureDefinition/qicore-encounter"]},"status":"finished","class":{"system":"http://terminology.hl7.org/CodeSystem/v3-ActCode","code":"IMP","display":"inpatient encounter"},"type":[{"coding":[{"system":"http://snomed.info/sct","code":"32485007"}]}],"subject":{"reference":"Patient/93798745-af1c-4eb6-8dc4-446a531c05a4"},"period":{"start":"2026-10-11T02:00:00+00:00","end":"2026-10-15T11:30:00+00:00"},"length":{"value":4,"unit":"days"},"diagnosis":[{"condition":{"reference":"Condition/9130ebc9-6c4c-4a1a-9437-a60fde043c00"},"use":{"coding":[{"system":"http://terminology.hl7.org/CodeSystem/diagnosis-role","code":"billing","display":"Billing"}]},"rank":1}]},"request":{"method":"PUT","url":"Encounter/d1e647b1-2836-4f64-a79d-dd3a908ffe85"}},{"fullUrl":"https://madie.cms.gov/MedicationAdministration/e2c73549-06fb-42a5-9b33-d24a8841b887","resource":{"resourceType":"MedicationAdministration","id":"e2c73549-06fb-42a5-9b33-d24a8841b887","meta":{"profile":["http://hl7.org/fhir/us/qicore/StructureDefinition/qicore-medicationadministration"]},"status":"completed","medicationCodeableConcept":{"coding":[{"system":"http://www.nlm.nih.gov/research/umls/rxnorm","code":"198466"}]},"subject":{"reference":"Patient/93798745-af1c-4eb6-8dc4-446a531c05a4"},"effectivePeriod":{"start":"2026-10-11T23:59:00+00:00"}},"request":{"method":"PUT","url":"MedicationAdministration/e2c73549-06fb-42a5-9b33-d24a8841b887"}},{"fullUrl":"https://madie.cms.gov/Coverage/40ad446b-5ba6-4ec4-8015-5ecae38dc383","resource":{"resourceType":"Coverage","id":"40ad446b-5ba6-4ec4-8015-5ecae38dc383","status":"active","beneficiary":{"reference":"Patient/93798745-af1c-4eb6-8dc4-446a531c05a4"},"period":{"start":"1976-09-26T08:00:00+00:00"},"payor":[{"reference":"Organization/a6c3e6fa-301e-4714-9d04-3dde9a7e7c49"}]},"request":{"method":"PUT","url":"Coverage/40ad446b-5ba6-4ec4-8015-5ecae38dc383"}},{"fullUrl":"https://madie.cms.gov/Condition/9130ebc9-6c4c-4a1a-9437-a60fde043c00","resource":{"resourceType":"Condition","id":"9130ebc9-6c4c-4a1a-9437-a60fde043c00","meta":{"profile":["http://hl7.org/fhir/us/qicore/StructureDefinition/qicore-condition"]},"clinicalStatus":{"coding":[{"system":"http://terminology.hl7.org/CodeSystem/condition-clinical","code":"active"}]},"verificationStatus":{"coding":[{"system":"http://terminology.hl7.org/CodeSystem/condition-ver-status","code":"confirmed"}]},"category":[{"coding":[{"system":"http://terminology.hl7.org/CodeSystem/condition-category","code":"encounter-diagnosis","display":"Encounter Diagnosis"}]}],"code":{"coding":[{"system":"http://snomed.info/sct","version":"2020-09","code":"111297002","display":"Nonparalytic stroke (disorder)","userSelected":true}]},"subject":{"reference":"Patient/93798745-af1c-4eb6-8dc4-446a531c05a4"},"recordedDate":"2026-08-16T08:00:00.000+00:00"},"request":{"method":"PUT","url":"Condition/9130ebc9-6c4c-4a1a-9437-a60fde043c00"}},{"fullUrl":"https://madie.cms.gov/Organization/01b16b78-8006-45fd-bef5-cacd97546bd2","resource":{"resourceType":"Organization","id":"a6c3e6fa-301e-4714-9d04-3dde9a7e7c49","meta":{"profile":["http://hl7.org/fhir/us/qicore/StructureDefinition/qicore-organization"]},"identifier":[{"use":"temp","system":"urn:oid:2.16.840.1.113883.4.4","value":"21-3259825"}],"active":true,"type":[{"coding":[{"system":"http://terminology.hl7.org/CodeSystem/organization-type","code":"pay","display":"Payer"}]}],"name":"Blue Cross Blue Shield of Texas","telecom":[{"system":"phone","value":"(+1) 972-766-6900"}],"address":[{"use":"billing","type":"postal","line":["P.O. Box 660044"],"city":"Dallas","state":"TX","postalCode":"75266-0044","country":"USA"}]},"request":{"method":"PUT","url":"Organization/a6c3e6fa-301e-4714-9d04-3dde9a7e7c49"}},{"fullUrl":"https://madie.cms.gov/Practitioner/12c0dec3-fff7-44e0-af79-8d217abf57e1","resource":{"resourceType":"Practitioner","id":"12c0dec3-fff7-44e0-af79-8d217abf57e1","identifier":[{"system":"http://hl7.org/fhir/sid/us-npi","value":"123456"}],"name":[{"family":"Evil","prefix":["Dr"]}]},"request":{"method":"PUT","url":"Practitioner/12c0dec3-fff7-44e0-af79-8d217abf57e1"}},{"fullUrl":"https://madie.cms.gov/MeasureReport/77602339-4515-49f9-911f-dbcdaac888bb","resource":{"resourceType":"MeasureReport","id":"77602339-4515-49f9-911f-dbcdaac888bb","meta":{"profile":["http://hl7.org/fhir/us/cqfmeasures/StructureDefinition/test-case-cqfm"]},"contained":[{"resourceType":"Parameters","id":"f71873c9-394d-43cf-945c-0793d409bae6-parameters","parameter":[{"name":"subject","valueString":"93798745-af1c-4eb6-8dc4-446a531c05a4"}]}],"extension":[{"url":"http://hl7.org/fhir/us/cqfmeasures/StructureDefinition/cqfm-inputParameters","valueReference":{"reference":"#f71873c9-394d-43cf-945c-0793d409bae6-parameters"}},{"url":"http://hl7.org/fhir/us/cqfmeasures/StructureDefinition/cqfm-testCaseDescription","valueMarkdown":"Patient receives antithrombotic in = 1 day after IP encounter starts. global.\"Hospitalization\" =(IP)\n"}],"modifierExtension":[{"url":"http://hl7.org/fhir/us/cqfmeasures/StructureDefinition/cqfm-isTestCase","valueBoolean":true}],"status":"complete","type":"individual","measure":"https://madie.cms.gov/Measure/CMS72FHIRSTKAntithromboticDay2","period":{"start":"2026-01-01","end":"2026-12-31"},"group":[{"population":[{"code":{"coding":[{"system":"http://terminology.hl7.org/CodeSystem/measure-population","code":"initial-population","display":"Initial Population"}]},"count":1},{"code":{"coding":[{"system":"http://terminology.hl7.org/CodeSystem/measure-population","code":"denominator","display":"Denominator"}]},"count":1},{"code":{"coding":[{"system":"http://terminology.hl7.org/CodeSystem/measure-population","code":"denominator-exclusion","display":"Denominator Exclusion"}]},"count":0},{"code":{"coding":[{"system":"http://terminology.hl7.org/CodeSystem/measure-population","code":"numerator","display":"Numerator"}]},"count":1},{"code":{"coding":[{"system":"http://terminology.hl7.org/CodeSystem/measure-population","code":"denominator-exception","display":"Denominator Exception"}]},"count":0}]}]},"request":{"method":"PUT","url":"MeasureReport/77602339-4515-49f9-911f-dbcdaac888bb"}}]}