{"resourceType":"Bundle","id":"tests-4c8ffb53-47d2-44bc-a1c3-dc192c70607f-bundle","type":"transaction","entry":[{"fullUrl":"https://madie.cms.gov/Patient/4c8ffb53-47d2-44bc-a1c3-dc192c70607f","resource":{"resourceType":"Patient","id":"4c8ffb53-47d2-44bc-a1c3-dc192c70607f","meta":{"profile":["http://hl7.org/fhir/us/qicore/StructureDefinition/qicore-patient"]},"text":{"status":"generated","div":"<div xmlns=\"http://www.w3.org/1999/xhtml\"><div class=\"hapiHeaderText\">MedOrdMedReason_eq1dayduringEncIP <b>DENEXCEPPASS </b></div><table class=\"hapiPropertyTable\"><tbody><tr><td>Identifier</td><td>0bf9ba598fd248583d92ceeedb6d1e4a</td></tr><tr><td>Date of birth</td><td><span>26 September 1975</span></td></tr></tbody></table></div>"},"extension":[{"url":"http://hl7.org/fhir/us/core/StructureDefinition/us-core-race","extension":[{"url":"ombCategory","valueCoding":{"system":"urn:oid:2.16.840.1.113883.6.238","code":"2054-5","display":"Black or African American","userSelected":true}},{"url":"text","valueString":"Black or African American"}]},{"url":"http://hl7.org/fhir/us/core/StructureDefinition/us-core-ethnicity","extension":[{"url":"ombCategory","valueCoding":{"system":"urn:oid:2.16.840.1.113883.6.238","code":"2186-5","display":"Not Hispanic or Latino","userSelected":true}},{"url":"text","valueString":"Not Hispanic or Latino"}]}],"identifier":[{"type":{"coding":[{"system":"http://terminology.hl7.org/CodeSystem/v2-0203","code":"MR"}]},"system":"https://bonnie-fhir.healthit.gov/","value":"60f82c2d98086b570510e24a"}],"active":true,"name":[{"use":"usual","family":"DENEXCEPPass","given":["MedOrdMedReason_eq0dayduringEncIP"]}],"gender":"female","birthDate":"1976-09-26"},"request":{"method":"PUT","url":"Patient/4c8ffb53-47d2-44bc-a1c3-dc192c70607f"}},{"fullUrl":"https://madie.cms.gov/Encounter/5ee30831-7d53-41ad-8e5c-a15afbb073a2","resource":{"resourceType":"Encounter","id":"5ee30831-7d53-41ad-8e5c-a15afbb073a2","meta":{"profile":["http://hl7.org/fhir/us/qicore/StructureDefinition/qicore-encounter"]},"status":"finished","class":{"system":"http://terminology.hl7.org/CodeSystem/v3-ActCode","code":"IMP","display":"inpatient encounter","userSelected":true},"type":[{"coding":[{"system":"http://snomed.info/sct","code":"32485007"}]}],"subject":{"reference":"Patient/4c8ffb53-47d2-44bc-a1c3-dc192c70607f"},"period":{"start":"2026-10-10T09:00:00+00:00","end":"2026-10-12T11:15:00+00:00"},"length":{"value":2,"unit":"days"},"diagnosis":[{"condition":{"reference":"Condition/7d22556d-465a-4bc7-b51b-aa8f418dbdf7"},"use":{"coding":[{"system":"http://terminology.hl7.org/CodeSystem/diagnosis-role","code":"billing","display":"Billing"}]},"rank":1}]},"request":{"method":"PUT","url":"Encounter/5ee30831-7d53-41ad-8e5c-a15afbb073a2"}},{"fullUrl":"https://madie.cms.gov/MedicationRequest/e62412e0-9c64-4d8e-bd62-5925c1b89865","resource":{"resourceType":"MedicationRequest","id":"e62412e0-9c64-4d8e-bd62-5925c1b89865","meta":{"profile":["http://hl7.org/fhir/us/qicore/StructureDefinition/qicore-mednotrequested"]},"status":"completed","intent":"order","category":[{"coding":[{"system":"http://terminology.hl7.org/CodeSystem/medicationrequest-category","code":"community"}]}],"doNotPerform":true,"medicationCodeableConcept":{"coding":[{"system":"http://www.nlm.nih.gov/research/umls/rxnorm","code":"1037045"}]},"subject":{"reference":"Patient/4c8ffb53-47d2-44bc-a1c3-dc192c70607f"},"authoredOn":"2026-10-10T09:00:00+00:00","requester":{"reference":"Practitioner/example"},"reasonCode":[{"coding":[{"system":"http://snomed.info/sct","code":"183932001","display":"Procedure contraindicated (situation)","userSelected":true}]}],"dosageInstruction":[{"timing":{"repeat":{"boundsPeriod":{"start":"2026-10-11T09:00:00+00:00"}}}}]},"request":{"method":"PUT","url":"MedicationRequest/e62412e0-9c64-4d8e-bd62-5925c1b89865"}},{"fullUrl":"https://madie.cms.gov/Coverage/c1269abf-1b78-4bf5-b3fd-c6a5e954ac9f","resource":{"resourceType":"Coverage","id":"c1269abf-1b78-4bf5-b3fd-c6a5e954ac9f","status":"active","beneficiary":{"reference":"Patient/4c8ffb53-47d2-44bc-a1c3-dc192c70607f"},"period":{"start":"1976-09-26T08:00:00+00:00"},"payor":[{"reference":"Organization/f4907415-83c5-4eae-ab0b-cb63a840880d"}]},"request":{"method":"PUT","url":"Coverage/c1269abf-1b78-4bf5-b3fd-c6a5e954ac9f"}},{"fullUrl":"https://madie.cms.gov/Condition/7d22556d-465a-4bc7-b51b-aa8f418dbdf7","resource":{"resourceType":"Condition","id":"7d22556d-465a-4bc7-b51b-aa8f418dbdf7","meta":{"profile":["http://hl7.org/fhir/us/qicore/StructureDefinition/qicore-condition"]},"clinicalStatus":{"coding":[{"system":"http://terminology.hl7.org/CodeSystem/condition-clinical","code":"active"}]},"verificationStatus":{"coding":[{"system":"http://terminology.hl7.org/CodeSystem/condition-ver-status","code":"confirmed"}]},"category":[{"coding":[{"system":"http://terminology.hl7.org/CodeSystem/condition-category","code":"encounter-diagnosis","display":"Encounter Diagnosis"}]}],"code":{"coding":[{"system":"http://snomed.info/sct","version":"2020-09","code":"111297002","display":"Nonparalytic stroke (disorder)","userSelected":true}]},"subject":{"reference":"Patient/4c8ffb53-47d2-44bc-a1c3-dc192c70607f"},"recordedDate":"2026-08-06T08:00:00.000+00:00"},"request":{"method":"PUT","url":"Condition/7d22556d-465a-4bc7-b51b-aa8f418dbdf7"}},{"fullUrl":"https://madie.cms.gov/Organization/cd37c480-04f7-423e-a867-cbc4dbb5073e","resource":{"resourceType":"Organization","id":"f4907415-83c5-4eae-ab0b-cb63a840880d","meta":{"profile":["http://hl7.org/fhir/us/qicore/StructureDefinition/qicore-organization"]},"identifier":[{"use":"temp","system":"urn:oid:2.16.840.1.113883.4.4","value":"21-3259825"}],"active":true,"type":[{"coding":[{"system":"http://terminology.hl7.org/CodeSystem/organization-type","code":"pay","display":"Payer"}]}],"name":"Blue Cross Blue Shield of Texas","telecom":[{"system":"phone","value":"(+1) 972-766-6900"}],"address":[{"use":"billing","type":"postal","line":["P.O. Box 660044"],"city":"Dallas","state":"TX","postalCode":"75266-0044","country":"USA"}]},"request":{"method":"PUT","url":"Organization/f4907415-83c5-4eae-ab0b-cb63a840880d"}},{"fullUrl":"https://madie.cms.gov/MeasureReport/d5e1369e-ff4e-4008-9e97-258f1a8470c4","resource":{"resourceType":"MeasureReport","id":"d5e1369e-ff4e-4008-9e97-258f1a8470c4","meta":{"profile":["http://hl7.org/fhir/us/cqfmeasures/StructureDefinition/test-case-cqfm"]},"contained":[{"resourceType":"Parameters","id":"611f684b-e97b-450b-8c9b-75bfc64d739c-parameters","parameter":[{"name":"subject","valueString":"4c8ffb53-47d2-44bc-a1c3-dc192c70607f"}]}],"extension":[{"url":"http://hl7.org/fhir/us/cqfmeasures/StructureDefinition/cqfm-inputParameters","valueReference":{"reference":"#611f684b-e97b-450b-8c9b-75bfc64d739c-parameters"}},{"url":"http://hl7.org/fhir/us/cqfmeasures/StructureDefinition/cqfm-testCaseDescription","valueMarkdown":"antithrombotic not done due to medical reason =0 day after IP encounter starts AND NOT ED visit\n"}],"modifierExtension":[{"url":"http://hl7.org/fhir/us/cqfmeasures/StructureDefinition/cqfm-isTestCase","valueBoolean":true}],"status":"complete","type":"individual","measure":"https://madie.cms.gov/Measure/CMS72FHIRSTKAntithromboticDay2","period":{"start":"2026-01-01","end":"2026-12-31"},"group":[{"population":[{"code":{"coding":[{"system":"http://terminology.hl7.org/CodeSystem/measure-population","code":"initial-population","display":"Initial Population"}]},"count":1},{"code":{"coding":[{"system":"http://terminology.hl7.org/CodeSystem/measure-population","code":"denominator","display":"Denominator"}]},"count":1},{"code":{"coding":[{"system":"http://terminology.hl7.org/CodeSystem/measure-population","code":"denominator-exclusion","display":"Denominator Exclusion"}]},"count":0},{"code":{"coding":[{"system":"http://terminology.hl7.org/CodeSystem/measure-population","code":"numerator","display":"Numerator"}]},"count":0},{"code":{"coding":[{"system":"http://terminology.hl7.org/CodeSystem/measure-population","code":"denominator-exception","display":"Denominator Exception"}]},"count":1}]}]},"request":{"method":"PUT","url":"MeasureReport/d5e1369e-ff4e-4008-9e97-258f1a8470c4"}}]}