{"resourceType":"Bundle","id":"tests-ab28178c-eadb-41a3-861e-ee22c8f12d16-bundle","type":"transaction","entry":[{"fullUrl":"https://madie.cms.gov/Patient/ab28178c-eadb-41a3-861e-ee22c8f12d16","resource":{"resourceType":"Patient","id":"ab28178c-eadb-41a3-861e-ee22c8f12d16","meta":{"profile":["http://hl7.org/fhir/us/qicore/StructureDefinition/qicore-patient"]},"text":{"status":"generated","div":"<div xmlns=\"http://www.w3.org/1999/xhtml\"><div class=\"hapiHeaderText\">PharmContraDayOfObs_ED&lt;1hrObs&gt;1hrDayOfBFEncDayAft <b>DENEXCEPFAIL </b></div><table class=\"hapiPropertyTable\"><tbody><tr><td>Identifier</td><td>4cbac458cf08bb3745514cbd98fe57985e238b54828068b187ed271a02fb3bed</td></tr><tr><td>Date of birth</td><td><span>26 September 1975</span></td></tr></tbody></table></div>"},"extension":[{"url":"http://hl7.org/fhir/us/core/StructureDefinition/us-core-race","extension":[{"url":"ombCategory","valueCoding":{"system":"urn:oid:2.16.840.1.113883.6.238","code":"2054-5","display":"Black or African American","userSelected":true}},{"url":"text","valueString":"Black or African American"}]},{"url":"http://hl7.org/fhir/us/core/StructureDefinition/us-core-ethnicity","extension":[{"url":"ombCategory","valueCoding":{"system":"urn:oid:2.16.840.1.113883.6.238","code":"2186-5","display":"Not Hispanic or Latino","userSelected":true}},{"url":"text","valueString":"Not Hispanic or Latino"}]}],"identifier":[{"type":{"coding":[{"system":"http://terminology.hl7.org/CodeSystem/v2-0203","code":"MR"}]},"system":"https://bonnie-fhir.healthit.gov/","value":"60f82c2f98086b570510e2b8"}],"active":true,"name":[{"use":"usual","family":"DENEXCEPFail","given":["PharmContraDayOfObs_ED<1hrObs>1hrDayOfBFEncDayAft"]}],"gender":"female","birthDate":"1976-09-26"},"request":{"method":"PUT","url":"Patient/ab28178c-eadb-41a3-861e-ee22c8f12d16"}},{"fullUrl":"https://madie.cms.gov/Encounter/7257336b-a33e-4046-aef8-329c0ae1c52e","resource":{"resourceType":"Encounter","id":"7257336b-a33e-4046-aef8-329c0ae1c52e","meta":{"profile":["http://hl7.org/fhir/us/qicore/StructureDefinition/qicore-encounter"]},"status":"finished","class":{"system":"http://terminology.hl7.org/CodeSystem/v3-ActCode","code":"EMER","display":"emergency","userSelected":true},"type":[{"coding":[{"system":"http://snomed.info/sct","code":"4525004"}]}],"subject":{"reference":"Patient/ab28178c-eadb-41a3-861e-ee22c8f12d16"},"period":{"start":"2026-10-10T09:00:00.000+00:00","end":"2026-10-10T09:15:00.000+00:00"},"length":{"value":0,"unit":"days"}},"request":{"method":"PUT","url":"Encounter/7257336b-a33e-4046-aef8-329c0ae1c52e"}},{"fullUrl":"https://madie.cms.gov/Encounter/aec8f2ff-462b-4ef7-911c-8ae6902c8901","resource":{"resourceType":"Encounter","id":"aec8f2ff-462b-4ef7-911c-8ae6902c8901","meta":{"profile":["http://hl7.org/fhir/us/qicore/StructureDefinition/qicore-encounter"]},"status":"finished","class":{"system":"http://terminology.hl7.org/CodeSystem/v3-ActCode","code":"OBSENC","display":"observation encounter","userSelected":true},"type":[{"coding":[{"system":"http://snomed.info/sct","code":"448851000124103"}]}],"subject":{"reference":"Patient/ab28178c-eadb-41a3-861e-ee22c8f12d16"},"period":{"start":"2026-10-10T09:16:00.000+00:00","end":"2026-10-10T22:59:00.000+00:00"},"length":{"value":0,"unit":"days"}},"request":{"method":"PUT","url":"Encounter/aec8f2ff-462b-4ef7-911c-8ae6902c8901"}},{"fullUrl":"https://madie.cms.gov/Encounter/00b07eef-3ac0-4922-98aa-b5777735563c","resource":{"resourceType":"Encounter","id":"00b07eef-3ac0-4922-98aa-b5777735563c","meta":{"profile":["http://hl7.org/fhir/us/qicore/StructureDefinition/qicore-encounter"]},"status":"finished","class":{"system":"http://terminology.hl7.org/CodeSystem/v3-ActCode","code":"IMP","display":"inpatient encounter","userSelected":true},"type":[{"coding":[{"system":"http://snomed.info/sct","code":"32485007"}]}],"subject":{"reference":"Patient/ab28178c-eadb-41a3-861e-ee22c8f12d16"},"period":{"start":"2026-10-11T00:00:00.000+00:00","end":"2026-10-15T11:15:00.000+00:00"},"length":{"value":4,"unit":"days"},"diagnosis":[{"condition":{"reference":"Condition/9da6297a-4672-4a7b-a762-17c9ada7c36f"},"use":{"coding":[{"system":"http://terminology.hl7.org/CodeSystem/diagnosis-role","code":"billing","display":"Billing"}]},"rank":1}]},"request":{"method":"PUT","url":"Encounter/00b07eef-3ac0-4922-98aa-b5777735563c"}},{"fullUrl":"https://madie.cms.gov/MedicationAdministration/dfcbab96-4281-483f-b075-f7e6255e9573","resource":{"resourceType":"MedicationAdministration","id":"dfcbab96-4281-483f-b075-f7e6255e9573","meta":{"profile":["http://hl7.org/fhir/us/qicore/StructureDefinition/qicore-medicationadministration"]},"status":"completed","medicationCodeableConcept":{"coding":[{"system":"http://www.nlm.nih.gov/research/umls/rxnorm","code":"1116635"}]},"subject":{"reference":"Patient/ab28178c-eadb-41a3-861e-ee22c8f12d16"},"effectivePeriod":{"start":"2026-10-10T22:59:00+00:00"}},"request":{"method":"PUT","url":"MedicationAdministration/dfcbab96-4281-483f-b075-f7e6255e9573"}},{"fullUrl":"https://madie.cms.gov/Coverage/1fa5bcbb-489b-4b8f-8e6f-68d51730515e","resource":{"resourceType":"Coverage","id":"1fa5bcbb-489b-4b8f-8e6f-68d51730515e","status":"active","beneficiary":{"reference":"Patient/ab28178c-eadb-41a3-861e-ee22c8f12d16"},"period":{"start":"1976-09-26T08:00:00+00:00"},"payor":[{"reference":"Organization/9e9b3f13-a353-4173-b29b-947d6f1f2031"}]},"request":{"method":"PUT","url":"Coverage/1fa5bcbb-489b-4b8f-8e6f-68d51730515e"}},{"fullUrl":"https://madie.cms.gov/Condition/9da6297a-4672-4a7b-a762-17c9ada7c36f","resource":{"resourceType":"Condition","id":"9da6297a-4672-4a7b-a762-17c9ada7c36f","meta":{"profile":["http://hl7.org/fhir/us/qicore/StructureDefinition/qicore-condition"]},"clinicalStatus":{"coding":[{"system":"http://terminology.hl7.org/CodeSystem/condition-clinical","code":"active"}]},"verificationStatus":{"coding":[{"system":"http://terminology.hl7.org/CodeSystem/condition-ver-status","code":"confirmed"}]},"category":[{"coding":[{"system":"http://terminology.hl7.org/CodeSystem/condition-category","code":"encounter-diagnosis","display":"Encounter Diagnosis"}]}],"code":{"coding":[{"system":"http://snomed.info/sct","version":"2020-09","code":"111297002","display":"Nonparalytic stroke (disorder)","userSelected":true}]},"subject":{"reference":"Patient/ab28178c-eadb-41a3-861e-ee22c8f12d16"},"recordedDate":"2026-08-03T08:00:00.000+00:00"},"request":{"method":"PUT","url":"Condition/9da6297a-4672-4a7b-a762-17c9ada7c36f"}},{"fullUrl":"https://madie.cms.gov/Organization/b861bbf1-1439-44cb-86b2-9f0a9905e502","resource":{"resourceType":"Organization","id":"9e9b3f13-a353-4173-b29b-947d6f1f2031","meta":{"profile":["http://hl7.org/fhir/us/qicore/StructureDefinition/qicore-organization"]},"identifier":[{"use":"temp","system":"urn:oid:2.16.840.1.113883.4.4","value":"21-3259825"}],"active":true,"type":[{"coding":[{"system":"http://terminology.hl7.org/CodeSystem/organization-type","code":"pay","display":"Payer"}]}],"name":"Blue Cross Blue Shield of Texas","telecom":[{"system":"phone","value":"(+1) 972-766-6900"}],"address":[{"use":"billing","type":"postal","line":["P.O. Box 660044"],"city":"Dallas","state":"TX","postalCode":"75266-0044","country":"USA"}]},"request":{"method":"PUT","url":"Organization/9e9b3f13-a353-4173-b29b-947d6f1f2031"}},{"fullUrl":"https://madie.cms.gov/MeasureReport/476c19d1-ba04-4e07-bfb3-78c1433c4088","resource":{"resourceType":"MeasureReport","id":"476c19d1-ba04-4e07-bfb3-78c1433c4088","meta":{"profile":["http://hl7.org/fhir/us/cqfmeasures/StructureDefinition/test-case-cqfm"]},"contained":[{"resourceType":"Parameters","id":"2b979daf-fdea-4b59-9ca6-d9f5a120711d-parameters","parameter":[{"name":"subject","valueString":"ab28178c-eadb-41a3-861e-ee22c8f12d16"}]}],"extension":[{"url":"http://hl7.org/fhir/us/cqfmeasures/StructureDefinition/cqfm-inputParameters","valueReference":{"reference":"#2b979daf-fdea-4b59-9ca6-d9f5a120711d-parameters"}},{"url":"http://hl7.org/fhir/us/cqfmeasures/StructureDefinition/cqfm-testCaseDescription","valueMarkdown":"Patient receives Ticagrelor day of Obs. ED ends 1 min before Obs.Obs ends 61 min before IP start at midnight. Testing Day of operator with HospitalizationWithObservation function.\n"}],"modifierExtension":[{"url":"http://hl7.org/fhir/us/cqfmeasures/StructureDefinition/cqfm-isTestCase","valueBoolean":true}],"status":"complete","type":"individual","measure":"https://madie.cms.gov/Measure/CMS72FHIRSTKAntithromboticDay2","period":{"start":"2026-01-01","end":"2026-12-31"},"group":[{"population":[{"code":{"coding":[{"system":"http://terminology.hl7.org/CodeSystem/measure-population","code":"initial-population","display":"Initial Population"}]},"count":1},{"code":{"coding":[{"system":"http://terminology.hl7.org/CodeSystem/measure-population","code":"denominator","display":"Denominator"}]},"count":1},{"code":{"coding":[{"system":"http://terminology.hl7.org/CodeSystem/measure-population","code":"denominator-exclusion","display":"Denominator Exclusion"}]},"count":0},{"code":{"coding":[{"system":"http://terminology.hl7.org/CodeSystem/measure-population","code":"numerator","display":"Numerator"}]},"count":0},{"code":{"coding":[{"system":"http://terminology.hl7.org/CodeSystem/measure-population","code":"denominator-exception","display":"Denominator Exception"}]},"count":0}]}]},"request":{"method":"PUT","url":"MeasureReport/476c19d1-ba04-4e07-bfb3-78c1433c4088"}}]}