{"resourceType":"Bundle","id":"tests-c014ff5d-792f-45c9-9659-4999537005b0-bundle","type":"transaction","entry":[{"fullUrl":"https://madie.cms.gov/Patient/c014ff5d-792f-45c9-9659-4999537005b0","resource":{"resourceType":"Patient","id":"c014ff5d-792f-45c9-9659-4999537005b0","meta":{"profile":["http://hl7.org/fhir/us/qicore/StructureDefinition/qicore-patient"]},"text":{"status":"generated","div":"<div xmlns=\"http://www.w3.org/1999/xhtml\"><div class=\"hapiHeaderText\">INRDayOfObs_ED&lt;1hrObs&lt;1hrBFEncDayAft <b>DENEXCEPASS </b></div><table class=\"hapiPropertyTable\"><tbody><tr><td>Identifier</td><td>4544f9c471c2652e8cf28f7d498adb0102cf9aa43a574101f4daf3f05c2d1fab</td></tr><tr><td>Date of birth</td><td><span>26 September 1975</span></td></tr></tbody></table></div>"},"extension":[{"url":"http://hl7.org/fhir/us/core/StructureDefinition/us-core-race","extension":[{"url":"ombCategory","valueCoding":{"system":"urn:oid:2.16.840.1.113883.6.238","code":"2054-5","display":"Black or African American","userSelected":true}},{"url":"text","valueString":"Black or African American"}]},{"url":"http://hl7.org/fhir/us/core/StructureDefinition/us-core-ethnicity","extension":[{"url":"ombCategory","valueCoding":{"system":"urn:oid:2.16.840.1.113883.6.238","code":"2186-5","display":"Not Hispanic or Latino","userSelected":true}},{"url":"text","valueString":"Not Hispanic or Latino"}]}],"identifier":[{"type":{"coding":[{"system":"http://terminology.hl7.org/CodeSystem/v2-0203","code":"MR"}]},"system":"https://bonnie-fhir.healthit.gov/","value":"60f82c2f98086b570510e2ac"}],"active":true,"name":[{"use":"usual","family":"DENEXCEPass","given":["INRDayOfObs_ED<1hrObs<1hrBFEncDayAft"]}],"gender":"female","birthDate":"1976-09-26"},"request":{"method":"PUT","url":"Patient/c014ff5d-792f-45c9-9659-4999537005b0"}},{"fullUrl":"https://madie.cms.gov/Encounter/3307e245-92c8-4daa-a818-511081380acf","resource":{"resourceType":"Encounter","id":"3307e245-92c8-4daa-a818-511081380acf","meta":{"profile":["http://hl7.org/fhir/us/qicore/StructureDefinition/qicore-encounter"]},"status":"finished","class":{"system":"http://terminology.hl7.org/CodeSystem/v3-ActCode","code":"EMER","display":"emergency","userSelected":true},"type":[{"coding":[{"system":"http://snomed.info/sct","code":"4525004"}]}],"subject":{"reference":"Patient/c014ff5d-792f-45c9-9659-4999537005b0"},"period":{"start":"2026-10-11T06:15:00+00:00","end":"2026-10-11T06:30:00+00:00"},"length":{"value":0,"unit":"days"}},"request":{"method":"PUT","url":"Encounter/3307e245-92c8-4daa-a818-511081380acf"}},{"fullUrl":"https://madie.cms.gov/Encounter/e27b9f4f-6ef7-4317-bae1-66120444cc24","resource":{"resourceType":"Encounter","id":"e27b9f4f-6ef7-4317-bae1-66120444cc24","meta":{"profile":["http://hl7.org/fhir/us/qicore/StructureDefinition/qicore-encounter"]},"status":"finished","class":{"system":"http://terminology.hl7.org/CodeSystem/v3-ActCode","code":"OBSENC","display":"observation encounter","userSelected":true},"type":[{"coding":[{"system":"http://snomed.info/sct","code":"448951000124107"}]}],"subject":{"reference":"Patient/c014ff5d-792f-45c9-9659-4999537005b0"},"period":{"start":"2026-10-11T06:31:00+00:00","end":"2026-10-11T23:59:00+00:00"},"length":{"value":0,"unit":"days"}},"request":{"method":"PUT","url":"Encounter/e27b9f4f-6ef7-4317-bae1-66120444cc24"}},{"fullUrl":"https://madie.cms.gov/Encounter/774efdde-3e70-4554-8553-72e0c49406cd","resource":{"resourceType":"Encounter","id":"774efdde-3e70-4554-8553-72e0c49406cd","meta":{"profile":["http://hl7.org/fhir/us/qicore/StructureDefinition/qicore-encounter"]},"status":"finished","class":{"system":"http://terminology.hl7.org/CodeSystem/v3-ActCode","code":"IMP","display":"inpatient encounter","userSelected":true},"type":[{"coding":[{"system":"http://snomed.info/sct","code":"32485007"}]}],"subject":{"reference":"Patient/c014ff5d-792f-45c9-9659-4999537005b0"},"period":{"start":"2026-10-12T00:00:00+00:00","end":"2026-10-15T11:30:00+00:00"},"length":{"value":3,"unit":"days"},"diagnosis":[{"condition":{"reference":"Condition/347b5807-e593-441e-a965-8e8bc1efb9eb"},"use":{"coding":[{"system":"http://terminology.hl7.org/CodeSystem/diagnosis-role","code":"billing","display":"Billing"}]},"rank":1}]},"request":{"method":"PUT","url":"Encounter/774efdde-3e70-4554-8553-72e0c49406cd"}},{"fullUrl":"https://madie.cms.gov/Observation/dd2992ed-2ef9-4a2a-a89b-63ef533fff6e","resource":{"resourceType":"Observation","id":"dd2992ed-2ef9-4a2a-a89b-63ef533fff6e","meta":{"profile":["http://hl7.org/fhir/us/qicore/StructureDefinition/qicore-observation"]},"status":"final","category":[{"coding":[{"system":"http://terminology.hl7.org/CodeSystem/observation-category","code":"laboratory","display":"Laboratory"}]}],"code":{"coding":[{"system":"http://loinc.org","code":"34714-6"}]},"subject":{"reference":"Patient/c014ff5d-792f-45c9-9659-4999537005b0"},"effectivePeriod":{"start":"2026-10-11T08:00:00+00:00"},"issued":"2026-10-11T23:59:00.000+00:00","valueQuantity":{"value":3.6}},"request":{"method":"PUT","url":"Observation/dd2992ed-2ef9-4a2a-a89b-63ef533fff6e"}},{"fullUrl":"https://madie.cms.gov/Coverage/823d9fc6-5dfd-41db-95bd-4235ef0c50e3","resource":{"resourceType":"Coverage","id":"823d9fc6-5dfd-41db-95bd-4235ef0c50e3","status":"active","beneficiary":{"reference":"Patient/c014ff5d-792f-45c9-9659-4999537005b0"},"period":{"start":"1976-09-26T08:00:00+00:00"},"payor":[{"reference":"Organization/9e9b3f13-a353-4173-b29b-947d6f1f2031"}]},"request":{"method":"PUT","url":"Coverage/823d9fc6-5dfd-41db-95bd-4235ef0c50e3"}},{"fullUrl":"https://madie.cms.gov/Condition/347b5807-e593-441e-a965-8e8bc1efb9eb","resource":{"resourceType":"Condition","id":"347b5807-e593-441e-a965-8e8bc1efb9eb","meta":{"profile":["http://hl7.org/fhir/us/qicore/StructureDefinition/qicore-condition"]},"clinicalStatus":{"coding":[{"system":"http://terminology.hl7.org/CodeSystem/condition-clinical","code":"active"}]},"verificationStatus":{"coding":[{"system":"http://terminology.hl7.org/CodeSystem/condition-ver-status","code":"confirmed"}]},"category":[{"coding":[{"system":"http://terminology.hl7.org/CodeSystem/condition-category","code":"encounter-diagnosis","display":"Encounter Diagnosis"}]}],"code":{"coding":[{"system":"http://snomed.info/sct","version":"2020-09","code":"111297002","display":"Nonparalytic stroke (disorder)","userSelected":true}]},"subject":{"reference":"Patient/c014ff5d-792f-45c9-9659-4999537005b0"},"recordedDate":"2026-08-06T08:00:00.000+00:00"},"request":{"method":"PUT","url":"Condition/347b5807-e593-441e-a965-8e8bc1efb9eb"}},{"fullUrl":"https://madie.cms.gov/Organization/28278a4c-2b81-44ab-92dd-8c296f36015a","resource":{"resourceType":"Organization","id":"9e9b3f13-a353-4173-b29b-947d6f1f2031","meta":{"profile":["http://hl7.org/fhir/us/qicore/StructureDefinition/qicore-organization"]},"identifier":[{"use":"temp","system":"urn:oid:2.16.840.1.113883.4.4","value":"21-3259825"}],"active":true,"type":[{"coding":[{"system":"http://terminology.hl7.org/CodeSystem/organization-type","code":"pay","display":"Payer"}]}],"name":"Blue Cross Blue Shield of Texas","telecom":[{"system":"phone","value":"(+1) 972-766-6900"}],"address":[{"use":"billing","type":"postal","line":["P.O. Box 660044"],"city":"Dallas","state":"TX","postalCode":"75266-0044","country":"USA"}]},"request":{"method":"PUT","url":"Organization/9e9b3f13-a353-4173-b29b-947d6f1f2031"}},{"fullUrl":"https://madie.cms.gov/MeasureReport/b982ca6b-9087-4ed4-ab6b-ff74587df67b","resource":{"resourceType":"MeasureReport","id":"b982ca6b-9087-4ed4-ab6b-ff74587df67b","meta":{"profile":["http://hl7.org/fhir/us/cqfmeasures/StructureDefinition/test-case-cqfm"]},"contained":[{"resourceType":"Parameters","id":"65af1f0e-5a21-4cbc-8235-66a528e6c7de-parameters","parameter":[{"name":"subject","valueString":"c014ff5d-792f-45c9-9659-4999537005b0"}]}],"extension":[{"url":"http://hl7.org/fhir/us/cqfmeasures/StructureDefinition/cqfm-inputParameters","valueReference":{"reference":"#65af1f0e-5a21-4cbc-8235-66a528e6c7de-parameters"}},{"url":"http://hl7.org/fhir/us/cqfmeasures/StructureDefinition/cqfm-testCaseDescription","valueMarkdown":"Patient receives INR day of Obs, ED ends 1 min before Obs start,  ED ends 1 min before observation, Obs ends 1 min before IP start at midnight. Testing Day of operator with HospitalizationWithObservation function.\n"}],"modifierExtension":[{"url":"http://hl7.org/fhir/us/cqfmeasures/StructureDefinition/cqfm-isTestCase","valueBoolean":true}],"status":"complete","type":"individual","measure":"https://madie.cms.gov/Measure/CMS72FHIRSTKAntithromboticDay2","period":{"start":"2026-01-01","end":"2026-12-31"},"group":[{"population":[{"code":{"coding":[{"system":"http://terminology.hl7.org/CodeSystem/measure-population","code":"initial-population","display":"Initial Population"}]},"count":1},{"code":{"coding":[{"system":"http://terminology.hl7.org/CodeSystem/measure-population","code":"denominator","display":"Denominator"}]},"count":1},{"code":{"coding":[{"system":"http://terminology.hl7.org/CodeSystem/measure-population","code":"denominator-exclusion","display":"Denominator Exclusion"}]},"count":0},{"code":{"coding":[{"system":"http://terminology.hl7.org/CodeSystem/measure-population","code":"numerator","display":"Numerator"}]},"count":0},{"code":{"coding":[{"system":"http://terminology.hl7.org/CodeSystem/measure-population","code":"denominator-exception","display":"Denominator Exception"}]},"count":1}]}]},"request":{"method":"PUT","url":"MeasureReport/b982ca6b-9087-4ed4-ab6b-ff74587df67b"}}]}