{"resourceType":"Bundle","id":"tests-a3aa4397-179c-4024-929d-2aa45a6ca0a9-bundle","type":"transaction","entry":[{"fullUrl":"https://madie.cms.gov/Patient/a3aa4397-179c-4024-929d-2aa45a6ca0a9","resource":{"resourceType":"Patient","id":"a3aa4397-179c-4024-929d-2aa45a6ca0a9","meta":{"profile":["http://hl7.org/fhir/us/qicore/StructureDefinition/qicore-patient"]},"text":{"status":"generated","div":"<div xmlns=\"http://www.w3.org/1999/xhtml\"><div class=\"hapiHeaderText\">ProcTPA=EncIPStart <b>DENEXPASS </b></div><table class=\"hapiPropertyTable\"><tbody><tr><td>Identifier</td><td>2fa42e72a943eb805f33de7897a4fe3c</td></tr><tr><td>Date of birth</td><td><span>26 September 1975</span></td></tr></tbody></table></div>"},"extension":[{"url":"http://hl7.org/fhir/us/core/StructureDefinition/us-core-race","extension":[{"url":"ombCategory","valueCoding":{"system":"urn:oid:2.16.840.1.113883.6.238","code":"2054-5","display":"Black or African American","userSelected":true}},{"url":"text","valueString":"Black or African American"}]},{"url":"http://hl7.org/fhir/us/core/StructureDefinition/us-core-ethnicity","extension":[{"url":"ombCategory","valueCoding":{"system":"urn:oid:2.16.840.1.113883.6.238","code":"2186-5","display":"Not Hispanic or Latino","userSelected":true}},{"url":"text","valueString":"Not Hispanic or Latino"}]}],"identifier":[{"type":{"coding":[{"system":"http://terminology.hl7.org/CodeSystem/v2-0203","code":"MR"}]},"system":"https://bonnie-fhir.healthit.gov/","value":"60f82c2e98086b570510e25e"}],"active":true,"name":[{"use":"usual","family":"DENEXPass","given":["ProcTPA=EncIPStart"]}],"gender":"female","birthDate":"1976-09-26"},"request":{"method":"PUT","url":"Patient/a3aa4397-179c-4024-929d-2aa45a6ca0a9"}},{"fullUrl":"https://madie.cms.gov/Encounter/2b54a501-9893-4e62-a6c5-e1eefa226693","resource":{"resourceType":"Encounter","id":"2b54a501-9893-4e62-a6c5-e1eefa226693","meta":{"profile":["http://hl7.org/fhir/us/qicore/StructureDefinition/qicore-encounter"]},"status":"finished","class":{"system":"http://terminology.hl7.org/CodeSystem/v3-ActCode","code":"EMER","display":"emergency"},"type":[{"coding":[{"system":"http://snomed.info/sct","code":"4525004"}]}],"subject":{"reference":"Patient/a3aa4397-179c-4024-929d-2aa45a6ca0a9"},"period":{"start":"2026-10-10T06:00:00+00:00","end":"2026-10-10T07:01:00+00:00"},"length":{"value":0,"unit":"days"}},"request":{"method":"PUT","url":"Encounter/2b54a501-9893-4e62-a6c5-e1eefa226693"}},{"fullUrl":"https://madie.cms.gov/Encounter/0a2400fb-0ce8-4f78-954d-ae9d283e3e59","resource":{"resourceType":"Encounter","id":"0a2400fb-0ce8-4f78-954d-ae9d283e3e59","meta":{"profile":["http://hl7.org/fhir/us/qicore/StructureDefinition/qicore-encounter"]},"status":"finished","class":{"system":"http://terminology.hl7.org/CodeSystem/v3-ActCode","code":"IMP","display":"inpatient encounter"},"type":[{"coding":[{"system":"http://snomed.info/sct","code":"32485007"}]}],"subject":{"reference":"Patient/a3aa4397-179c-4024-929d-2aa45a6ca0a9"},"period":{"start":"2026-10-10T09:00:00+00:00","end":"2026-10-12T11:15:00+00:00"},"length":{"value":2,"unit":"days"},"diagnosis":[{"condition":{"reference":"Condition/79664932-9085-4e7c-b2ff-63b67c3b71e3"},"use":{"coding":[{"system":"http://terminology.hl7.org/CodeSystem/diagnosis-role","code":"billing","display":"Billing"}]},"rank":1}]},"request":{"method":"PUT","url":"Encounter/0a2400fb-0ce8-4f78-954d-ae9d283e3e59"}},{"fullUrl":"https://madie.cms.gov/Coverage/a5456eae-5625-4093-a22c-b93b8401a73c","resource":{"resourceType":"Coverage","id":"a5456eae-5625-4093-a22c-b93b8401a73c","status":"active","beneficiary":{"reference":"Patient/a3aa4397-179c-4024-929d-2aa45a6ca0a9"},"period":{"start":"1976-09-26T08:00:00+00:00"},"payor":[{"reference":"Organization/880a275e-1cf2-4fb9-869b-f1d2173fdc2b"}]},"request":{"method":"PUT","url":"Coverage/a5456eae-5625-4093-a22c-b93b8401a73c"}},{"fullUrl":"https://madie.cms.gov/Procedure/87d77af0-40c8-4e9d-8988-4b5e501f272e","resource":{"resourceType":"Procedure","id":"87d77af0-40c8-4e9d-8988-4b5e501f272e","meta":{"profile":["http://hl7.org/fhir/us/qicore/StructureDefinition/qicore-procedure"]},"extension":[{"url":"http://hl7.org/fhir/us/qicore/StructureDefinition/qicore-recorded","valueDateTime":"2026-10-10T09:00:00+00:00"}],"status":"completed","code":{"coding":[{"system":"http://snomed.info/sct","code":"307521008"}]},"subject":{"reference":"Patient/a3aa4397-179c-4024-929d-2aa45a6ca0a9"},"performedPeriod":{"start":"2026-10-10T09:00:00+00:00","end":"2026-10-12T11:15:00+00:00"}},"request":{"method":"PUT","url":"Procedure/87d77af0-40c8-4e9d-8988-4b5e501f272e"}},{"fullUrl":"https://madie.cms.gov/Condition/79664932-9085-4e7c-b2ff-63b67c3b71e3","resource":{"resourceType":"Condition","id":"79664932-9085-4e7c-b2ff-63b67c3b71e3","meta":{"profile":["http://hl7.org/fhir/us/qicore/StructureDefinition/qicore-condition"]},"clinicalStatus":{"coding":[{"system":"http://terminology.hl7.org/CodeSystem/condition-clinical","code":"active"}]},"verificationStatus":{"coding":[{"system":"http://terminology.hl7.org/CodeSystem/condition-ver-status","code":"confirmed"}]},"category":[{"coding":[{"system":"http://terminology.hl7.org/CodeSystem/condition-category","code":"encounter-diagnosis","display":"Encounter Diagnosis"}]}],"code":{"coding":[{"system":"http://snomed.info/sct","version":"2020-09","code":"111297002","display":"Nonparalytic stroke (disorder)","userSelected":true}]},"subject":{"reference":"Patient/a3aa4397-179c-4024-929d-2aa45a6ca0a9"},"recordedDate":"2026-08-13T08:00:00.000+00:00"},"request":{"method":"PUT","url":"Condition/79664932-9085-4e7c-b2ff-63b67c3b71e3"}},{"fullUrl":"https://madie.cms.gov/Organization/49b09fb7-3217-4ffe-890e-7b51491925e6","resource":{"resourceType":"Organization","id":"880a275e-1cf2-4fb9-869b-f1d2173fdc2b","meta":{"profile":["http://hl7.org/fhir/us/qicore/StructureDefinition/qicore-organization"]},"identifier":[{"use":"temp","system":"urn:oid:2.16.840.1.113883.4.4","value":"21-3259825"}],"active":true,"type":[{"coding":[{"system":"http://terminology.hl7.org/CodeSystem/organization-type","code":"pay","display":"Payer"}]}],"name":"Blue Cross Blue Shield of Texas","telecom":[{"system":"phone","value":"(+1) 972-766-6900"}],"address":[{"use":"billing","type":"postal","line":["P.O. Box 660044"],"city":"Dallas","state":"TX","postalCode":"75266-0044","country":"USA"}]},"request":{"method":"PUT","url":"Organization/880a275e-1cf2-4fb9-869b-f1d2173fdc2b"}},{"fullUrl":"https://madie.cms.gov/Practitioner/5d1bd684-9b04-4b4c-8830-03771dc49072","resource":{"resourceType":"Practitioner","id":"5d1bd684-9b04-4b4c-8830-03771dc49072","identifier":[{"system":"http://hl7.org/fhir/sid/us-npi","value":"123456"}],"name":[{"family":"Evil","prefix":["Dr"]}]},"request":{"method":"PUT","url":"Practitioner/5d1bd684-9b04-4b4c-8830-03771dc49072"}},{"fullUrl":"https://madie.cms.gov/MeasureReport/5b4201ce-b343-4e31-bf38-0f11592d6019","resource":{"resourceType":"MeasureReport","id":"5b4201ce-b343-4e31-bf38-0f11592d6019","meta":{"profile":["http://hl7.org/fhir/us/cqfmeasures/StructureDefinition/test-case-cqfm"]},"contained":[{"resourceType":"Parameters","id":"759e9987-de64-4274-80dd-07e0b8d6b12d-parameters","parameter":[{"name":"subject","valueString":"a3aa4397-179c-4024-929d-2aa45a6ca0a9"}]}],"extension":[{"url":"http://hl7.org/fhir/us/cqfmeasures/StructureDefinition/cqfm-inputParameters","valueReference":{"reference":"#759e9987-de64-4274-80dd-07e0b8d6b12d-parameters"}},{"url":"http://hl7.org/fhir/us/cqfmeasures/StructureDefinition/cqfm-testCaseDescription","valueMarkdown":"Patient has  Proc IV or IA TPA concurrent with start of IP encounter\n"}],"modifierExtension":[{"url":"http://hl7.org/fhir/us/cqfmeasures/StructureDefinition/cqfm-isTestCase","valueBoolean":true}],"status":"complete","type":"individual","measure":"https://madie.cms.gov/Measure/CMS72FHIRSTKAntithromboticDay2","period":{"start":"2026-01-01","end":"2026-12-31"},"group":[{"population":[{"code":{"coding":[{"system":"http://terminology.hl7.org/CodeSystem/measure-population","code":"initial-population","display":"Initial Population"}]},"count":1},{"code":{"coding":[{"system":"http://terminology.hl7.org/CodeSystem/measure-population","code":"denominator","display":"Denominator"}]},"count":1},{"code":{"coding":[{"system":"http://terminology.hl7.org/CodeSystem/measure-population","code":"denominator-exclusion","display":"Denominator Exclusion"}]},"count":1},{"code":{"coding":[{"system":"http://terminology.hl7.org/CodeSystem/measure-population","code":"numerator","display":"Numerator"}]},"count":0},{"code":{"coding":[{"system":"http://terminology.hl7.org/CodeSystem/measure-population","code":"denominator-exception","display":"Denominator Exception"}]},"count":0}]}]},"request":{"method":"PUT","url":"MeasureReport/5b4201ce-b343-4e31-bf38-0f11592d6019"}}]}