{"resourceType":"Bundle","id":"tests-e0bae301-79a4-48b0-a174-5eb1bd6cf19e-bundle","type":"transaction","entry":[{"fullUrl":"https://madie.cms.gov/Patient/e0bae301-79a4-48b0-a174-5eb1bd6cf19e","resource":{"resourceType":"Patient","id":"e0bae301-79a4-48b0-a174-5eb1bd6cf19e","meta":{"profile":["http://hl7.org/fhir/us/qicore/StructureDefinition/qicore-patient"]},"text":{"status":"generated","div":"<div xmlns=\"http://www.w3.org/1999/xhtml\"><div class=\"hapiHeaderText\">MedTPA&lt;24hrB4ED_EDET=EncST <b>DENEXPASS </b></div><table class=\"hapiPropertyTable\"><tbody><tr><td>Identifier</td><td>2a5c51c4bb000beac98349a46ff02c15</td></tr><tr><td>Date of birth</td><td><span>26 September 1975</span></td></tr></tbody></table></div>"},"extension":[{"url":"http://hl7.org/fhir/us/core/StructureDefinition/us-core-race","extension":[{"url":"ombCategory","valueCoding":{"system":"urn:oid:2.16.840.1.113883.6.238","code":"2054-5","display":"Black or African American","userSelected":true}},{"url":"text","valueString":"Black or African American"}]},{"url":"http://hl7.org/fhir/us/core/StructureDefinition/us-core-ethnicity","extension":[{"url":"ombCategory","valueCoding":{"system":"urn:oid:2.16.840.1.113883.6.238","code":"2186-5","display":"Not Hispanic or Latino","userSelected":true}},{"url":"text","valueString":"Not Hispanic or Latino"}]}],"identifier":[{"type":{"coding":[{"system":"http://terminology.hl7.org/CodeSystem/v2-0203","code":"MR"}]},"system":"https://bonnie-fhir.healthit.gov/","value":"60f82c2e98086b570510e26b"}],"active":true,"name":[{"use":"usual","family":"DENEXPass","given":["MedTPA<24hrB4ED_EDET=EncST"]}],"gender":"female","birthDate":"1976-09-26"},"request":{"method":"PUT","url":"Patient/e0bae301-79a4-48b0-a174-5eb1bd6cf19e"}},{"fullUrl":"https://madie.cms.gov/Encounter/3154a9be-0193-4b62-a7d9-13b698f22ba2","resource":{"resourceType":"Encounter","id":"3154a9be-0193-4b62-a7d9-13b698f22ba2","meta":{"profile":["http://hl7.org/fhir/us/qicore/StructureDefinition/qicore-encounter"]},"status":"finished","class":{"system":"http://terminology.hl7.org/CodeSystem/v3-ActCode","code":"EMER","display":"emergency"},"type":[{"coding":[{"system":"http://snomed.info/sct","code":"4525004"}]}],"subject":{"reference":"Patient/e0bae301-79a4-48b0-a174-5eb1bd6cf19e"},"period":{"start":"2026-10-10T06:00:00+00:00","end":"2026-10-10T07:01:00+00:00"},"length":{"value":0,"unit":"days"}},"request":{"method":"PUT","url":"Encounter/3154a9be-0193-4b62-a7d9-13b698f22ba2"}},{"fullUrl":"https://madie.cms.gov/Encounter/8e9ed17a-a03c-41bd-81c5-f3b1808db032","resource":{"resourceType":"Encounter","id":"8e9ed17a-a03c-41bd-81c5-f3b1808db032","meta":{"profile":["http://hl7.org/fhir/us/qicore/StructureDefinition/qicore-encounter"]},"status":"finished","class":{"system":"http://terminology.hl7.org/CodeSystem/v3-ActCode","code":"IMP","display":"inpatient encounter"},"type":[{"coding":[{"system":"http://snomed.info/sct","code":"32485007"}]}],"subject":{"reference":"Patient/e0bae301-79a4-48b0-a174-5eb1bd6cf19e"},"period":{"start":"2026-10-10T07:01:00+00:00","end":"2026-10-12T11:15:00+00:00"},"length":{"value":2,"unit":"days"},"diagnosis":[{"condition":{"reference":"Condition/3bde21fc-a61d-42a4-83bf-7d518fccab5e"},"use":{"coding":[{"system":"http://terminology.hl7.org/CodeSystem/diagnosis-role","code":"billing","display":"Billing"}]},"rank":1}]},"request":{"method":"PUT","url":"Encounter/8e9ed17a-a03c-41bd-81c5-f3b1808db032"}},{"fullUrl":"https://madie.cms.gov/MedicationAdministration/f7064218-6495-434e-a938-65b6fd48cfcd","resource":{"resourceType":"MedicationAdministration","id":"f7064218-6495-434e-a938-65b6fd48cfcd","meta":{"profile":["http://hl7.org/fhir/us/qicore/StructureDefinition/qicore-medicationadministration"]},"status":"completed","medicationCodeableConcept":{"coding":[{"system":"http://www.nlm.nih.gov/research/umls/rxnorm","code":"1804799"}]},"subject":{"reference":"Patient/e0bae301-79a4-48b0-a174-5eb1bd6cf19e"},"effectivePeriod":{"start":"2026-10-09T06:01:00+00:00"}},"request":{"method":"PUT","url":"MedicationAdministration/f7064218-6495-434e-a938-65b6fd48cfcd"}},{"fullUrl":"https://madie.cms.gov/Coverage/672326f9-1806-44cb-8884-e484d0df56d1","resource":{"resourceType":"Coverage","id":"672326f9-1806-44cb-8884-e484d0df56d1","status":"active","beneficiary":{"reference":"Patient/e0bae301-79a4-48b0-a174-5eb1bd6cf19e"},"period":{"start":"1976-09-26T08:00:00+00:00"},"payor":[{"reference":"Organization/3778262e-e084-4bb5-9a47-1a144735f786"}]},"request":{"method":"PUT","url":"Coverage/672326f9-1806-44cb-8884-e484d0df56d1"}},{"fullUrl":"https://madie.cms.gov/Condition/3bde21fc-a61d-42a4-83bf-7d518fccab5e","resource":{"resourceType":"Condition","id":"3bde21fc-a61d-42a4-83bf-7d518fccab5e","meta":{"profile":["http://hl7.org/fhir/us/qicore/StructureDefinition/qicore-condition"]},"clinicalStatus":{"coding":[{"system":"http://terminology.hl7.org/CodeSystem/condition-clinical","code":"active"}]},"verificationStatus":{"coding":[{"system":"http://terminology.hl7.org/CodeSystem/condition-ver-status","code":"confirmed"}]},"category":[{"coding":[{"system":"http://terminology.hl7.org/CodeSystem/condition-category","code":"encounter-diagnosis","display":"Encounter Diagnosis"}]}],"code":{"coding":[{"system":"http://snomed.info/sct","version":"2020-09","code":"111297002","display":"Nonparalytic stroke (disorder)","userSelected":true}]},"subject":{"reference":"Patient/e0bae301-79a4-48b0-a174-5eb1bd6cf19e"},"recordedDate":"2026-08-13T08:00:00.000+00:00"},"request":{"method":"PUT","url":"Condition/3bde21fc-a61d-42a4-83bf-7d518fccab5e"}},{"fullUrl":"https://madie.cms.gov/Organization/23789f54-ec17-4801-883e-098dfe872308","resource":{"resourceType":"Organization","id":"3778262e-e084-4bb5-9a47-1a144735f786","meta":{"profile":["http://hl7.org/fhir/us/qicore/StructureDefinition/qicore-organization"]},"identifier":[{"use":"temp","system":"urn:oid:2.16.840.1.113883.4.4","value":"21-3259825"}],"active":true,"type":[{"coding":[{"system":"http://terminology.hl7.org/CodeSystem/organization-type","code":"pay","display":"Payer"}]}],"name":"Blue Cross Blue Shield of Texas","telecom":[{"system":"phone","value":"(+1) 972-766-6900"}],"address":[{"use":"billing","type":"postal","line":["P.O. Box 660044"],"city":"Dallas","state":"TX","postalCode":"75266-0044","country":"USA"}]},"request":{"method":"PUT","url":"Organization/3778262e-e084-4bb5-9a47-1a144735f786"}},{"fullUrl":"https://madie.cms.gov/MeasureReport/62ed571f-eade-4a8f-8a93-6b3d4b78b393","resource":{"resourceType":"MeasureReport","id":"62ed571f-eade-4a8f-8a93-6b3d4b78b393","meta":{"profile":["http://hl7.org/fhir/us/cqfmeasures/StructureDefinition/test-case-cqfm"]},"contained":[{"resourceType":"Parameters","id":"89b7abb1-2ab6-4660-8962-143f341814fe-parameters","parameter":[{"name":"subject","valueString":"e0bae301-79a4-48b0-a174-5eb1bd6cf19e"}]}],"extension":[{"url":"http://hl7.org/fhir/us/cqfmeasures/StructureDefinition/cqfm-inputParameters","valueReference":{"reference":"#89b7abb1-2ab6-4660-8962-143f341814fe-parameters"}},{"url":"http://hl7.org/fhir/us/cqfmeasures/StructureDefinition/cqfm-testCaseDescription","valueMarkdown":"Patient receives TPA 23 hours and 59 minutes before ED Visit, ED ends on enc start time.\n"}],"modifierExtension":[{"url":"http://hl7.org/fhir/us/cqfmeasures/StructureDefinition/cqfm-isTestCase","valueBoolean":true}],"status":"complete","type":"individual","measure":"https://madie.cms.gov/Measure/CMS72FHIRSTKAntithromboticDay2","period":{"start":"2026-01-01","end":"2026-12-31"},"group":[{"population":[{"code":{"coding":[{"system":"http://terminology.hl7.org/CodeSystem/measure-population","code":"initial-population","display":"Initial Population"}]},"count":1},{"code":{"coding":[{"system":"http://terminology.hl7.org/CodeSystem/measure-population","code":"denominator","display":"Denominator"}]},"count":1},{"code":{"coding":[{"system":"http://terminology.hl7.org/CodeSystem/measure-population","code":"denominator-exclusion","display":"Denominator Exclusion"}]},"count":1},{"code":{"coding":[{"system":"http://terminology.hl7.org/CodeSystem/measure-population","code":"numerator","display":"Numerator"}]},"count":0},{"code":{"coding":[{"system":"http://terminology.hl7.org/CodeSystem/measure-population","code":"denominator-exception","display":"Denominator Exception"}]},"count":0}]}]},"request":{"method":"PUT","url":"MeasureReport/62ed571f-eade-4a8f-8a93-6b3d4b78b393"}}]}