{"resourceType":"Bundle","id":"tests-2dc3e469-a1c6-4419-aecc-72e75dc8507b-bundle","type":"transaction","entry":[{"fullUrl":"https://madie.cms.gov/Patient/2dc3e469-a1c6-4419-aecc-72e75dc8507b","resource":{"resourceType":"Patient","id":"2dc3e469-a1c6-4419-aecc-72e75dc8507b","meta":{"profile":["http://hl7.org/fhir/us/qicore/StructureDefinition/qicore-patient"]},"text":{"status":"generated","div":"<div xmlns=\"http://www.w3.org/1999/xhtml\"><div class=\"hapiHeaderText\">LCG3ENC <b>DENEXPASS3 </b></div><table class=\"hapiPropertyTable\"><tbody><tr><td>Date of birth</td><td><span>09 February 1949</span></td></tr></tbody></table></div>"},"extension":[{"url":"http://hl7.org/fhir/us/core/StructureDefinition/us-core-race","extension":[{"url":"ombCategory","valueCoding":{"system":"urn:oid:2.16.840.1.113883.6.238","code":"2106-3","display":"White","userSelected":true}},{"url":"text","valueString":"White"}]},{"url":"http://hl7.org/fhir/us/core/StructureDefinition/us-core-ethnicity","extension":[{"url":"ombCategory","valueCoding":{"system":"urn:oid:2.16.840.1.113883.6.238","code":"2186-5","display":"Not Hispanic or Latino","userSelected":true}},{"url":"text","valueString":"Not Hispanic or Latino"}]}],"identifier":[{"type":{"coding":[{"system":"http://terminology.hl7.org/CodeSystem/v2-0203","code":"MR"}]},"system":"https://bonnie-fhir.healthit.gov/","value":"60f82c3098086b570510e2ce"}],"active":true,"name":[{"use":"usual","family":"DENEXPass3","given":["LCG3ENC"]}],"gender":"male","birthDate":"1950-02-09"},"request":{"method":"PUT","url":"Patient/2dc3e469-a1c6-4419-aecc-72e75dc8507b"}},{"fullUrl":"https://madie.cms.gov/Condition/00b6cc23-4005-433e-b11b-fd33237fba47","resource":{"resourceType":"Condition","id":"00b6cc23-4005-433e-b11b-fd33237fba47","meta":{"profile":["http://hl7.org/fhir/us/qicore/StructureDefinition/qicore-condition"]},"clinicalStatus":{"coding":[{"system":"http://terminology.hl7.org/CodeSystem/condition-clinical","code":"inactive","display":"Inactive","userSelected":true}]},"verificationStatus":{"coding":[{"system":"http://terminology.hl7.org/CodeSystem/condition-ver-status","code":"confirmed","display":"confirmed","userSelected":true}]},"category":[{"coding":[{"system":"http://terminology.hl7.org/CodeSystem/condition-category","code":"encounter-diagnosis","display":"Encounter Diagnosis"}]}],"code":{"coding":[{"system":"http://hl7.org/fhir/sid/icd-10-cm","code":"Z92.82"}]},"subject":{"reference":"Patient/2dc3e469-a1c6-4419-aecc-72e75dc8507b"},"onsetDateTime":"2026-03-11T09:00:00+00:00","abatementDateTime":"2026-04-01T08:15:00+00:00","recordedDate":"2026-03-11T09:00:00+00:00"},"request":{"method":"PUT","url":"Condition/00b6cc23-4005-433e-b11b-fd33237fba47"}},{"fullUrl":"https://madie.cms.gov/Encounter/4e32e4fb-8059-4661-b94a-ea8e52abf17e","resource":{"resourceType":"Encounter","id":"4e32e4fb-8059-4661-b94a-ea8e52abf17e","meta":{"profile":["http://hl7.org/fhir/us/qicore/StructureDefinition/qicore-encounter"]},"status":"finished","class":{"system":"http://terminology.hl7.org/CodeSystem/v3-ActCode","code":"EMER","display":"emergency"},"type":[{"coding":[{"system":"http://snomed.info/sct","code":"4525004"}]}],"subject":{"reference":"Patient/2dc3e469-a1c6-4419-aecc-72e75dc8507b"},"period":{"start":"2026-02-12T08:00:00+00:00","end":"2026-02-12T20:15:00+00:00"},"diagnosis":[{"condition":{"reference":"Condition/7b45965f-a592-49cf-be66-34098daa54f7"},"use":{"coding":[{"system":"http://snomed.info/sct","code":"52201006","display":"Internal capsule hemorrhage (disorder)"}]}}]},"request":{"method":"PUT","url":"Encounter/4e32e4fb-8059-4661-b94a-ea8e52abf17e"}},{"fullUrl":"https://madie.cms.gov/Encounter/7a24b3f0-885a-4eb6-a4e1-96a309bcff30","resource":{"resourceType":"Encounter","id":"7a24b3f0-885a-4eb6-a4e1-96a309bcff30","meta":{"profile":["http://hl7.org/fhir/us/qicore/StructureDefinition/qicore-encounter"]},"status":"finished","class":{"system":"http://terminology.hl7.org/CodeSystem/v3-ActCode","code":"IMP","display":"inpatient encounter"},"type":[{"coding":[{"system":"http://snomed.info/sct","code":"183452005"}]}],"subject":{"reference":"Patient/2dc3e469-a1c6-4419-aecc-72e75dc8507b"},"period":{"start":"2026-03-01T05:00:00+00:00","end":"2026-03-01T11:15:00+00:00"},"diagnosis":[{"condition":{"reference":"Condition/03f708e5-74b3-4f3d-95a7-c666fda6ad50"},"use":{"coding":[{"system":"http://terminology.hl7.org/CodeSystem/diagnosis-role","code":"billing","display":"Billing"}]},"rank":1}]},"request":{"method":"PUT","url":"Encounter/7a24b3f0-885a-4eb6-a4e1-96a309bcff30"}},{"fullUrl":"https://madie.cms.gov/Encounter/1ad9ee26-3c22-4cd4-8034-6aa4423f8c34","resource":{"resourceType":"Encounter","id":"1ad9ee26-3c22-4cd4-8034-6aa4423f8c34","meta":{"profile":["http://hl7.org/fhir/us/qicore/StructureDefinition/qicore-encounter"]},"status":"finished","class":{"system":"http://terminology.hl7.org/CodeSystem/v3-ActCode","code":"OBSENC","display":"observation encounter"},"type":[{"coding":[{"system":"http://snomed.info/sct","code":"448851000124103"}]}],"subject":{"reference":"Patient/2dc3e469-a1c6-4419-aecc-72e75dc8507b"},"period":{"start":"2026-03-01T13:00:00+00:00","end":"2026-03-01T23:15:00+00:00"}},"request":{"method":"PUT","url":"Encounter/1ad9ee26-3c22-4cd4-8034-6aa4423f8c34"}},{"fullUrl":"https://madie.cms.gov/Encounter/89ee08b8-eed7-474d-a380-c56f42ef27cd","resource":{"resourceType":"Encounter","id":"89ee08b8-eed7-474d-a380-c56f42ef27cd","meta":{"profile":["http://hl7.org/fhir/us/qicore/StructureDefinition/qicore-encounter"]},"status":"finished","class":{"system":"http://terminology.hl7.org/CodeSystem/v3-ActCode","code":"IMP","display":"inpatient encounter"},"type":[{"coding":[{"system":"http://snomed.info/sct","code":"183452005"}]}],"subject":{"reference":"Patient/2dc3e469-a1c6-4419-aecc-72e75dc8507b"},"period":{"start":"2026-03-02T13:00:00+00:00","end":"2026-03-09T11:15:00+00:00"},"diagnosis":[{"condition":{"reference":"Condition/6b991846-84ef-46bb-a113-f1522e6d2ba5"}}]},"request":{"method":"PUT","url":"Encounter/89ee08b8-eed7-474d-a380-c56f42ef27cd"}},{"fullUrl":"https://madie.cms.gov/Encounter/713a6d63-198c-407a-89d5-2a2e0521d142","resource":{"resourceType":"Encounter","id":"713a6d63-198c-407a-89d5-2a2e0521d142","meta":{"profile":["http://hl7.org/fhir/us/qicore/StructureDefinition/qicore-encounter"]},"status":"finished","class":{"system":"http://terminology.hl7.org/CodeSystem/v3-ActCode","code":"EMER","display":"emergency"},"type":[{"coding":[{"system":"http://snomed.info/sct","code":"4525004"}]}],"subject":{"reference":"Patient/2dc3e469-a1c6-4419-aecc-72e75dc8507b"},"period":{"start":"2026-03-11T08:00:00.000+00:00","end":"2026-03-11T08:15:00.000+00:00"},"diagnosis":[{"condition":{"reference":"Condition/7b45965f-a592-49cf-be66-34098daa54f7"},"use":{"coding":[{"system":"http://terminology.hl7.org/CodeSystem/diagnosis-role","code":"billing","display":"Billing"}]},"rank":1}]},"request":{"method":"PUT","url":"Encounter/713a6d63-198c-407a-89d5-2a2e0521d142"}},{"fullUrl":"https://madie.cms.gov/Encounter/3fb91161-87e1-4577-b3ff-8a90319a7110","resource":{"resourceType":"Encounter","id":"3fb91161-87e1-4577-b3ff-8a90319a7110","meta":{"profile":["http://hl7.org/fhir/us/qicore/StructureDefinition/qicore-encounter"]},"status":"finished","class":{"system":"http://terminology.hl7.org/CodeSystem/v3-ActCode","code":"IMP","display":"inpatient encounter"},"type":[{"coding":[{"system":"http://snomed.info/sct","code":"183452005"}]}],"subject":{"reference":"Patient/2dc3e469-a1c6-4419-aecc-72e75dc8507b"},"period":{"start":"2026-03-11T09:00:00+00:00","end":"2026-04-01T08:15:00+00:00"},"diagnosis":[{"condition":{"reference":"Condition/22eddbbd-6c7f-4e1e-b54b-32e0c63d5fc0"},"use":{"coding":[{"system":"http://terminology.hl7.org/CodeSystem/diagnosis-role","code":"billing","display":"Billing"}]},"rank":1}],"hospitalization":{"dischargeDisposition":{"coding":[{"system":"http://snomed.info/sct","code":"428371000124100","display":"Discharge to healthcare facility for hospice care (procedure)"}]}}},"request":{"method":"PUT","url":"Encounter/3fb91161-87e1-4577-b3ff-8a90319a7110"}},{"fullUrl":"https://madie.cms.gov/Encounter/210df2e2-d0fa-4ff7-b13a-0a003317b6d9","resource":{"resourceType":"Encounter","id":"210df2e2-d0fa-4ff7-b13a-0a003317b6d9","meta":{"profile":["http://hl7.org/fhir/us/qicore/StructureDefinition/qicore-encounter"]},"status":"finished","class":{"system":"http://terminology.hl7.org/CodeSystem/v3-ActCode","code":"IMP","display":"inpatient encounter"},"type":[{"coding":[{"system":"http://snomed.info/sct","code":"183452005"}]}],"subject":{"reference":"Patient/2dc3e469-a1c6-4419-aecc-72e75dc8507b"},"period":{"start":"2026-04-02T08:00:00+00:00","end":"2026-04-02T08:15:00+00:00"},"diagnosis":[{"condition":{"reference":"Condition/7b45965f-a592-49cf-be66-34098daa54f7"},"use":{"coding":[{"system":"http://terminology.hl7.org/CodeSystem/diagnosis-role","code":"billing","display":"Billing"}]},"rank":1}]},"request":{"method":"PUT","url":"Encounter/210df2e2-d0fa-4ff7-b13a-0a003317b6d9"}},{"fullUrl":"https://madie.cms.gov/ServiceRequest/58cccffe-9574-4765-8d06-23951ae6af14","resource":{"resourceType":"ServiceRequest","id":"58cccffe-9574-4765-8d06-23951ae6af14","meta":{"profile":["http://hl7.org/fhir/us/qicore/StructureDefinition/qicore-servicerequest"]},"status":"active","intent":"order","code":{"coding":[{"system":"http://snomed.info/sct","code":"133918004"}]},"subject":{"reference":"Patient/2dc3e469-a1c6-4419-aecc-72e75dc8507b"},"authoredOn":"2026-03-02T13:00:00+00:00"},"request":{"method":"PUT","url":"ServiceRequest/58cccffe-9574-4765-8d06-23951ae6af14"}},{"fullUrl":"https://madie.cms.gov/Observation/99f6db93-190d-46b6-a109-6b77d53c2d3d","resource":{"resourceType":"Observation","id":"99f6db93-190d-46b6-a109-6b77d53c2d3d","meta":{"profile":["http://hl7.org/fhir/us/qicore/StructureDefinition/qicore-observation"]},"status":"final","category":[{"coding":[{"system":"http://terminology.hl7.org/CodeSystem/observation-category","code":"laboratory","display":"Laboratory"}]}],"code":{"coding":[{"system":"http://loinc.org","code":"34714-6"}]},"subject":{"reference":"Patient/2dc3e469-a1c6-4419-aecc-72e75dc8507b"},"effectivePeriod":{"start":"2026-03-01T05:00:00+00:00","end":"2026-03-01T11:15:00+00:00"},"issued":"2026-03-01T05:00:00.000+00:00","valueQuantity":{"value":2.5}},"request":{"method":"PUT","url":"Observation/99f6db93-190d-46b6-a109-6b77d53c2d3d"}},{"fullUrl":"https://madie.cms.gov/Observation/a38cce51-e6ef-4887-b73e-5ef47fe629f9","resource":{"resourceType":"Observation","id":"a38cce51-e6ef-4887-b73e-5ef47fe629f9","meta":{"profile":["http://hl7.org/fhir/us/qicore/StructureDefinition/qicore-observation"]},"status":"final","category":[{"coding":[{"system":"http://terminology.hl7.org/CodeSystem/observation-category","code":"laboratory","display":"Laboratory"}]}],"code":{"coding":[{"system":"http://loinc.org","code":"34714-6"}]},"subject":{"reference":"Patient/2dc3e469-a1c6-4419-aecc-72e75dc8507b"},"effectivePeriod":{"start":"2026-03-11T09:00:00+00:00","end":"2026-04-01T08:15:00+00:00"},"issued":"2026-03-11T09:00:00.000+00:00","valueQuantity":{"value":3.3}},"request":{"method":"PUT","url":"Observation/a38cce51-e6ef-4887-b73e-5ef47fe629f9"}},{"fullUrl":"https://madie.cms.gov/Observation/392e3e5f-e2e5-457c-8c11-b03022ed551c","resource":{"resourceType":"Observation","id":"392e3e5f-e2e5-457c-8c11-b03022ed551c","meta":{"profile":["http://hl7.org/fhir/us/qicore/StructureDefinition/qicore-observation"]},"status":"final","category":[{"coding":[{"system":"http://terminology.hl7.org/CodeSystem/observation-category","code":"laboratory","display":"Laboratory"}]}],"code":{"coding":[{"system":"http://loinc.org","code":"34714-6"}]},"subject":{"reference":"Patient/2dc3e469-a1c6-4419-aecc-72e75dc8507b"},"effectivePeriod":{"start":"2026-04-02T08:00:00+00:00","end":"2026-04-02T08:15:00+00:00"},"issued":"2026-04-02T08:00:00.000+00:00","valueQuantity":{"value":3.49}},"request":{"method":"PUT","url":"Observation/392e3e5f-e2e5-457c-8c11-b03022ed551c"}},{"fullUrl":"https://madie.cms.gov/MedicationAdministration/b94f0b5d-159c-41f8-95bf-25e5bf25bd1a","resource":{"resourceType":"MedicationAdministration","id":"b94f0b5d-159c-41f8-95bf-25e5bf25bd1a","meta":{"profile":["http://hl7.org/fhir/us/qicore/StructureDefinition/qicore-medicationadministration"]},"extension":[{"url":"http://hl7.org/fhir/us/qicore/StructureDefinition/qicore-recorded","valueDateTime":"2026-03-01T05:00:00+00:00"}],"status":"completed","medicationCodeableConcept":{"coding":[{"system":"http://www.nlm.nih.gov/research/umls/rxnorm","code":"1804799"}]},"subject":{"reference":"Patient/2dc3e469-a1c6-4419-aecc-72e75dc8507b"},"effectivePeriod":{"start":"2026-03-01T05:00:00+00:00","end":"2026-03-01T11:15:00+00:00"}},"request":{"method":"PUT","url":"MedicationAdministration/b94f0b5d-159c-41f8-95bf-25e5bf25bd1a"}},{"fullUrl":"https://madie.cms.gov/MedicationAdministration/61b84ebe-15c7-48f8-badf-5ab72f4dadc8","resource":{"resourceType":"MedicationAdministration","id":"61b84ebe-15c7-48f8-badf-5ab72f4dadc8","meta":{"profile":["http://hl7.org/fhir/us/qicore/StructureDefinition/qicore-medicationadministration"]},"extension":[{"url":"http://hl7.org/fhir/us/qicore/StructureDefinition/qicore-recorded","valueDateTime":"2026-03-02T13:00:00+00:00"}],"status":"completed","medicationCodeableConcept":{"coding":[{"system":"http://www.nlm.nih.gov/research/umls/rxnorm","code":"1037045"}]},"subject":{"reference":"Patient/2dc3e469-a1c6-4419-aecc-72e75dc8507b"},"effectivePeriod":{"start":"2026-03-02T13:00:00+00:00","end":"2026-03-02T23:15:00+00:00"}},"request":{"method":"PUT","url":"MedicationAdministration/61b84ebe-15c7-48f8-badf-5ab72f4dadc8"}},{"fullUrl":"https://madie.cms.gov/MedicationAdministration/153e2e88-069d-4de5-a950-9492985192ef","resource":{"resourceType":"MedicationAdministration","id":"153e2e88-069d-4de5-a950-9492985192ef","meta":{"profile":["http://hl7.org/fhir/us/qicore/StructureDefinition/qicore-medicationadministration"]},"extension":[{"url":"http://hl7.org/fhir/us/qicore/StructureDefinition/qicore-recorded","valueDateTime":"2026-03-11T09:00:00+00:00"}],"status":"completed","medicationCodeableConcept":{"coding":[{"system":"http://www.nlm.nih.gov/research/umls/rxnorm","code":"1037045"}]},"subject":{"reference":"Patient/2dc3e469-a1c6-4419-aecc-72e75dc8507b"},"effectivePeriod":{"start":"2026-03-11T09:00:00+00:00","end":"2026-04-01T08:15:00+00:00"}},"request":{"method":"PUT","url":"MedicationAdministration/153e2e88-069d-4de5-a950-9492985192ef"}},{"fullUrl":"https://madie.cms.gov/MedicationAdministration/5e936e95-e320-412b-957f-cd22b754eb03","resource":{"resourceType":"MedicationAdministration","id":"5e936e95-e320-412b-957f-cd22b754eb03","meta":{"profile":["http://hl7.org/fhir/us/qicore/StructureDefinition/qicore-medicationadministration"]},"extension":[{"url":"http://hl7.org/fhir/us/qicore/StructureDefinition/qicore-recorded","valueDateTime":"2026-04-02T08:00:00+00:00"}],"status":"not-done","statusReason":[{"coding":[{"system":"http://snomed.info/sct","code":"105480006","display":"Refusal of treatment by patient (situation)"}]}],"medicationCodeableConcept":{"coding":[{"system":"http://www.nlm.nih.gov/research/umls/rxnorm","code":"1116635"}]},"subject":{"reference":"Patient/2dc3e469-a1c6-4419-aecc-72e75dc8507b"},"effectivePeriod":{"start":"2026-04-02T08:00:00+00:00","end":"2026-04-02T08:15:00+00:00"}},"request":{"method":"PUT","url":"MedicationAdministration/5e936e95-e320-412b-957f-cd22b754eb03"}},{"fullUrl":"https://madie.cms.gov/MedicationAdministration/450cbdb0-539f-47d0-a200-9cc1d57f406c","resource":{"resourceType":"MedicationAdministration","id":"450cbdb0-539f-47d0-a200-9cc1d57f406c","meta":{"profile":["http://hl7.org/fhir/us/qicore/StructureDefinition/qicore-medicationadministration"]},"extension":[{"url":"http://hl7.org/fhir/us/qicore/StructureDefinition/qicore-recorded","valueDateTime":"2026-04-02T08:00:00+00:00"}],"status":"completed","medicationCodeableConcept":{"coding":[{"system":"http://www.nlm.nih.gov/research/umls/rxnorm","code":"1037045"}]},"subject":{"reference":"Patient/2dc3e469-a1c6-4419-aecc-72e75dc8507b"},"effectivePeriod":{"start":"2026-04-02T08:00:00+00:00","end":"2026-04-02T08:15:00+00:00"}},"request":{"method":"PUT","url":"MedicationAdministration/450cbdb0-539f-47d0-a200-9cc1d57f406c"}},{"fullUrl":"https://madie.cms.gov/MedicationRequest/eb94dc3a-b36f-4249-800d-ed0f9a999b4b","resource":{"resourceType":"MedicationRequest","id":"eb94dc3a-b36f-4249-800d-ed0f9a999b4b","meta":{"profile":["http://hl7.org/fhir/us/qicore/StructureDefinition/qicore-medicationrequest"]},"status":"completed","intent":"order","medicationCodeableConcept":{"coding":[{"system":"http://www.nlm.nih.gov/research/umls/rxnorm","code":"1037045"}]},"subject":{"reference":"Patient/2dc3e469-a1c6-4419-aecc-72e75dc8507b"},"authoredOn":"2026-03-02T08:00:00+00:00","requester":{"reference":"Practitioner/example"},"dosageInstruction":[{"timing":{"repeat":{"boundsPeriod":{"start":"2026-03-02T13:00:00+00:00","end":"2026-03-02T23:15:00+00:00"}}}}]},"request":{"method":"PUT","url":"MedicationRequest/eb94dc3a-b36f-4249-800d-ed0f9a999b4b"}},{"fullUrl":"https://madie.cms.gov/MedicationRequest/f77efa73-cb53-4190-aeae-115d1e71e6f8","resource":{"resourceType":"MedicationRequest","id":"f77efa73-cb53-4190-aeae-115d1e71e6f8","meta":{"profile":["http://hl7.org/fhir/us/qicore/StructureDefinition/qicore-medicationrequest"]},"status":"completed","intent":"order","medicationCodeableConcept":{"coding":[{"system":"http://www.nlm.nih.gov/research/umls/rxnorm","code":"1037045"}]},"subject":{"reference":"Patient/2dc3e469-a1c6-4419-aecc-72e75dc8507b"},"authoredOn":"2026-03-11T09:00:00+00:00","requester":{"reference":"Practitioner/example"},"dosageInstruction":[{"timing":{"repeat":{"boundsPeriod":{"start":"2026-03-11T09:00:00+00:00","end":"2026-04-01T08:15:00+00:00"}}}}]},"request":{"method":"PUT","url":"MedicationRequest/f77efa73-cb53-4190-aeae-115d1e71e6f8"}},{"fullUrl":"https://madie.cms.gov/MedicationRequest/e207a0e6-964f-476f-b78e-3b4f99c3ddf1","resource":{"resourceType":"MedicationRequest","id":"e207a0e6-964f-476f-b78e-3b4f99c3ddf1","meta":{"profile":["http://hl7.org/fhir/us/qicore/StructureDefinition/qicore-medicationrequest"]},"status":"active","intent":"order","medicationCodeableConcept":{"coding":[{"system":"http://www.nlm.nih.gov/research/umls/rxnorm","code":"1037045"}]},"subject":{"reference":"Patient/2dc3e469-a1c6-4419-aecc-72e75dc8507b"},"authoredOn":"2026-04-02T08:00:00+00:00","requester":{"reference":"Practitioner/example"},"dosageInstruction":[{"timing":{"repeat":{"boundsPeriod":{"start":"2026-04-02T08:00:00+00:00","end":"2026-04-02T08:15:00+00:00"}}}}]},"request":{"method":"PUT","url":"MedicationRequest/e207a0e6-964f-476f-b78e-3b4f99c3ddf1"}},{"fullUrl":"https://madie.cms.gov/Condition/03f708e5-74b3-4f3d-95a7-c666fda6ad50","resource":{"resourceType":"Condition","id":"03f708e5-74b3-4f3d-95a7-c666fda6ad50","meta":{"profile":["http://hl7.org/fhir/us/qicore/StructureDefinition/qicore-condition"]},"clinicalStatus":{"coding":[{"system":"http://terminology.hl7.org/CodeSystem/condition-clinical","code":"active"}]},"verificationStatus":{"coding":[{"system":"http://terminology.hl7.org/CodeSystem/condition-ver-status","code":"confirmed"}]},"category":[{"coding":[{"system":"http://terminology.hl7.org/CodeSystem/condition-category","code":"encounter-diagnosis","display":"Encounter Diagnosis"}]}],"code":{"coding":[{"system":"http://snomed.info/sct","version":"2020-09","code":"111297002","display":"Nonparalytic stroke (disorder)","userSelected":true}]},"subject":{"reference":"Patient/2dc3e469-a1c6-4419-aecc-72e75dc8507b"},"recordedDate":"2026-08-16T08:00:00.000+00:00"},"request":{"method":"PUT","url":"Condition/03f708e5-74b3-4f3d-95a7-c666fda6ad50"}},{"fullUrl":"https://madie.cms.gov/Condition/6b991846-84ef-46bb-a113-f1522e6d2ba5","resource":{"resourceType":"Condition","id":"6b991846-84ef-46bb-a113-f1522e6d2ba5","meta":{"profile":["http://hl7.org/fhir/us/qicore/StructureDefinition/qicore-condition"]},"clinicalStatus":{"coding":[{"system":"http://terminology.hl7.org/CodeSystem/condition-clinical","code":"active"}]},"verificationStatus":{"coding":[{"system":"http://terminology.hl7.org/CodeSystem/condition-ver-status","code":"confirmed"}]},"category":[{"coding":[{"system":"http://terminology.hl7.org/CodeSystem/condition-category","code":"encounter-diagnosis","display":"Encounter Diagnosis"}]}],"code":{"coding":[{"system":"http://snomed.info/sct","version":"2020-09","code":"111297002","display":"Nonparalytic stroke (disorder)","userSelected":true}]},"subject":{"reference":"Patient/2dc3e469-a1c6-4419-aecc-72e75dc8507b"},"recordedDate":"2026-08-16T08:00:00.000+00:00"},"request":{"method":"PUT","url":"Condition/6b991846-84ef-46bb-a113-f1522e6d2ba5"}},{"fullUrl":"https://madie.cms.gov/Condition/7b45965f-a592-49cf-be66-34098daa54f7","resource":{"resourceType":"Condition","id":"7b45965f-a592-49cf-be66-34098daa54f7","meta":{"profile":["http://hl7.org/fhir/us/qicore/StructureDefinition/qicore-condition"]},"clinicalStatus":{"coding":[{"system":"http://terminology.hl7.org/CodeSystem/condition-clinical","code":"active"}]},"verificationStatus":{"coding":[{"system":"http://terminology.hl7.org/CodeSystem/condition-ver-status","code":"confirmed"}]},"category":[{"coding":[{"system":"http://terminology.hl7.org/CodeSystem/condition-category","code":"encounter-diagnosis","display":"Encounter Diagnosis"}]}],"code":{"coding":[{"system":"http://snomed.info/sct","version":"2020-09","code":"111297002","display":"Nonparalytic stroke (disorder)","userSelected":true}]},"subject":{"reference":"Patient/2dc3e469-a1c6-4419-aecc-72e75dc8507b"},"recordedDate":"2026-08-16T08:00:00.000+00:00"},"request":{"method":"PUT","url":"Condition/7b45965f-a592-49cf-be66-34098daa54f7"}},{"fullUrl":"https://madie.cms.gov/Condition/22eddbbd-6c7f-4e1e-b54b-32e0c63d5fc0","resource":{"resourceType":"Condition","id":"22eddbbd-6c7f-4e1e-b54b-32e0c63d5fc0","meta":{"profile":["http://hl7.org/fhir/us/qicore/StructureDefinition/qicore-condition"]},"clinicalStatus":{"coding":[{"system":"http://terminology.hl7.org/CodeSystem/condition-clinical","code":"active"}]},"verificationStatus":{"coding":[{"system":"http://terminology.hl7.org/CodeSystem/condition-ver-status","code":"confirmed"}]},"category":[{"coding":[{"system":"http://terminology.hl7.org/CodeSystem/condition-category","code":"encounter-diagnosis","display":"Encounter Diagnosis"}]}],"code":{"coding":[{"system":"http://snomed.info/sct","version":"2020-09","code":"111297002","display":"Nonparalytic stroke (disorder)","userSelected":true}]},"subject":{"reference":"Patient/2dc3e469-a1c6-4419-aecc-72e75dc8507b"},"recordedDate":"2026-08-16T08:00:00.000+00:00"},"request":{"method":"PUT","url":"Condition/22eddbbd-6c7f-4e1e-b54b-32e0c63d5fc0"}},{"fullUrl":"https://madie.cms.gov/Coverage/1dd4770c-9f0b-4d93-ab1f-ce1b5630d9ff","resource":{"resourceType":"Coverage","id":"1dd4770c-9f0b-4d93-ab1f-ce1b5630d9ff","meta":{"profile":["http://hl7.org/fhir/us/qicore/StructureDefinition/qicore-coverage"]},"status":"active","beneficiary":{"reference":"Patient/2dc3e469-a1c6-4419-aecc-72e75dc8507b"},"payor":[{"reference":"Organization/aeb2c6be-6577-4bba-a6b6-6eab95111f1b"}]},"request":{"method":"PUT","url":"Coverage/1dd4770c-9f0b-4d93-ab1f-ce1b5630d9ff"}},{"fullUrl":"https://madie.cms.gov/Organization/31d09354-f0c3-4c47-a9f7-174f024b7db7","resource":{"resourceType":"Organization","id":"aeb2c6be-6577-4bba-a6b6-6eab95111f1b","meta":{"profile":["http://hl7.org/fhir/us/qicore/StructureDefinition/qicore-organization"]},"identifier":[{"use":"temp","system":"urn:oid:2.16.840.1.113883.4.4","value":"21-3259825"}],"active":true,"type":[{"coding":[{"system":"http://terminology.hl7.org/CodeSystem/organization-type","code":"pay","display":"Payer"}]}],"name":"Blue Cross Blue Shield of Texas","telecom":[{"system":"phone","value":"(+1) 972-766-6900"}],"address":[{"use":"billing","type":"postal","line":["P.O. Box 660044"],"city":"Dallas","state":"TX","postalCode":"75266-0044","country":"USA"}]},"request":{"method":"PUT","url":"Organization/aeb2c6be-6577-4bba-a6b6-6eab95111f1b"}},{"fullUrl":"https://madie.cms.gov/Practitioner/3b3eb3cb-9022-4739-9f3b-239cd40c26b0","resource":{"resourceType":"Practitioner","id":"3b3eb3cb-9022-4739-9f3b-239cd40c26b0","identifier":[{"system":"http://hl7.org/fhir/sid/us-npi","value":"123456"}],"name":[{"family":"Evil","prefix":["Dr"]}]},"request":{"method":"PUT","url":"Practitioner/3b3eb3cb-9022-4739-9f3b-239cd40c26b0"}},{"fullUrl":"https://madie.cms.gov/MeasureReport/c83bcf29-da7c-4735-8a19-aacfe83ac2d5","resource":{"resourceType":"MeasureReport","id":"c83bcf29-da7c-4735-8a19-aacfe83ac2d5","meta":{"profile":["http://hl7.org/fhir/us/cqfmeasures/StructureDefinition/test-case-cqfm"]},"contained":[{"resourceType":"Parameters","id":"f7864cc3-1bd3-4387-b1a0-e3af8d7b4d11-parameters","parameter":[{"name":"subject","valueString":"2dc3e469-a1c6-4419-aecc-72e75dc8507b"}]}],"extension":[{"url":"http://hl7.org/fhir/us/cqfmeasures/StructureDefinition/cqfm-inputParameters","valueReference":{"reference":"#f7864cc3-1bd3-4387-b1a0-e3af8d7b4d11-parameters"}},{"url":"http://hl7.org/fhir/us/cqfmeasures/StructureDefinition/cqfm-testCaseDescription","valueMarkdown":"Multiple encounter testing\n"}],"modifierExtension":[{"url":"http://hl7.org/fhir/us/cqfmeasures/StructureDefinition/cqfm-isTestCase","valueBoolean":true}],"status":"complete","type":"individual","measure":"https://madie.cms.gov/Measure/CMS72FHIRSTKAntithromboticDay2","period":{"start":"2026-01-01","end":"2026-12-31"},"group":[{"population":[{"code":{"coding":[{"system":"http://terminology.hl7.org/CodeSystem/measure-population","code":"initial-population","display":"Initial Population"}]},"count":3},{"code":{"coding":[{"system":"http://terminology.hl7.org/CodeSystem/measure-population","code":"denominator","display":"Denominator"}]},"count":3},{"code":{"coding":[{"system":"http://terminology.hl7.org/CodeSystem/measure-population","code":"denominator-exclusion","display":"Denominator Exclusion"}]},"count":2},{"code":{"coding":[{"system":"http://terminology.hl7.org/CodeSystem/measure-population","code":"numerator","display":"Numerator"}]},"count":1},{"code":{"coding":[{"system":"http://terminology.hl7.org/CodeSystem/measure-population","code":"denominator-exception","display":"Denominator Exception"}]},"count":0}]}]},"request":{"method":"PUT","url":"MeasureReport/c83bcf29-da7c-4735-8a19-aacfe83ac2d5"}}]}