{"resourceType":"Bundle","id":"tests-b86e54d1-f8ca-44b6-99a5-d455c5649104-bundle","type":"transaction","entry":[{"fullUrl":"https://madie.cms.gov/Patient/b86e54d1-f8ca-44b6-99a5-d455c5649104","resource":{"resourceType":"Patient","id":"b86e54d1-f8ca-44b6-99a5-d455c5649104","meta":{"profile":["http://hl7.org/fhir/us/qicore/StructureDefinition/qicore-patient"]},"text":{"status":"generated","div":"<div xmlns=\"http://www.w3.org/1999/xhtml\"><div class=\"hapiHeaderText\">PriorTPANegativeTest <b>DENEXFAIL </b></div><table class=\"hapiPropertyTable\"><tbody><tr><td>Identifier</td><td>565104711a5f65734f311e1bcaee8e27aafbba4f5261e5e5779c11e36e48777e</td></tr><tr><td>Date of birth</td><td><span>26 September 1975</span></td></tr></tbody></table></div>"},"extension":[{"url":"http://hl7.org/fhir/us/core/StructureDefinition/us-core-race","extension":[{"url":"ombCategory","valueCoding":{"system":"urn:oid:2.16.840.1.113883.6.238","code":"2054-5","display":"Black or African American","userSelected":true}},{"url":"text","valueString":"Black or African American"}]},{"url":"http://hl7.org/fhir/us/core/StructureDefinition/us-core-ethnicity","extension":[{"url":"ombCategory","valueCoding":{"system":"urn:oid:2.16.840.1.113883.6.238","code":"2186-5","display":"Not Hispanic or Latino","userSelected":true}},{"url":"text","valueString":"Not Hispanic or Latino"}]}],"identifier":[{"type":{"coding":[{"system":"http://terminology.hl7.org/CodeSystem/v2-0203","code":"MR"}]},"system":"https://bonnie-fhir.healthit.gov/","value":"60f82c2f98086b570510e29a"}],"active":true,"name":[{"use":"usual","family":"DENEXFail","given":["PriorTPANegativeTest"]}],"gender":"female","birthDate":"1976-09-26"},"request":{"method":"PUT","url":"Patient/b86e54d1-f8ca-44b6-99a5-d455c5649104"}},{"fullUrl":"https://madie.cms.gov/Encounter/55209a28-132c-4a4f-a10c-ecec8c529cb2","resource":{"resourceType":"Encounter","id":"55209a28-132c-4a4f-a10c-ecec8c529cb2","meta":{"profile":["http://hl7.org/fhir/us/qicore/StructureDefinition/qicore-encounter"]},"status":"finished","class":{"system":"http://terminology.hl7.org/CodeSystem/v3-ActCode","code":"IMP","display":"inpatient encounter","userSelected":true},"type":[{"coding":[{"system":"http://snomed.info/sct","code":"32485007"}]}],"subject":{"reference":"Patient/b86e54d1-f8ca-44b6-99a5-d455c5649104"},"period":{"start":"2026-10-10T06:15:00+00:00","end":"2026-10-24T11:30:00+00:00"},"length":{"value":14,"unit":"days"},"diagnosis":[{"condition":{"reference":"Condition/596ee838-a20c-43d0-bbe8-b1e1df7b6903"},"use":{"coding":[{"system":"http://terminology.hl7.org/CodeSystem/diagnosis-role","code":"billing","display":"Billing"}]},"rank":1}]},"request":{"method":"PUT","url":"Encounter/55209a28-132c-4a4f-a10c-ecec8c529cb2"}},{"fullUrl":"https://madie.cms.gov/Condition/596ee838-a20c-43d0-bbe8-b1e1df7b6903","resource":{"resourceType":"Condition","id":"596ee838-a20c-43d0-bbe8-b1e1df7b6903","meta":{"profile":["http://hl7.org/fhir/us/qicore/StructureDefinition/qicore-condition"]},"clinicalStatus":{"coding":[{"system":"http://terminology.hl7.org/CodeSystem/condition-clinical","code":"active"}]},"verificationStatus":{"coding":[{"system":"http://terminology.hl7.org/CodeSystem/condition-ver-status","code":"confirmed"}]},"category":[{"coding":[{"system":"http://terminology.hl7.org/CodeSystem/condition-category","code":"encounter-diagnosis","display":"Encounter Diagnosis"}]}],"code":{"coding":[{"system":"http://snomed.info/sct","version":"2020-09","code":"111297002","display":"Nonparalytic stroke (disorder)","userSelected":true}]},"subject":{"reference":"Patient/b86e54d1-f8ca-44b6-99a5-d455c5649104"},"recordedDate":"2026-08-12T08:00:00.000+00:00"},"request":{"method":"PUT","url":"Condition/596ee838-a20c-43d0-bbe8-b1e1df7b6903"}},{"fullUrl":"https://madie.cms.gov/Coverage/5512f481-6e29-481e-bc6d-887377d46bfc","resource":{"resourceType":"Coverage","id":"5512f481-6e29-481e-bc6d-887377d46bfc","meta":{"profile":["http://hl7.org/fhir/us/qicore/StructureDefinition/qicore-coverage"]},"status":"active","beneficiary":{"reference":"Patient/b86e54d1-f8ca-44b6-99a5-d455c5649104"},"payor":[{"reference":"Organization/880a275e-1cf2-4fb9-869b-f1d2173fdc2b"}]},"request":{"method":"PUT","url":"Coverage/5512f481-6e29-481e-bc6d-887377d46bfc"}},{"fullUrl":"https://madie.cms.gov/Organization/5cc9d339-85d5-4eb3-b0f2-534db67f189d","resource":{"resourceType":"Organization","id":"880a275e-1cf2-4fb9-869b-f1d2173fdc2b","meta":{"profile":["http://hl7.org/fhir/us/qicore/StructureDefinition/qicore-organization"]},"identifier":[{"use":"temp","system":"urn:oid:2.16.840.1.113883.4.4","value":"21-3259825"}],"active":true,"type":[{"coding":[{"system":"http://terminology.hl7.org/CodeSystem/organization-type","code":"pay","display":"Payer"}]}],"name":"Blue Cross Blue Shield of Texas","telecom":[{"system":"phone","value":"(+1) 972-766-6900"}],"address":[{"use":"billing","type":"postal","line":["P.O. Box 660044"],"city":"Dallas","state":"TX","postalCode":"75266-0044","country":"USA"}]},"request":{"method":"PUT","url":"Organization/880a275e-1cf2-4fb9-869b-f1d2173fdc2b"}},{"fullUrl":"https://madie.cms.gov/MeasureReport/50e48df0-c1ef-4936-8e31-2478303f672c","resource":{"resourceType":"MeasureReport","id":"50e48df0-c1ef-4936-8e31-2478303f672c","meta":{"profile":["http://hl7.org/fhir/us/cqfmeasures/StructureDefinition/test-case-cqfm"]},"contained":[{"resourceType":"Parameters","id":"bd1fbb57-bf25-44da-ad4d-d64c671eb209-parameters","parameter":[{"name":"subject","valueString":"b86e54d1-f8ca-44b6-99a5-d455c5649104"}]}],"extension":[{"url":"http://hl7.org/fhir/us/cqfmeasures/StructureDefinition/cqfm-inputParameters","valueReference":{"reference":"#bd1fbb57-bf25-44da-ad4d-d64c671eb209-parameters"}},{"url":"http://hl7.org/fhir/us/cqfmeasures/StructureDefinition/cqfm-testCaseDescription","valueMarkdown":"Patient receives thrombolytic therapy prior to arrival as an encounter diagnosis. Negative testing using different encounter diagnosis.\n"}],"modifierExtension":[{"url":"http://hl7.org/fhir/us/cqfmeasures/StructureDefinition/cqfm-isTestCase","valueBoolean":true}],"status":"complete","type":"individual","measure":"https://madie.cms.gov/Measure/CMS72FHIRSTKAntithromboticDay2","period":{"start":"2026-01-01","end":"2026-12-31"},"group":[{"population":[{"code":{"coding":[{"system":"http://terminology.hl7.org/CodeSystem/measure-population","code":"initial-population","display":"Initial Population"}]},"count":1},{"code":{"coding":[{"system":"http://terminology.hl7.org/CodeSystem/measure-population","code":"denominator","display":"Denominator"}]},"count":1},{"code":{"coding":[{"system":"http://terminology.hl7.org/CodeSystem/measure-population","code":"denominator-exclusion","display":"Denominator Exclusion"}]},"count":0},{"code":{"coding":[{"system":"http://terminology.hl7.org/CodeSystem/measure-population","code":"numerator","display":"Numerator"}]},"count":0},{"code":{"coding":[{"system":"http://terminology.hl7.org/CodeSystem/measure-population","code":"denominator-exception","display":"Denominator Exception"}]},"count":0}]}]},"request":{"method":"PUT","url":"MeasureReport/50e48df0-c1ef-4936-8e31-2478303f672c"}}]}