{"resourceType":"Bundle","id":"tests-dd40e582-8c3f-44a2-b781-84acead6120f-bundle","type":"transaction","entry":[{"fullUrl":"https://madie.cms.gov/Patient/dd40e582-8c3f-44a2-b781-84acead6120f","resource":{"resourceType":"Patient","id":"dd40e582-8c3f-44a2-b781-84acead6120f","meta":{"profile":["http://hl7.org/fhir/us/qicore/StructureDefinition/qicore-patient"]},"text":{"status":"generated","div":"<div xmlns=\"http://www.w3.org/1999/xhtml\"><div class=\"hapiHeaderText\">INRDayOfObs_ED&gt;1hrObs&gt;1hrBFEncDayOf <b>DENEXCEPASS </b></div><table class=\"hapiPropertyTable\"><tbody><tr><td>Identifier</td><td>b0367ad2370c96a56a23cd881813021fde2c7ef482bca50c0100c8faeb808f24</td></tr><tr><td>Date of birth</td><td><span>26 September 1975</span></td></tr></tbody></table></div>"},"extension":[{"url":"http://hl7.org/fhir/us/core/StructureDefinition/us-core-race","extension":[{"url":"ombCategory","valueCoding":{"system":"urn:oid:2.16.840.1.113883.6.238","code":"2054-5","display":"Black or African American","userSelected":true}},{"url":"text","valueString":"Black or African American"}]},{"url":"http://hl7.org/fhir/us/core/StructureDefinition/us-core-ethnicity","extension":[{"url":"ombCategory","valueCoding":{"system":"urn:oid:2.16.840.1.113883.6.238","code":"2186-5","display":"Not Hispanic or Latino","userSelected":true}},{"url":"text","valueString":"Not Hispanic or Latino"}]}],"identifier":[{"type":{"coding":[{"system":"http://terminology.hl7.org/CodeSystem/v2-0203","code":"MR"}]},"system":"https://bonnie-fhir.healthit.gov/","value":"60f82c2f98086b570510e2ab"}],"active":true,"name":[{"use":"usual","family":"DENEXCEPass","given":["INRDayOfObs_ED>1hrObs>1hrBFEncDayOf"]}],"gender":"female","birthDate":"1976-09-26"},"request":{"method":"PUT","url":"Patient/dd40e582-8c3f-44a2-b781-84acead6120f"}},{"fullUrl":"https://madie.cms.gov/Encounter/df878255-fde5-411e-9a06-70112fa97ed6","resource":{"resourceType":"Encounter","id":"df878255-fde5-411e-9a06-70112fa97ed6","meta":{"profile":["http://hl7.org/fhir/us/qicore/StructureDefinition/qicore-encounter"]},"status":"finished","class":{"system":"http://terminology.hl7.org/CodeSystem/v3-ActCode","code":"EMER","display":"emergency","userSelected":true},"type":[{"coding":[{"system":"http://snomed.info/sct","code":"4525004"}]}],"subject":{"reference":"Patient/dd40e582-8c3f-44a2-b781-84acead6120f"},"period":{"start":"2026-10-10T06:15:00+00:00","end":"2026-10-10T06:30:00+00:00"},"length":{"value":0,"unit":"days"}},"request":{"method":"PUT","url":"Encounter/df878255-fde5-411e-9a06-70112fa97ed6"}},{"fullUrl":"https://madie.cms.gov/Encounter/52ba3f0d-fe73-420c-8cdd-9824fffa1cd5","resource":{"resourceType":"Encounter","id":"52ba3f0d-fe73-420c-8cdd-9824fffa1cd5","meta":{"profile":["http://hl7.org/fhir/us/qicore/StructureDefinition/qicore-encounter"]},"status":"finished","class":{"system":"http://terminology.hl7.org/CodeSystem/v3-ActCode","code":"OBSENC","display":"observation encounter","userSelected":true},"type":[{"coding":[{"system":"http://snomed.info/sct","code":"448851000124103"}]}],"subject":{"reference":"Patient/dd40e582-8c3f-44a2-b781-84acead6120f"},"period":{"start":"2026-10-10T07:31:00+00:00","end":"2026-10-10T07:35:00+00:00"},"length":{"value":0,"unit":"days"}},"request":{"method":"PUT","url":"Encounter/52ba3f0d-fe73-420c-8cdd-9824fffa1cd5"}},{"fullUrl":"https://madie.cms.gov/Encounter/39c2f01d-7465-4ba8-ba81-c2b396c3606a","resource":{"resourceType":"Encounter","id":"39c2f01d-7465-4ba8-ba81-c2b396c3606a","meta":{"profile":["http://hl7.org/fhir/us/qicore/StructureDefinition/qicore-encounter"]},"status":"finished","class":{"system":"http://terminology.hl7.org/CodeSystem/v3-ActCode","code":"IMP","display":"inpatient encounter","userSelected":true},"type":[{"coding":[{"system":"http://snomed.info/sct","code":"32485007"}]}],"subject":{"reference":"Patient/dd40e582-8c3f-44a2-b781-84acead6120f"},"period":{"start":"2026-10-10T08:36:00+00:00","end":"2026-10-15T11:30:00+00:00"},"length":{"value":5,"unit":"days"},"diagnosis":[{"condition":{"reference":"Condition/9025ed2c-a06c-4a26-8864-a6ce00c6a018"},"use":{"coding":[{"system":"http://terminology.hl7.org/CodeSystem/diagnosis-role","code":"billing","display":"Billing"}]},"rank":1}]},"request":{"method":"PUT","url":"Encounter/39c2f01d-7465-4ba8-ba81-c2b396c3606a"}},{"fullUrl":"https://madie.cms.gov/Observation/bbf25ab1-076c-47d2-9b96-0239c67d4670","resource":{"resourceType":"Observation","id":"bbf25ab1-076c-47d2-9b96-0239c67d4670","meta":{"profile":["http://hl7.org/fhir/us/qicore/StructureDefinition/qicore-observation"]},"status":"final","category":[{"coding":[{"system":"http://terminology.hl7.org/CodeSystem/observation-category","code":"laboratory","display":"Laboratory"}]}],"code":{"coding":[{"system":"http://loinc.org","code":"34714-6"}]},"subject":{"reference":"Patient/dd40e582-8c3f-44a2-b781-84acead6120f"},"effectivePeriod":{"start":"2026-10-10T07:31:00+00:00"},"issued":"2026-10-10T06:14:00.000+00:00","valueQuantity":{"value":3.6}},"request":{"method":"PUT","url":"Observation/bbf25ab1-076c-47d2-9b96-0239c67d4670"}},{"fullUrl":"https://madie.cms.gov/Coverage/8f4ac0cf-7a22-4592-8d10-9d00287edf6e","resource":{"resourceType":"Coverage","id":"8f4ac0cf-7a22-4592-8d10-9d00287edf6e","status":"active","beneficiary":{"reference":"Patient/dd40e582-8c3f-44a2-b781-84acead6120f"},"period":{"start":"1976-09-26T08:00:00+00:00"},"payor":[{"reference":"Organization/f7da4368-fb6d-4d73-a75b-f78024cbb18d"}]},"request":{"method":"PUT","url":"Coverage/8f4ac0cf-7a22-4592-8d10-9d00287edf6e"}},{"fullUrl":"https://madie.cms.gov/Condition/9025ed2c-a06c-4a26-8864-a6ce00c6a018","resource":{"resourceType":"Condition","id":"9025ed2c-a06c-4a26-8864-a6ce00c6a018","meta":{"profile":["http://hl7.org/fhir/us/qicore/StructureDefinition/qicore-condition"]},"clinicalStatus":{"coding":[{"system":"http://terminology.hl7.org/CodeSystem/condition-clinical","code":"active"}]},"verificationStatus":{"coding":[{"system":"http://terminology.hl7.org/CodeSystem/condition-ver-status","code":"confirmed"}]},"category":[{"coding":[{"system":"http://terminology.hl7.org/CodeSystem/condition-category","code":"encounter-diagnosis","display":"Encounter Diagnosis"}]}],"code":{"coding":[{"system":"http://snomed.info/sct","version":"2020-09","code":"111297002","display":"Nonparalytic stroke (disorder)","userSelected":true}]},"subject":{"reference":"Patient/dd40e582-8c3f-44a2-b781-84acead6120f"},"recordedDate":"2026-08-06T08:00:00.000+00:00"},"request":{"method":"PUT","url":"Condition/9025ed2c-a06c-4a26-8864-a6ce00c6a018"}},{"fullUrl":"https://madie.cms.gov/Organization/1f70a1e8-8cfb-4e2e-ac4f-a3259b3546fa","resource":{"resourceType":"Organization","id":"f7da4368-fb6d-4d73-a75b-f78024cbb18d","meta":{"profile":["http://hl7.org/fhir/us/qicore/StructureDefinition/qicore-organization"]},"identifier":[{"use":"temp","system":"urn:oid:2.16.840.1.113883.4.4","value":"21-3259825"}],"active":true,"type":[{"coding":[{"system":"http://terminology.hl7.org/CodeSystem/organization-type","code":"pay","display":"Payer"}]}],"name":"Blue Cross Blue Shield of Texas","telecom":[{"system":"phone","value":"(+1) 972-766-6900"}],"address":[{"use":"billing","type":"postal","line":["P.O. Box 660044"],"city":"Dallas","state":"TX","postalCode":"75266-0044","country":"USA"}]},"request":{"method":"PUT","url":"Organization/f7da4368-fb6d-4d73-a75b-f78024cbb18d"}},{"fullUrl":"https://madie.cms.gov/MeasureReport/24e4cfc4-7973-42e9-8e8f-46bc38a746ca","resource":{"resourceType":"MeasureReport","id":"24e4cfc4-7973-42e9-8e8f-46bc38a746ca","meta":{"profile":["http://hl7.org/fhir/us/cqfmeasures/StructureDefinition/test-case-cqfm"]},"contained":[{"resourceType":"Parameters","id":"0597f3ce-5ff7-4d2c-818f-1fa5e8642a82-parameters","parameter":[{"name":"subject","valueString":"dd40e582-8c3f-44a2-b781-84acead6120f"}]}],"extension":[{"url":"http://hl7.org/fhir/us/cqfmeasures/StructureDefinition/cqfm-inputParameters","valueReference":{"reference":"#0597f3ce-5ff7-4d2c-818f-1fa5e8642a82-parameters"}},{"url":"http://hl7.org/fhir/us/cqfmeasures/StructureDefinition/cqfm-testCaseDescription","valueMarkdown":"Patient receives INR of 3.6 the day of Obs start. Ed ends 61 min before OBs start, Obs ends 61 min before IP start on the same day. Testing Day of operator with HospitalizationWithObservation function.\n"}],"modifierExtension":[{"url":"http://hl7.org/fhir/us/cqfmeasures/StructureDefinition/cqfm-isTestCase","valueBoolean":true}],"status":"complete","type":"individual","measure":"https://madie.cms.gov/Measure/CMS72FHIRSTKAntithromboticDay2","period":{"start":"2026-01-01","end":"2026-12-31"},"group":[{"population":[{"code":{"coding":[{"system":"http://terminology.hl7.org/CodeSystem/measure-population","code":"initial-population","display":"Initial Population"}]},"count":1},{"code":{"coding":[{"system":"http://terminology.hl7.org/CodeSystem/measure-population","code":"denominator","display":"Denominator"}]},"count":1},{"code":{"coding":[{"system":"http://terminology.hl7.org/CodeSystem/measure-population","code":"denominator-exclusion","display":"Denominator Exclusion"}]},"count":0},{"code":{"coding":[{"system":"http://terminology.hl7.org/CodeSystem/measure-population","code":"numerator","display":"Numerator"}]},"count":0},{"code":{"coding":[{"system":"http://terminology.hl7.org/CodeSystem/measure-population","code":"denominator-exception","display":"Denominator Exception"}]},"count":1}]}]},"request":{"method":"PUT","url":"MeasureReport/24e4cfc4-7973-42e9-8e8f-46bc38a746ca"}}]}