{"resourceType":"Bundle","id":"tests-64a75df8-8bed-49ea-9c90-ee3569d233df-bundle","type":"transaction","entry":[{"fullUrl":"https://madie.cms.gov/Patient/64a75df8-8bed-49ea-9c90-ee3569d233df","resource":{"resourceType":"Patient","id":"64a75df8-8bed-49ea-9c90-ee3569d233df","meta":{"profile":["http://hl7.org/fhir/us/qicore/StructureDefinition/qicore-patient"]},"text":{"status":"generated","div":"<div xmlns=\"http://www.w3.org/1999/xhtml\"><div class=\"hapiHeaderText\">NUMPass_MedAntithromboticStart_eq0dayDuringEd <b>NUMERPASS </b></div><table class=\"hapiPropertyTable\"><tbody><tr><td>Identifier</td><td>c83f9793e1392fa468cc0a3c0c4bf7d9</td></tr><tr><td>Date of birth</td><td><span>26 September 1975</span></td></tr></tbody></table></div>"},"extension":[{"url":"http://hl7.org/fhir/us/core/StructureDefinition/us-core-race","extension":[{"url":"ombCategory","valueCoding":{"system":"urn:oid:2.16.840.1.113883.6.238","code":"2054-5","display":"Black or African American","userSelected":true}},{"url":"text","valueString":"Black or African American"}]},{"url":"http://hl7.org/fhir/us/core/StructureDefinition/us-core-ethnicity","extension":[{"url":"ombCategory","valueCoding":{"system":"urn:oid:2.16.840.1.113883.6.238","code":"2186-5","display":"Not Hispanic or Latino","userSelected":true}},{"url":"text","valueString":"Not Hispanic or Latino"}]}],"identifier":[{"type":{"coding":[{"system":"http://terminology.hl7.org/CodeSystem/v2-0203","code":"MR"}]},"system":"https://bonnie-fhir.healthit.gov/","value":"60f82c2d98086b570510e246"}],"active":true,"name":[{"use":"usual","family":"NUMERPass","given":["NUMPass_MedAntithromboticStart_eq0dayDuringEd"]}],"gender":"female","birthDate":"1976-09-26"},"request":{"method":"PUT","url":"Patient/64a75df8-8bed-49ea-9c90-ee3569d233df"}},{"fullUrl":"https://madie.cms.gov/Encounter/8b179eac-4199-4d6f-9a17-7242ee2f2447","resource":{"resourceType":"Encounter","id":"8b179eac-4199-4d6f-9a17-7242ee2f2447","meta":{"profile":["http://hl7.org/fhir/us/qicore/StructureDefinition/qicore-encounter"]},"status":"finished","class":{"system":"http://terminology.hl7.org/CodeSystem/v3-ActCode","code":"EMER","display":"emergency"},"type":[{"coding":[{"system":"http://snomed.info/sct","code":"4525004"}]}],"subject":{"reference":"Patient/64a75df8-8bed-49ea-9c90-ee3569d233df"},"period":{"start":"2026-10-10T08:00:00+00:00","end":"2026-10-10T08:15:00+00:00"},"length":{"value":0,"unit":"days"}},"request":{"method":"PUT","url":"Encounter/8b179eac-4199-4d6f-9a17-7242ee2f2447"}},{"fullUrl":"https://madie.cms.gov/Encounter/47f075fa-08f2-4c40-a30a-ed3ace378211","resource":{"resourceType":"Encounter","id":"47f075fa-08f2-4c40-a30a-ed3ace378211","meta":{"profile":["http://hl7.org/fhir/us/qicore/StructureDefinition/qicore-encounter"]},"status":"finished","class":{"system":"http://terminology.hl7.org/CodeSystem/v3-ActCode","code":"IMP","display":"inpatient encounter"},"type":[{"coding":[{"system":"http://snomed.info/sct","code":"32485007"}]}],"subject":{"reference":"Patient/64a75df8-8bed-49ea-9c90-ee3569d233df"},"period":{"start":"2026-10-10T09:00:00+00:00","end":"2026-10-12T11:15:00+00:00"},"length":{"value":2,"unit":"days"},"diagnosis":[{"condition":{"reference":"Condition/ada80edc-8db6-4712-b8b3-1b42220910a9"},"use":{"coding":[{"system":"http://terminology.hl7.org/CodeSystem/diagnosis-role","code":"billing","display":"Billing"}]},"rank":1}]},"request":{"method":"PUT","url":"Encounter/47f075fa-08f2-4c40-a30a-ed3ace378211"}},{"fullUrl":"https://madie.cms.gov/MedicationAdministration/5a2de2c5-2e92-4ee4-890e-9824e924e5f3","resource":{"resourceType":"MedicationAdministration","id":"5a2de2c5-2e92-4ee4-890e-9824e924e5f3","meta":{"profile":["http://hl7.org/fhir/us/qicore/StructureDefinition/qicore-medicationadministration"]},"status":"completed","medicationCodeableConcept":{"coding":[{"system":"http://www.nlm.nih.gov/research/umls/rxnorm","code":"1037045"}]},"subject":{"reference":"Patient/64a75df8-8bed-49ea-9c90-ee3569d233df"},"effectivePeriod":{"start":"2026-10-10T08:01:00+00:00","end":"2026-10-10T08:45:00+00:00"}},"request":{"method":"PUT","url":"MedicationAdministration/5a2de2c5-2e92-4ee4-890e-9824e924e5f3"}},{"fullUrl":"https://madie.cms.gov/Coverage/a456b1f4-9249-4ddb-974a-df73ba3876f1","resource":{"resourceType":"Coverage","id":"a456b1f4-9249-4ddb-974a-df73ba3876f1","status":"active","beneficiary":{"reference":"Patient/64a75df8-8bed-49ea-9c90-ee3569d233df"},"period":{"start":"1976-09-26T08:00:00+00:00"},"payor":[{"reference":"Organization/e75793c9-fdf6-463a-8c1d-4ee44320dc25"}]},"request":{"method":"PUT","url":"Coverage/a456b1f4-9249-4ddb-974a-df73ba3876f1"}},{"fullUrl":"https://madie.cms.gov/Condition/ada80edc-8db6-4712-b8b3-1b42220910a9","resource":{"resourceType":"Condition","id":"ada80edc-8db6-4712-b8b3-1b42220910a9","meta":{"profile":["http://hl7.org/fhir/us/qicore/StructureDefinition/qicore-condition"]},"clinicalStatus":{"coding":[{"system":"http://terminology.hl7.org/CodeSystem/condition-clinical","code":"active"}]},"verificationStatus":{"coding":[{"system":"http://terminology.hl7.org/CodeSystem/condition-ver-status","code":"confirmed"}]},"category":[{"coding":[{"system":"http://terminology.hl7.org/CodeSystem/condition-category","code":"encounter-diagnosis","display":"Encounter Diagnosis"}]}],"code":{"coding":[{"system":"http://snomed.info/sct","version":"2020-09","code":"111297002","display":"Nonparalytic stroke (disorder)","userSelected":true}]},"subject":{"reference":"Patient/64a75df8-8bed-49ea-9c90-ee3569d233df"},"recordedDate":"2026-08-16T08:00:00.000+00:00"},"request":{"method":"PUT","url":"Condition/ada80edc-8db6-4712-b8b3-1b42220910a9"}},{"fullUrl":"https://madie.cms.gov/Organization/a14e8150-805e-4f39-af2e-7e8194aa12fe","resource":{"resourceType":"Organization","id":"e75793c9-fdf6-463a-8c1d-4ee44320dc25","meta":{"profile":["http://hl7.org/fhir/us/qicore/StructureDefinition/qicore-organization"]},"identifier":[{"use":"temp","system":"urn:oid:2.16.840.1.113883.4.4","value":"21-3259825"}],"active":true,"type":[{"coding":[{"system":"http://terminology.hl7.org/CodeSystem/organization-type","code":"pay","display":"Payer"}]}],"name":"Blue Cross Blue Shield of Texas","telecom":[{"system":"phone","value":"(+1) 972-766-6900"}],"address":[{"use":"billing","type":"postal","line":["P.O. Box 660044"],"city":"Dallas","state":"TX","postalCode":"75266-0044","country":"USA"}]},"request":{"method":"PUT","url":"Organization/e75793c9-fdf6-463a-8c1d-4ee44320dc25"}},{"fullUrl":"https://madie.cms.gov/Practitioner/4e2297fe-fde0-4261-a29a-4e5f5cb2cfb9","resource":{"resourceType":"Practitioner","id":"4e2297fe-fde0-4261-a29a-4e5f5cb2cfb9","identifier":[{"system":"http://hl7.org/fhir/sid/us-npi","value":"123456"}],"name":[{"family":"Evil","prefix":["Dr"]}]},"request":{"method":"PUT","url":"Practitioner/4e2297fe-fde0-4261-a29a-4e5f5cb2cfb9"}},{"fullUrl":"https://madie.cms.gov/MeasureReport/a731e7a0-1aeb-423a-b944-affb52b2c6c2","resource":{"resourceType":"MeasureReport","id":"a731e7a0-1aeb-423a-b944-affb52b2c6c2","meta":{"profile":["http://hl7.org/fhir/us/cqfmeasures/StructureDefinition/test-case-cqfm"]},"contained":[{"resourceType":"Parameters","id":"2af301a1-cc7e-47a4-aa8b-2cb24cc78ca9-parameters","parameter":[{"name":"subject","valueString":"64a75df8-8bed-49ea-9c90-ee3569d233df"}]}],"extension":[{"url":"http://hl7.org/fhir/us/cqfmeasures/StructureDefinition/cqfm-inputParameters","valueReference":{"reference":"#2af301a1-cc7e-47a4-aa8b-2cb24cc78ca9-parameters"}},{"url":"http://hl7.org/fhir/us/cqfmeasures/StructureDefinition/cqfm-testCaseDescription","valueMarkdown":"\"Patient receives antithrombotic in the ED.MedAntithromboticStart EQ 0day DuringEd\nglobal.\"\"Hospitalization\"\" =(Ed+IP)\"\n"}],"modifierExtension":[{"url":"http://hl7.org/fhir/us/cqfmeasures/StructureDefinition/cqfm-isTestCase","valueBoolean":true}],"status":"complete","type":"individual","measure":"https://madie.cms.gov/Measure/CMS72FHIRSTKAntithromboticDay2","period":{"start":"2026-01-01","end":"2026-12-31"},"group":[{"population":[{"code":{"coding":[{"system":"http://terminology.hl7.org/CodeSystem/measure-population","code":"initial-population","display":"Initial Population"}]},"count":1},{"code":{"coding":[{"system":"http://terminology.hl7.org/CodeSystem/measure-population","code":"denominator","display":"Denominator"}]},"count":1},{"code":{"coding":[{"system":"http://terminology.hl7.org/CodeSystem/measure-population","code":"denominator-exclusion","display":"Denominator Exclusion"}]},"count":0},{"code":{"coding":[{"system":"http://terminology.hl7.org/CodeSystem/measure-population","code":"numerator","display":"Numerator"}]},"count":1},{"code":{"coding":[{"system":"http://terminology.hl7.org/CodeSystem/measure-population","code":"denominator-exception","display":"Denominator Exception"}]},"count":0}]}]},"request":{"method":"PUT","url":"MeasureReport/a731e7a0-1aeb-423a-b944-affb52b2c6c2"}}]}