{"resourceType":"Bundle","id":"tests-763c581d-7398-47e7-ba78-eaa5853df551-bundle","type":"transaction","entry":[{"fullUrl":"https://madie.cms.gov/Patient/763c581d-7398-47e7-ba78-eaa5853df551","resource":{"resourceType":"Patient","id":"763c581d-7398-47e7-ba78-eaa5853df551","meta":{"profile":["http://hl7.org/fhir/us/qicore/StructureDefinition/qicore-patient"]},"text":{"status":"generated","div":"<div xmlns=\"http://www.w3.org/1999/xhtml\"><div class=\"hapiHeaderText\">CMP&gt;1day_duringIP <b>DENEXFAIL </b></div><table class=\"hapiPropertyTable\"><tbody><tr><td>Identifier</td><td>44765b479617151df23dd60d78910085</td></tr><tr><td>Date of birth</td><td><span>26 September 1975</span></td></tr></tbody></table></div>"},"extension":[{"url":"http://hl7.org/fhir/us/core/StructureDefinition/us-core-race","extension":[{"url":"ombCategory","valueCoding":{"system":"urn:oid:2.16.840.1.113883.6.238","code":"1002-5","display":"American Indian or Alaska Native","userSelected":true}},{"url":"text","valueString":"American Indian or Alaska Native"}]},{"url":"http://hl7.org/fhir/us/core/StructureDefinition/us-core-ethnicity","extension":[{"url":"ombCategory","valueCoding":{"system":"urn:oid:2.16.840.1.113883.6.238","code":"2135-2","display":"Hispanic or Latino","userSelected":true}},{"url":"text","valueString":"Hispanic or Latino"}]}],"identifier":[{"type":{"coding":[{"system":"http://terminology.hl7.org/CodeSystem/v2-0203","code":"MR"}]},"system":"https://bonnie-fhir.healthit.gov/","value":"60f82c2e98086b570510e286"}],"active":true,"name":[{"use":"usual","family":"DENEXFail","given":["CMP>1day_duringIP"]}],"gender":"female","birthDate":"1976-09-26"},"request":{"method":"PUT","url":"Patient/763c581d-7398-47e7-ba78-eaa5853df551"}},{"fullUrl":"https://madie.cms.gov/Encounter/1e950535-568e-4789-8f05-b0b043dfec49","resource":{"resourceType":"Encounter","id":"1e950535-568e-4789-8f05-b0b043dfec49","meta":{"profile":["http://hl7.org/fhir/us/qicore/StructureDefinition/qicore-encounter"]},"status":"finished","class":{"system":"http://terminology.hl7.org/CodeSystem/v3-ActCode","code":"EMER","display":"emergency","userSelected":true},"type":[{"coding":[{"system":"http://snomed.info/sct","code":"4525004"}]}],"subject":{"reference":"Patient/763c581d-7398-47e7-ba78-eaa5853df551"},"period":{"start":"2026-10-10T23:00:00+00:00","end":"2026-10-11T01:00:00+00:00"},"length":{"value":1,"unit":"days"}},"request":{"method":"PUT","url":"Encounter/1e950535-568e-4789-8f05-b0b043dfec49"}},{"fullUrl":"https://madie.cms.gov/Encounter/f727e7f5-ef08-425b-b794-825ab9cfab71","resource":{"resourceType":"Encounter","id":"f727e7f5-ef08-425b-b794-825ab9cfab71","meta":{"profile":["http://hl7.org/fhir/us/qicore/StructureDefinition/qicore-encounter"]},"status":"finished","class":{"system":"http://terminology.hl7.org/CodeSystem/v3-ActCode","code":"IMP","display":"inpatient encounter","userSelected":true},"type":[{"coding":[{"system":"http://snomed.info/sct","code":"32485007"}]}],"subject":{"reference":"Patient/763c581d-7398-47e7-ba78-eaa5853df551"},"period":{"start":"2026-10-11T01:30:00+00:00","end":"2026-10-14T11:00:00+00:00"},"length":{"value":3,"unit":"days"},"diagnosis":[{"condition":{"reference":"Condition/3550a32e-03e0-4d86-ad02-ea9c55c23415"},"use":{"coding":[{"system":"http://terminology.hl7.org/CodeSystem/diagnosis-role","code":"billing","display":"Billing"}]},"rank":1}]},"request":{"method":"PUT","url":"Encounter/f727e7f5-ef08-425b-b794-825ab9cfab71"}},{"fullUrl":"https://madie.cms.gov/Procedure/dceb8312-b2bc-4f5e-aa6e-cfe5d9eb546e","resource":{"resourceType":"Procedure","id":"dceb8312-b2bc-4f5e-aa6e-cfe5d9eb546e","meta":{"profile":["http://hl7.org/fhir/us/qicore/StructureDefinition/qicore-procedure"]},"extension":[{"url":"http://hl7.org/fhir/us/qicore/StructureDefinition/qicore-recorded","valueDateTime":"2014-04-05T09:35:00-04:00"}],"status":"completed","code":{"coding":[{"system":"http://snomed.info/sct","code":"133918004"}]},"subject":{"reference":"Patient/763c581d-7398-47e7-ba78-eaa5853df551"},"performedPeriod":{"start":"2026-10-12T07:00:00+00:00"}},"request":{"method":"PUT","url":"Procedure/dceb8312-b2bc-4f5e-aa6e-cfe5d9eb546e"}},{"fullUrl":"https://madie.cms.gov/Coverage/3d08b306-58b5-4629-8275-40e245e29679","resource":{"resourceType":"Coverage","id":"3d08b306-58b5-4629-8275-40e245e29679","status":"active","beneficiary":{"reference":"Patient/763c581d-7398-47e7-ba78-eaa5853df551"},"period":{"start":"1976-09-26T08:00:00+00:00"},"payor":[{"reference":"Organization/607fdef9-3983-4cef-ab1a-95434d29b463"}]},"request":{"method":"PUT","url":"Coverage/3d08b306-58b5-4629-8275-40e245e29679"}},{"fullUrl":"https://madie.cms.gov/Condition/3550a32e-03e0-4d86-ad02-ea9c55c23415","resource":{"resourceType":"Condition","id":"3550a32e-03e0-4d86-ad02-ea9c55c23415","meta":{"profile":["http://hl7.org/fhir/us/qicore/StructureDefinition/qicore-condition"]},"clinicalStatus":{"coding":[{"system":"http://terminology.hl7.org/CodeSystem/condition-clinical","code":"active"}]},"verificationStatus":{"coding":[{"system":"http://terminology.hl7.org/CodeSystem/condition-ver-status","code":"confirmed"}]},"category":[{"coding":[{"system":"http://terminology.hl7.org/CodeSystem/condition-category","code":"encounter-diagnosis","display":"Encounter Diagnosis"}]}],"code":{"coding":[{"system":"http://snomed.info/sct","version":"2020-09","code":"111297002","display":"Nonparalytic stroke (disorder)","userSelected":true}]},"subject":{"reference":"Patient/763c581d-7398-47e7-ba78-eaa5853df551"},"recordedDate":"2026-08-11T08:00:00.000+00:00"},"request":{"method":"PUT","url":"Condition/3550a32e-03e0-4d86-ad02-ea9c55c23415"}},{"fullUrl":"https://madie.cms.gov/Organization/39be5667-2148-4c4e-9b83-cc039592f68d","resource":{"resourceType":"Organization","id":"607fdef9-3983-4cef-ab1a-95434d29b463","meta":{"profile":["http://hl7.org/fhir/us/qicore/StructureDefinition/qicore-organization"]},"identifier":[{"use":"temp","system":"urn:oid:2.16.840.1.113883.4.4","value":"21-3259825"}],"active":true,"type":[{"coding":[{"system":"http://terminology.hl7.org/CodeSystem/organization-type","code":"pay","display":"Payer"}]}],"name":"Blue Cross Blue Shield of Texas","telecom":[{"system":"phone","value":"(+1) 972-766-6900"}],"address":[{"use":"billing","type":"postal","line":["P.O. Box 660044"],"city":"Dallas","state":"TX","postalCode":"75266-0044","country":"USA"}]},"request":{"method":"PUT","url":"Organization/607fdef9-3983-4cef-ab1a-95434d29b463"}},{"fullUrl":"https://madie.cms.gov/MeasureReport/d9826f3d-e0d2-4d89-a781-229db3bb6e21","resource":{"resourceType":"MeasureReport","id":"d9826f3d-e0d2-4d89-a781-229db3bb6e21","meta":{"profile":["http://hl7.org/fhir/us/cqfmeasures/StructureDefinition/test-case-cqfm"]},"contained":[{"resourceType":"Parameters","id":"a490cc8a-d38b-48fb-b485-70b837037343-parameters","parameter":[{"name":"subject","valueString":"763c581d-7398-47e7-ba78-eaa5853df551"}]}],"extension":[{"url":"http://hl7.org/fhir/us/cqfmeasures/StructureDefinition/cqfm-inputParameters","valueReference":{"reference":"#a490cc8a-d38b-48fb-b485-70b837037343-parameters"}},{"url":"http://hl7.org/fhir/us/cqfmeasures/StructureDefinition/cqfm-testCaseDescription","valueMarkdown":"Patient receives comfort measures performed >1 day during EncIP, global.\"Hospitalization\" =(Ed+IP)\n"}],"modifierExtension":[{"url":"http://hl7.org/fhir/us/cqfmeasures/StructureDefinition/cqfm-isTestCase","valueBoolean":true}],"status":"complete","type":"individual","measure":"https://madie.cms.gov/Measure/CMS72FHIRSTKAntithromboticDay2","period":{"start":"2026-01-01","end":"2026-12-31"},"group":[{"population":[{"code":{"coding":[{"system":"http://terminology.hl7.org/CodeSystem/measure-population","code":"initial-population","display":"Initial Population"}]},"count":1},{"code":{"coding":[{"system":"http://terminology.hl7.org/CodeSystem/measure-population","code":"denominator","display":"Denominator"}]},"count":1},{"code":{"coding":[{"system":"http://terminology.hl7.org/CodeSystem/measure-population","code":"denominator-exclusion","display":"Denominator Exclusion"}]},"count":0},{"code":{"coding":[{"system":"http://terminology.hl7.org/CodeSystem/measure-population","code":"numerator","display":"Numerator"}]},"count":0},{"code":{"coding":[{"system":"http://terminology.hl7.org/CodeSystem/measure-population","code":"denominator-exception","display":"Denominator Exception"}]},"count":0}]}]},"request":{"method":"PUT","url":"MeasureReport/d9826f3d-e0d2-4d89-a781-229db3bb6e21"}}]}