{
  "resourceType": "Bundle",
  "id": "63487c2f0968f801225401a7",
  "type": "transaction",
  "entry": [ {
    "fullUrl": "https://madie.cms.gov/Patient/b1a36941-f012-41fa-af10-6ceaa24d22c0",
    "resource": {
      "resourceType": "Patient",
      "id": "b1a36941-f012-41fa-af10-6ceaa24d22c0",
      "meta": {
        "profile": [ "http://hl7.org/fhir/us/qicore/StructureDefinition/qicore-patient" ]
      },
      "text": {
        "status": "generated",
        "div": "<div xmlns=\"http://www.w3.org/1999/xhtml\"><div class=\"hapiHeaderText\">CalcEGABothNull <b>DENFAIL </b></div><table class=\"hapiPropertyTable\"><tbody><tr><td>Identifier</td><td>b00b06f67015bda652373741cca10f65466d828e3a674df9528f73ec417ce0bb</td></tr><tr><td>Date of birth</td><td><span>14 February 1985</span></td></tr></tbody></table></div>"
      },
      "extension": [ {
        "url": "http://hl7.org/fhir/us/core/StructureDefinition/us-core-race",
        "extension": [ {
          "url": "ombCategory",
          "valueCoding": {
            "system": "urn:oid:2.16.840.1.113883.6.238",
            "code": "1002-5",
            "display": "American Indian or Alaska Native",
            "userSelected": true
          }
        }, {
          "url": "text",
          "valueString": "American Indian or Alaska Native"
        } ]
      }, {
        "url": "http://hl7.org/fhir/us/core/StructureDefinition/us-core-ethnicity",
        "extension": [ {
          "url": "ombCategory",
          "valueCoding": {
            "system": "urn:oid:2.16.840.1.113883.6.238",
            "code": "2135-2",
            "display": "Hispanic or Latino",
            "userSelected": true
          }
        }, {
          "url": "text",
          "valueString": "Hispanic or Latino"
        } ]
      } ],
      "identifier": [ {
        "type": {
          "coding": [ {
            "system": "http://terminology.hl7.org/CodeSystem/v2-0203",
            "code": "MR"
          } ]
        },
        "system": "https://bonnie-fhir.healthit.gov/",
        "value": "63487c2f0968f801225401a7"
      } ],
      "active": true,
      "name": [ {
        "use": "usual",
        "family": "DENFail",
        "given": [ "CalcEGABothNull" ]
      } ],
      "gender": "female",
      "birthDate": "1998-02-14"
    },
    "request": {
      "method": "PUT",
      "url": "Patient/b1a36941-f012-41fa-af10-6ceaa24d22c0"
    }
  }, {
    "fullUrl": "https://madie.cms.gov/Observation/04ad7c86-7a18-4ba6-b5af-fd329f91e0f2",
    "resource": {
      "resourceType": "Observation",
      "id": "04ad7c86-7a18-4ba6-b5af-fd329f91e0f2",
      "meta": {
        "profile": [ "http://hl7.org/fhir/us/qicore/StructureDefinition/qicore-observation" ]
      },
      "status": "final",
      "category": [ {
        "coding": [ {
          "system": "http://terminology.hl7.org/CodeSystem/observation-category",
          "code": "exam",
          "display": "exam",
          "userSelected": true
        } ]
      } ],
      "code": {
        "coding": [ {
          "system": "http://loinc.org",
          "code": "93857-1"
        } ]
      },
      "subject": {
        "reference": "Patient/b1a36941-f012-41fa-af10-6ceaa24d22c0"
      },
      "effectiveDateTime": "2026-01-15T08:00:00.000+00:00"
    },
    "request": {
      "method": "PUT",
      "url": "Observation/04ad7c86-7a18-4ba6-b5af-fd329f91e0f2"
    }
  }, {
    "fullUrl": "https://madie.cms.gov/Observation/455e7765-ea6e-46fd-98e1-2c4233c1cd32",
    "resource": {
      "resourceType": "Observation",
      "id": "455e7765-ea6e-46fd-98e1-2c4233c1cd32",
      "meta": {
        "profile": [ "http://hl7.org/fhir/us/qicore/StructureDefinition/qicore-observation" ]
      },
      "status": "final",
      "category": [ {
        "coding": [ {
          "system": "http://terminology.hl7.org/CodeSystem/observation-category",
          "code": "exam",
          "display": "exam",
          "userSelected": true
        } ]
      } ],
      "code": {
        "coding": [ {
          "system": "http://loinc.org",
          "code": "11778-8"
        } ]
      },
      "subject": {
        "reference": "Patient/b1a36941-f012-41fa-af10-6ceaa24d22c0"
      },
      "effectiveDateTime": "2026-01-15T08:00:00.000+00:00"
    },
    "request": {
      "method": "PUT",
      "url": "Observation/455e7765-ea6e-46fd-98e1-2c4233c1cd32"
    }
  }, {
    "fullUrl": "https://madie.cms.gov/Observation/0547d201-b731-486d-a97b-eb95be4da6f7",
    "resource": {
      "resourceType": "Observation",
      "id": "0547d201-b731-486d-a97b-eb95be4da6f7",
      "meta": {
        "profile": [ "http://hl7.org/fhir/us/qicore/StructureDefinition/qicore-observation" ]
      },
      "status": "final",
      "category": [ {
        "coding": [ {
          "system": "http://terminology.hl7.org/CodeSystem/observation-category",
          "code": "exam",
          "display": "exam",
          "userSelected": true
        } ]
      } ],
      "code": {
        "coding": [ {
          "system": "http://loinc.org",
          "code": "11996-6"
        } ]
      },
      "subject": {
        "reference": "Patient/b1a36941-f012-41fa-af10-6ceaa24d22c0"
      },
      "effectiveDateTime": "2026-01-15T07:59:00.000+00:00",
      "valueInteger": 1
    },
    "request": {
      "method": "PUT",
      "url": "Observation/0547d201-b731-486d-a97b-eb95be4da6f7"
    }
  }, {
    "fullUrl": "https://madie.cms.gov/Encounter/5f84f75b-99f6-4c36-9a13-e0a57dd8ba67",
    "resource": {
      "resourceType": "Encounter",
      "id": "5f84f75b-99f6-4c36-9a13-e0a57dd8ba67",
      "meta": {
        "profile": [ "http://hl7.org/fhir/us/qicore/StructureDefinition/qicore-encounter" ]
      },
      "status": "finished",
      "class": {
        "system": "http://terminology.hl7.org/CodeSystem/v3-ActCode",
        "code": "IMP",
        "display": "inpatient encounter"
      },
      "type": [ {
        "coding": [ {
          "system": "http://snomed.info/sct",
          "code": "183452005"
        } ]
      } ],
      "subject": {
        "reference": "Patient/b1a36941-f012-41fa-af10-6ceaa24d22c0"
      },
      "period": {
        "start": "2026-01-15T08:00:00.000Z",
        "end": "2026-01-20T08:15:00.000Z"
      },
      "diagnosis": [ {
        "condition": {
          "reference": "Condition/delivery-of-singleton-f83c"
        },
        "use": {
          "coding": [ {
            "system": "http://snomed.info/sct",
            "code": "169826009",
            "display": "Delivery of Singleton"
          } ]
        }
      }, {
        "condition": {
          "reference": "Condition/b9a8a8aa-1bfe-442e-98c9-ba4b7daa6214"
        }
      } ]
    },
    "request": {
      "method": "PUT",
      "url": "Encounter/5f84f75b-99f6-4c36-9a13-e0a57dd8ba67"
    }
  }, {
    "fullUrl": "https://madie.cms.gov/Procedure/89b78a35-8b56-4ddf-8997-86d5b397bbdd",
    "resource": {
      "resourceType": "Procedure",
      "id": "89b78a35-8b56-4ddf-8997-86d5b397bbdd",
      "meta": {
        "profile": [ "http://hl7.org/fhir/us/qicore/StructureDefinition/qicore-procedure" ]
      },
      "extension": [ {
        "url": "http://hl7.org/fhir/us/qicore/StructureDefinition/qicore-recorded",
        "valueDateTime": "2014-04-05T09:35:00-04:00"
      } ],
      "status": "completed",
      "code": {
        "coding": [ {
          "system": "http://www.cms.gov/Medicare/Coding/ICD10",
          "code": "10D07Z3"
        }, {
          "system": "http://www.icd10data.com/icd10pcs",
          "code": "10D07Z3",
          "userSelected": true
        } ]
      },
      "subject": {
        "reference": "Patient/b1a36941-f012-41fa-af10-6ceaa24d22c0"
      },
      "performedPeriod": {
        "start": "2026-01-15T08:10:00.000Z",
        "end": "2026-01-15T09:14:00.000Z"
      }
    },
    "request": {
      "method": "PUT",
      "url": "Procedure/89b78a35-8b56-4ddf-8997-86d5b397bbdd"
    }
  }, {
    "fullUrl": "https://madie.cms.gov/Condition/b9a8a8aa-1bfe-442e-98c9-ba4b7daa6214",
    "resource": {
      "resourceType": "Condition",
      "id": "b9a8a8aa-1bfe-442e-98c9-ba4b7daa6214",
      "meta": {
        "profile": [ "http://hl7.org/fhir/us/qicore/StructureDefinition/qicore-condition" ]
      },
      "category": [ {
        "coding": [ {
          "system": "http://terminology.hl7.org/CodeSystem/condition-category",
          "code": "encounter-diagnosis",
          "display": "Encounter Diagnosis"
        } ]
      } ],
      "code": {
        "coding": [ {
          "system": "http://snomed.info/sct",
          "version": "2022-09",
          "code": "169826009",
          "display": "Single live birth (finding)",
          "userSelected": true
        } ]
      },
      "subject": {
        "reference": "Patient/b1a36941-f012-41fa-af10-6ceaa24d22c0"
      },
      "recordedDate": "2026-10-21T08:00:00.000+00:00"
    },
    "request": {
      "method": "PUT",
      "url": "Condition/b9a8a8aa-1bfe-442e-98c9-ba4b7daa6214"
    }
  }, {
    "fullUrl": "https://madie.cms.gov/Coverage/86b6349b-526b-4101-8279-61c13b93d2b5",
    "resource": {
      "resourceType": "Coverage",
      "id": "86b6349b-526b-4101-8279-61c13b93d2b5",
      "meta": {
        "profile": [ "http://hl7.org/fhir/us/qicore/StructureDefinition/qicore-coverage" ]
      },
      "status": "active",
      "beneficiary": {
        "reference": "Patient/b1a36941-f012-41fa-af10-6ceaa24d22c0"
      },
      "payor": [ {
        "reference": "Organization/a8a703fe-458b-4c90-8e88-7b3497a7717e"
      } ]
    },
    "request": {
      "method": "PUT",
      "url": "Coverage/86b6349b-526b-4101-8279-61c13b93d2b5"
    }
  }, {
    "fullUrl": "https://madie.cms.gov/Organization/a8a703fe-458b-4c90-8e88-7b3497a7717e",
    "resource": {
      "resourceType": "Organization",
      "id": "a8a703fe-458b-4c90-8e88-7b3497a7717e",
      "meta": {
        "profile": [ "http://hl7.org/fhir/us/qicore/StructureDefinition/qicore-organization" ]
      },
      "identifier": [ {
        "use": "temp",
        "system": "urn:oid:2.16.840.1.113883.4.4",
        "value": "21-3259825"
      } ],
      "active": true,
      "type": [ {
        "coding": [ {
          "system": "http://terminology.hl7.org/CodeSystem/organization-type",
          "code": "pay",
          "display": "Payer"
        } ]
      } ],
      "name": "Blue Cross Blue Shield of Texas",
      "telecom": [ {
        "system": "phone",
        "value": "(+1) 972-766-6900"
      } ],
      "address": [ {
        "use": "billing",
        "type": "postal",
        "line": [ "P.O. Box 660044" ],
        "city": "Dallas",
        "state": "TX",
        "postalCode": "75266-0044",
        "country": "USA"
      } ]
    },
    "request": {
      "method": "PUT",
      "url": "Organization/a8a703fe-458b-4c90-8e88-7b3497a7717e"
    }
  }, {
    "fullUrl": "https://madie.cms.gov/Practitioner/c3b35954-4114-4aad-995d-df09626cb8e2",
    "resource": {
      "resourceType": "Practitioner",
      "id": "c3b35954-4114-4aad-995d-df09626cb8e2",
      "identifier": [ {
        "system": "http://hl7.org/fhir/sid/us-npi",
        "value": "123456"
      } ],
      "name": [ {
        "family": "Evil",
        "prefix": [ "Dr" ]
      } ]
    },
    "request": {
      "method": "PUT",
      "url": "Practitioner/c3b35954-4114-4aad-995d-df09626cb8e2"
    }
  }, {
    "fullUrl": "https://madie.cms.gov/MeasureReport/44ec9691-d4ed-4d1b-a7c6-c0e0f5110931",
    "resource": {
      "resourceType": "MeasureReport",
      "id": "44ec9691-d4ed-4d1b-a7c6-c0e0f5110931",
      "meta": {
        "profile": [ "http://hl7.org/fhir/us/cqfmeasures/StructureDefinition/test-case-cqfm" ]
      },
      "contained": [ {
        "resourceType": "Parameters",
        "id": "f5d176ef-1783-4bfc-a2af-26636b2a6299-parameters",
        "parameter": [ {
          "name": "subject",
          "valueString": "b1a36941-f012-41fa-af10-6ceaa24d22c0"
        } ]
      } ],
      "extension": [ {
        "url": "http://hl7.org/fhir/us/cqfmeasures/StructureDefinition/cqfm-inputParameters",
        "valueReference": {
          "reference": "#f5d176ef-1783-4bfc-a2af-26636b2a6299-parameters"
        }
      }, {
        "url": "http://hl7.org/fhir/us/cqfmeasures/StructureDefinition/cqfm-testCaseDescription",
        "valueMarkdown": "Passes: IP, Fails: DENOM Pt is 27 years of age,  encounter dx delivery of singleton, gravida=1 eff   less than 42 weeks prior to delivery, calculated EGA is Null because both the IsTimeOfDelivery and LastEstimatedDeliveryDate return NULL\n"
      } ],
      "modifierExtension": [ {
        "url": "http://hl7.org/fhir/us/cqfmeasures/StructureDefinition/cqfm-isTestCase",
        "valueBoolean": true
      } ],
      "status": "complete",
      "type": "individual",
      "measure": "https://madie.cms.gov/Measure/CMS334FHIRPCCesareanBirth",
      "period": {
        "start": "2026-01-01",
        "end": "2026-12-31"
      },
      "group": [ {
        "population": [ {
          "code": {
            "coding": [ {
              "system": "http://terminology.hl7.org/CodeSystem/measure-population",
              "code": "initial-population",
              "display": "Initial Population"
            } ]
          },
          "count": 1
        }, {
          "code": {
            "coding": [ {
              "system": "http://terminology.hl7.org/CodeSystem/measure-population",
              "code": "denominator",
              "display": "Denominator"
            } ]
          },
          "count": 0
        }, {
          "code": {
            "coding": [ {
              "system": "http://terminology.hl7.org/CodeSystem/measure-population",
              "code": "denominator-exclusion",
              "display": "Denominator Exclusion"
            } ]
          },
          "count": 0
        }, {
          "code": {
            "coding": [ {
              "system": "http://terminology.hl7.org/CodeSystem/measure-population",
              "code": "numerator",
              "display": "Numerator"
            } ]
          },
          "count": 0
        } ]
      } ],
      "evaluatedResource": [ {
        "reference": "Patient/b1a36941-f012-41fa-af10-6ceaa24d22c0"
      }, {
        "reference": "Observation/04ad7c86-7a18-4ba6-b5af-fd329f91e0f2"
      }, {
        "reference": "Observation/455e7765-ea6e-46fd-98e1-2c4233c1cd32"
      }, {
        "reference": "Observation/0547d201-b731-486d-a97b-eb95be4da6f7"
      }, {
        "reference": "Encounter/5f84f75b-99f6-4c36-9a13-e0a57dd8ba67"
      }, {
        "reference": "Procedure/89b78a35-8b56-4ddf-8997-86d5b397bbdd"
      }, {
        "reference": "Condition/b9a8a8aa-1bfe-442e-98c9-ba4b7daa6214"
      }, {
        "reference": "Coverage/86b6349b-526b-4101-8279-61c13b93d2b5"
      }, {
        "reference": "Organization/a8a703fe-458b-4c90-8e88-7b3497a7717e"
      }, {
        "reference": "Practitioner/c3b35954-4114-4aad-995d-df09626cb8e2"
      } ]
    },
    "request": {
      "method": "PUT",
      "url": "MeasureReport/44ec9691-d4ed-4d1b-a7c6-c0e0f5110931"
    }
  } ]
}