{"resourceType":"Bundle","id":"tests-3023ca44-3a4f-4be3-931b-784e9c9c46e9-bundle","type":"transaction","entry":[{"fullUrl":"https://madie.cms.gov/Patient/3023ca44-3a4f-4be3-931b-784e9c9c46e9","resource":{"resourceType":"Patient","id":"3023ca44-3a4f-4be3-931b-784e9c9c46e9","meta":{"profile":["http://hl7.org/fhir/us/qicore/StructureDefinition/qicore-patient"]},"text":{"status":"generated","div":"<div xmlns=\"http://www.w3.org/1999/xhtml\"><div class=\"hapiHeaderText\">CMOdurObs_ED&gt;1hrObs&gt;1hrBFEnc <b>DENEXFAIL </b></div><table class=\"hapiPropertyTable\"><tbody><tr><td>Identifier</td><td>013c7df93f5b4b7bbcd2a75a8b429b2c</td></tr><tr><td>Date of birth</td><td><span>18 September 1985</span></td></tr></tbody></table></div>"},"extension":[{"url":"http://hl7.org/fhir/us/core/StructureDefinition/us-core-race","extension":[{"url":"ombCategory","valueCoding":{"system":"urn:oid:2.16.840.1.113883.6.238","code":"1002-5","display":"American Indian or Alaska Native","userSelected":true}},{"url":"text","valueString":"American Indian or Alaska Native"}]},{"url":"http://hl7.org/fhir/us/core/StructureDefinition/us-core-ethnicity","extension":[{"url":"ombCategory","valueCoding":{"system":"urn:oid:2.16.840.1.113883.6.238","code":"2135-2","display":"Hispanic or Latino","userSelected":true}},{"url":"text","valueString":"Hispanic or Latino"}]}],"identifier":[{"type":{"coding":[{"system":"http://terminology.hl7.org/CodeSystem/v2-0203","code":"MR"}]},"system":"https://bonnie-fhir.healthit.gov/","value":"633c9d030968f8012250fc8a"}],"active":true,"name":[{"use":"usual","family":"DENEXFail","given":["CMOdurObs_ED>1hrObs>1hrBFEnc"]}],"gender":"female","birthDate":"1986-09-18"},"request":{"method":"PUT","url":"Patient/3023ca44-3a4f-4be3-931b-784e9c9c46e9"}},{"fullUrl":"https://madie.cms.gov/Condition/f747433e-20a0-4196-8447-80bdf0bf94f0","resource":{"resourceType":"Condition","id":"f747433e-20a0-4196-8447-80bdf0bf94f0","meta":{"profile":["http://hl7.org/fhir/us/qicore/StructureDefinition/qicore-condition"]},"clinicalStatus":{"coding":[{"system":"http://terminology.hl7.org/CodeSystem/condition-clinical","code":"inactive"}]},"verificationStatus":{"coding":[{"system":"http://terminology.hl7.org/CodeSystem/condition-ver-status","code":"confirmed"}]},"category":[{"coding":[{"system":"http://terminology.hl7.org/CodeSystem/condition-category","code":"encounter-diagnosis","display":"Encounter Diagnosis"}]}],"code":{"coding":[{"system":"http://hl7.org/fhir/sid/icd-9-cm","code":"427.31"},{"system":"http://hl7.org/fhir/sid/icd-10-cm","code":"I48.0"},{"system":"http://snomed.info/sct","code":"5370000"}]},"subject":{"reference":"Patient/3023ca44-3a4f-4be3-931b-784e9c9c46e9"},"onsetDateTime":"2026-10-01T09:00:00.000Z","abatementDateTime":"2026-10-12T00:15:00.000Z"},"request":{"method":"PUT","url":"Condition/f747433e-20a0-4196-8447-80bdf0bf94f0"}},{"fullUrl":"https://madie.cms.gov/Encounter/c09897a1-fd19-45c6-8817-53485e25a403","resource":{"resourceType":"Encounter","id":"c09897a1-fd19-45c6-8817-53485e25a403","meta":{"profile":["http://hl7.org/fhir/us/qicore/StructureDefinition/qicore-encounter"]},"status":"finished","class":{"system":"http://terminology.hl7.org/CodeSystem/v3-ActCode","code":"EMER","display":"emergency"},"type":[{"coding":[{"system":"http://snomed.info/sct","code":"4525004"}]}],"subject":{"reference":"Patient/3023ca44-3a4f-4be3-931b-784e9c9c46e9"},"period":{"start":"2026-09-30T06:59:00.000Z","end":"2026-09-30T07:00:00.000Z"},"length":{"value":0,"unit":"days"}},"request":{"method":"PUT","url":"Encounter/c09897a1-fd19-45c6-8817-53485e25a403"}},{"fullUrl":"https://madie.cms.gov/Encounter/099ac96f-d665-445a-af29-0c326ce07232","resource":{"resourceType":"Encounter","id":"099ac96f-d665-445a-af29-0c326ce07232","meta":{"profile":["http://hl7.org/fhir/us/qicore/StructureDefinition/qicore-encounter"]},"status":"finished","class":{"system":"http://terminology.hl7.org/CodeSystem/v3-ActCode","code":"OBSENC","display":"observation encounter"},"type":[{"coding":[{"system":"http://snomed.info/sct","code":"448851000124103"}]}],"subject":{"reference":"Patient/3023ca44-3a4f-4be3-931b-784e9c9c46e9"},"period":{"start":"2026-09-30T08:00:00.000Z","end":"2026-09-30T08:05:00.000Z"},"length":{"value":0,"unit":"days"}},"request":{"method":"PUT","url":"Encounter/099ac96f-d665-445a-af29-0c326ce07232"}},{"fullUrl":"https://madie.cms.gov/Encounter/89b08404-bf7b-48cf-9073-8f30c117c628","resource":{"resourceType":"Encounter","id":"89b08404-bf7b-48cf-9073-8f30c117c628","meta":{"profile":["http://hl7.org/fhir/us/qicore/StructureDefinition/qicore-encounter"]},"status":"finished","class":{"system":"http://terminology.hl7.org/CodeSystem/v3-ActCode","code":"IMP","display":"inpatient encounter"},"type":[{"coding":[{"system":"http://snomed.info/sct","code":"32485007"}]}],"subject":{"reference":"Patient/3023ca44-3a4f-4be3-931b-784e9c9c46e9"},"period":{"start":"2026-09-30T09:06:00.000Z","end":"2026-10-12T00:15:00.000Z"},"length":{"value":12,"unit":"days"},"diagnosis":[{"condition":{"reference":"Condition/dbf3d894-4540-486c-9175-82ec74dc4a2f"},"use":{"coding":[{"system":"http://terminology.hl7.org/CodeSystem/diagnosis-role","code":"billing","display":"Billing"}]},"rank":1}],"hospitalization":{"dischargeDisposition":{"coding":[{"system":"http://snomed.info/sct","code":"10161009","display":"Discharge To Home Or Police Custody"}]}}},"request":{"method":"PUT","url":"Encounter/89b08404-bf7b-48cf-9073-8f30c117c628"}},{"fullUrl":"https://madie.cms.gov/ServiceRequest/d24a1c24-9829-4952-b245-f5ab8bfc7d2e","resource":{"resourceType":"ServiceRequest","id":"d24a1c24-9829-4952-b245-f5ab8bfc7d2e","meta":{"profile":["http://hl7.org/fhir/us/qicore/StructureDefinition/qicore-servicerequest"]},"status":"active","intent":"order","code":{"coding":[{"system":"http://snomed.info/sct","code":"133918004"}]},"subject":{"reference":"Patient/3023ca44-3a4f-4be3-931b-784e9c9c46e9"},"authoredOn":"2026-09-30T08:01:00.000+00:00"},"request":{"method":"PUT","url":"ServiceRequest/d24a1c24-9829-4952-b245-f5ab8bfc7d2e"}},{"fullUrl":"https://madie.cms.gov/Coverage/c7d926b9-802a-451e-b213-393bb8bc9a05","resource":{"resourceType":"Coverage","id":"c7d926b9-802a-451e-b213-393bb8bc9a05","status":"active","beneficiary":{"reference":"Patient/3023ca44-3a4f-4be3-931b-784e9c9c46e9"},"period":{"start":"1986-09-18T08:00:00.000Z"},"payor":[{"reference":"Organization/5ad6ea38-07e9-4482-9e1b-c09eee595be9"}]},"request":{"method":"PUT","url":"Coverage/c7d926b9-802a-451e-b213-393bb8bc9a05"}},{"fullUrl":"https://madie.cms.gov/Condition/dbf3d894-4540-486c-9175-82ec74dc4a2f","resource":{"resourceType":"Condition","id":"dbf3d894-4540-486c-9175-82ec74dc4a2f","meta":{"profile":["http://hl7.org/fhir/us/qicore/StructureDefinition/qicore-condition"]},"clinicalStatus":{"coding":[{"system":"http://terminology.hl7.org/CodeSystem/condition-clinical","code":"active"}]},"verificationStatus":{"coding":[{"system":"http://terminology.hl7.org/CodeSystem/condition-ver-status","code":"confirmed"}]},"category":[{"coding":[{"system":"http://terminology.hl7.org/CodeSystem/condition-category","code":"encounter-diagnosis","display":"Encounter Diagnosis"}]}],"code":{"coding":[{"system":"http://snomed.info/sct","version":"2021-09","code":"111297002","display":"Nonparalytic stroke (disorder)","userSelected":true}]},"subject":{"reference":"Patient/3023ca44-3a4f-4be3-931b-784e9c9c46e9"},"recordedDate":"2026-10-13T08:00:00.000+00:00"},"request":{"method":"PUT","url":"Condition/dbf3d894-4540-486c-9175-82ec74dc4a2f"}},{"fullUrl":"https://madie.cms.gov/Organization/cc47a2f1-7df4-487d-b740-910a8d9d966d","resource":{"resourceType":"Organization","id":"5ad6ea38-07e9-4482-9e1b-c09eee595be9","meta":{"profile":["http://hl7.org/fhir/us/qicore/StructureDefinition/qicore-organization"]},"identifier":[{"use":"temp","system":"urn:oid:2.16.840.1.113883.4.4","value":"21-3259825"}],"active":true,"type":[{"coding":[{"system":"http://terminology.hl7.org/CodeSystem/organization-type","code":"pay","display":"Payer"}]}],"name":"Blue Cross Blue Shield of Texas","telecom":[{"system":"phone","value":"(+1) 972-766-6900"}],"address":[{"use":"billing","type":"postal","line":["P.O. Box 660044"],"city":"Dallas","state":"TX","postalCode":"75266-0044","country":"USA"}]},"request":{"method":"PUT","url":"Organization/5ad6ea38-07e9-4482-9e1b-c09eee595be9"}},{"fullUrl":"https://madie.cms.gov/Practitioner/cd9b1ade-3af8-452d-b4d9-5bf45a4c052d","resource":{"resourceType":"Practitioner","id":"cd9b1ade-3af8-452d-b4d9-5bf45a4c052d","identifier":[{"system":"http://hl7.org/fhir/sid/us-npi","value":"123456"}],"name":[{"family":"Evil","prefix":["Dr"]}]},"request":{"method":"PUT","url":"Practitioner/cd9b1ade-3af8-452d-b4d9-5bf45a4c052d"}},{"fullUrl":"https://madie.cms.gov/MeasureReport/9bad3d08-ae45-4614-9cd7-224588c7a82e","resource":{"resourceType":"MeasureReport","id":"9bad3d08-ae45-4614-9cd7-224588c7a82e","meta":{"profile":["http://hl7.org/fhir/us/cqfmeasures/StructureDefinition/test-case-cqfm"]},"contained":[{"resourceType":"Parameters","id":"c57fc581-b948-46c7-8cf6-9aaf3562b7e9-parameters","parameter":[{"name":"subject","valueString":"3023ca44-3a4f-4be3-931b-784e9c9c46e9"}]}],"extension":[{"url":"http://hl7.org/fhir/us/cqfmeasures/StructureDefinition/cqfm-inputParameters","valueReference":{"reference":"#c57fc581-b948-46c7-8cf6-9aaf3562b7e9-parameters"}},{"url":"http://hl7.org/fhir/us/cqfmeasures/StructureDefinition/cqfm-testCaseDescription","valueMarkdown":"Patient receives CMO order during Observation. ED visit ends 61 min. before Obs start, Obs ends 61 min before Inpatient encounter. Testing HospitalizationWithObservation function.\n"}],"modifierExtension":[{"url":"http://hl7.org/fhir/us/cqfmeasures/StructureDefinition/cqfm-isTestCase","valueBoolean":true}],"status":"complete","type":"individual","measure":"https://madie.cms.gov/Measure/CMS71FHIRSTKAnticoagAFFlutter","period":{"start":"2026-01-01","end":"2026-12-31"},"group":[{"population":[{"code":{"coding":[{"system":"http://terminology.hl7.org/CodeSystem/measure-population","code":"initial-population","display":"Initial Population"}]},"count":1},{"code":{"coding":[{"system":"http://terminology.hl7.org/CodeSystem/measure-population","code":"denominator","display":"Denominator"}]},"count":1},{"code":{"coding":[{"system":"http://terminology.hl7.org/CodeSystem/measure-population","code":"denominator-exclusion","display":"Denominator Exclusion"}]},"count":0},{"code":{"coding":[{"system":"http://terminology.hl7.org/CodeSystem/measure-population","code":"numerator","display":"Numerator"}]},"count":0},{"code":{"coding":[{"system":"http://terminology.hl7.org/CodeSystem/measure-population","code":"denominator-exception","display":"Denominator Exception"}]},"count":0}]}]},"request":{"method":"PUT","url":"MeasureReport/9bad3d08-ae45-4614-9cd7-224588c7a82e"}}]}