{"resourceType":"Bundle","id":"tests-cec2b099-7f6d-4260-a2f8-bc0ed0b9c3e5-bundle","type":"transaction","entry":[{"fullUrl":"https://madie.cms.gov/Patient/cec2b099-7f6d-4260-a2f8-bc0ed0b9c3e5","resource":{"resourceType":"Patient","id":"cec2b099-7f6d-4260-a2f8-bc0ed0b9c3e5","meta":{"profile":["http://hl7.org/fhir/us/qicore/StructureDefinition/qicore-patient"]},"text":{"status":"generated","div":"<div xmlns=\"http://www.w3.org/1999/xhtml\"><div class=\"hapiHeaderText\">NoDCstatus <b>DENEXFAIL </b></div><table class=\"hapiPropertyTable\"><tbody><tr><td>Identifier</td><td>a1386c36da1b287caf9fd1b8d75c10d3</td></tr><tr><td>Date of birth</td><td><span>31 July 1969</span></td></tr></tbody></table></div>"},"extension":[{"url":"http://hl7.org/fhir/us/core/StructureDefinition/us-core-race","extension":[{"url":"ombCategory","valueCoding":{"system":"urn:oid:2.16.840.1.113883.6.238","code":"1002-5","display":"American Indian or Alaska Native","userSelected":true}},{"url":"text","valueString":"American Indian or Alaska Native"}]},{"url":"http://hl7.org/fhir/us/core/StructureDefinition/us-core-ethnicity","extension":[{"url":"ombCategory","valueCoding":{"system":"urn:oid:2.16.840.1.113883.6.238","code":"2135-2","display":"Hispanic or Latino","userSelected":true}},{"url":"text","valueString":"Hispanic or Latino"}]}],"identifier":[{"type":{"coding":[{"system":"http://terminology.hl7.org/CodeSystem/v2-0203","code":"MR"}]},"system":"https://bonnie-fhir.healthit.gov/","value":"633c9d020968f8012250fc67"}],"active":true,"name":[{"use":"usual","family":"DENEXFail","given":["NoDCstatus"]}],"gender":"male","birthDate":"1970-07-31"},"request":{"method":"PUT","url":"Patient/cec2b099-7f6d-4260-a2f8-bc0ed0b9c3e5"}},{"fullUrl":"https://madie.cms.gov/Encounter/5fb2f4c9-2be7-4769-8718-b3035a2549d9","resource":{"resourceType":"Encounter","id":"5fb2f4c9-2be7-4769-8718-b3035a2549d9","meta":{"profile":["http://hl7.org/fhir/us/qicore/StructureDefinition/qicore-encounter"]},"status":"finished","class":{"system":"http://terminology.hl7.org/CodeSystem/v3-ActCode","code":"EMER","display":"emergency"},"type":[{"coding":[{"system":"http://snomed.info/sct","code":"4525004"}]}],"subject":{"reference":"Patient/cec2b099-7f6d-4260-a2f8-bc0ed0b9c3e5"},"period":{"start":"2026-11-20T07:00:00.000Z","end":"2026-11-20T07:45:00.000Z"},"length":{"value":0,"unit":"days"}},"request":{"method":"PUT","url":"Encounter/5fb2f4c9-2be7-4769-8718-b3035a2549d9"}},{"fullUrl":"https://madie.cms.gov/Encounter/df4e6bbf-a8ad-4620-a5a0-75a8a1985214","resource":{"resourceType":"Encounter","id":"df4e6bbf-a8ad-4620-a5a0-75a8a1985214","meta":{"profile":["http://hl7.org/fhir/us/qicore/StructureDefinition/qicore-encounter"]},"status":"finished","class":{"system":"http://terminology.hl7.org/CodeSystem/v3-ActCode","code":"IMP","display":"inpatient encounter"},"type":[{"coding":[{"system":"http://snomed.info/sct","code":"32485007"}]}],"subject":{"reference":"Patient/cec2b099-7f6d-4260-a2f8-bc0ed0b9c3e5"},"period":{"start":"2026-11-20T08:00:00.000Z","end":"2026-11-24T08:15:00.000Z"},"length":{"value":4,"unit":"days"},"diagnosis":[{"condition":{"reference":"Condition/6c707b14-a153-49de-b60f-745c18f4aea9"},"use":{"coding":[{"system":"http://terminology.hl7.org/CodeSystem/diagnosis-role","code":"billing","display":"Billing"}]},"rank":1}]},"request":{"method":"PUT","url":"Encounter/df4e6bbf-a8ad-4620-a5a0-75a8a1985214"}},{"fullUrl":"https://madie.cms.gov/Coverage/1ddefff5-9d32-4564-8ee8-398a9c5fa576","resource":{"resourceType":"Coverage","id":"1ddefff5-9d32-4564-8ee8-398a9c5fa576","status":"active","beneficiary":{"reference":"Patient/cec2b099-7f6d-4260-a2f8-bc0ed0b9c3e5"},"period":{"start":"1970-07-31T08:00:00.000Z"},"payor":[{"reference":"Organization/890316dc-a4ad-43b4-ba6f-9fb9e6eca282"}]},"request":{"method":"PUT","url":"Coverage/1ddefff5-9d32-4564-8ee8-398a9c5fa576"}},{"fullUrl":"https://madie.cms.gov/Procedure/84c60b83-9ac7-490d-b299-22a5c6f7279c","resource":{"resourceType":"Procedure","id":"84c60b83-9ac7-490d-b299-22a5c6f7279c","meta":{"profile":["http://hl7.org/fhir/us/qicore/StructureDefinition/qicore-procedure"]},"extension":[{"url":"http://hl7.org/fhir/us/qicore/StructureDefinition/qicore-recorded","valueDateTime":"2026-11-19T09:35:00-04:00"}],"status":"completed","code":{"coding":[{"system":"http://www.cms.gov/Medicare/Coding/ICD10","code":"02560ZZ"},{"system":"http://snomed.info/sct","code":"175095005"}]},"subject":{"reference":"Patient/cec2b099-7f6d-4260-a2f8-bc0ed0b9c3e5"},"performedPeriod":{"start":"2026-11-19T08:00:00.000Z","end":"2026-11-20T08:15:00.000Z"}},"request":{"method":"PUT","url":"Procedure/84c60b83-9ac7-490d-b299-22a5c6f7279c"}},{"fullUrl":"https://madie.cms.gov/Condition/6c707b14-a153-49de-b60f-745c18f4aea9","resource":{"resourceType":"Condition","id":"6c707b14-a153-49de-b60f-745c18f4aea9","meta":{"profile":["http://hl7.org/fhir/us/qicore/StructureDefinition/qicore-condition"]},"clinicalStatus":{"coding":[{"system":"http://terminology.hl7.org/CodeSystem/condition-clinical","code":"active"}]},"verificationStatus":{"coding":[{"system":"http://terminology.hl7.org/CodeSystem/condition-ver-status","code":"confirmed"}]},"category":[{"coding":[{"system":"http://terminology.hl7.org/CodeSystem/condition-category","code":"encounter-diagnosis","display":"Encounter Diagnosis"}]}],"code":{"coding":[{"system":"http://snomed.info/sct","version":"2021-09","code":"111297002","display":"Nonparalytic stroke (disorder)","userSelected":true}]},"subject":{"reference":"Patient/cec2b099-7f6d-4260-a2f8-bc0ed0b9c3e5"},"recordedDate":"2026-10-13T08:00:00.000+00:00"},"request":{"method":"PUT","url":"Condition/6c707b14-a153-49de-b60f-745c18f4aea9"}},{"fullUrl":"https://madie.cms.gov/Organization/f0f90b1c-238f-46ab-ac52-f2300b8ce5fd","resource":{"resourceType":"Organization","id":"890316dc-a4ad-43b4-ba6f-9fb9e6eca282","meta":{"profile":["http://hl7.org/fhir/us/qicore/StructureDefinition/qicore-organization"]},"identifier":[{"use":"temp","system":"urn:oid:2.16.840.1.113883.4.4","value":"21-3259825"}],"active":true,"type":[{"coding":[{"system":"http://terminology.hl7.org/CodeSystem/organization-type","code":"pay","display":"Payer"}]}],"name":"Blue Cross Blue Shield of Texas","telecom":[{"system":"phone","value":"(+1) 972-766-6900"}],"address":[{"use":"billing","type":"postal","line":["P.O. Box 660044"],"city":"Dallas","state":"TX","postalCode":"75266-0044","country":"USA"}]},"request":{"method":"PUT","url":"Organization/890316dc-a4ad-43b4-ba6f-9fb9e6eca282"}},{"fullUrl":"https://madie.cms.gov/Practitioner/2513c061-bcb5-48bb-8bcb-bef22bd73b4e","resource":{"resourceType":"Practitioner","id":"2513c061-bcb5-48bb-8bcb-bef22bd73b4e","identifier":[{"system":"http://hl7.org/fhir/sid/us-npi","value":"123456"}],"name":[{"family":"Evil","prefix":["Dr"]}]},"request":{"method":"PUT","url":"Practitioner/2513c061-bcb5-48bb-8bcb-bef22bd73b4e"}},{"fullUrl":"https://madie.cms.gov/MeasureReport/0bcc109d-5844-4adb-a93f-5d0202e6dc72","resource":{"resourceType":"MeasureReport","id":"0bcc109d-5844-4adb-a93f-5d0202e6dc72","meta":{"profile":["http://hl7.org/fhir/us/cqfmeasures/StructureDefinition/test-case-cqfm"]},"contained":[{"resourceType":"Parameters","id":"6d364453-3bcb-4095-8222-49eda681fabb-parameters","parameter":[{"name":"subject","valueString":"cec2b099-7f6d-4260-a2f8-bc0ed0b9c3e5"}]}],"extension":[{"url":"http://hl7.org/fhir/us/cqfmeasures/StructureDefinition/cqfm-inputParameters","valueReference":{"reference":"#6d364453-3bcb-4095-8222-49eda681fabb-parameters"}},{"url":"http://hl7.org/fhir/us/cqfmeasures/StructureDefinition/cqfm-testCaseDescription","valueMarkdown":"No discharge status indicated. Testing DENEX logic (intentional fail). \n"}],"modifierExtension":[{"url":"http://hl7.org/fhir/us/cqfmeasures/StructureDefinition/cqfm-isTestCase","valueBoolean":true}],"status":"complete","type":"individual","measure":"https://madie.cms.gov/Measure/CMS71FHIRSTKAnticoagAFFlutter","period":{"start":"2026-01-01","end":"2026-12-31"},"group":[{"population":[{"code":{"coding":[{"system":"http://terminology.hl7.org/CodeSystem/measure-population","code":"initial-population","display":"Initial Population"}]},"count":1},{"code":{"coding":[{"system":"http://terminology.hl7.org/CodeSystem/measure-population","code":"denominator","display":"Denominator"}]},"count":1},{"code":{"coding":[{"system":"http://terminology.hl7.org/CodeSystem/measure-population","code":"denominator-exclusion","display":"Denominator Exclusion"}]},"count":0},{"code":{"coding":[{"system":"http://terminology.hl7.org/CodeSystem/measure-population","code":"numerator","display":"Numerator"}]},"count":0},{"code":{"coding":[{"system":"http://terminology.hl7.org/CodeSystem/measure-population","code":"denominator-exception","display":"Denominator Exception"}]},"count":0}]}]},"request":{"method":"PUT","url":"MeasureReport/0bcc109d-5844-4adb-a93f-5d0202e6dc72"}}]}