{"resourceType":"Bundle","id":"tests-a0d01348-6938-4d7b-8f26-d4643658de9e-bundle","type":"transaction","entry":[{"fullUrl":"https://madie.cms.gov/Patient/a0d01348-6938-4d7b-8f26-d4643658de9e","resource":{"resourceType":"Patient","id":"a0d01348-6938-4d7b-8f26-d4643658de9e","meta":{"profile":["http://hl7.org/fhir/us/qicore/StructureDefinition/qicore-patient"]},"text":{"status":"generated","div":"<div xmlns=\"http://www.w3.org/1999/xhtml\"><div class=\"hapiHeaderText\">MedReasonAfterEncEnds <b>DENEXCEPFAIL </b></div><table class=\"hapiPropertyTable\"><tbody><tr><td>Identifier</td><td>a27264b3fcf4a03cc045af78abe18ccf</td></tr><tr><td>Date of birth</td><td><span>23 May 1954</span></td></tr></tbody></table></div>"},"extension":[{"url":"http://hl7.org/fhir/us/core/StructureDefinition/us-core-race","extension":[{"url":"ombCategory","valueCoding":{"system":"urn:oid:2.16.840.1.113883.6.238","code":"1002-5","display":"American Indian or Alaska Native","userSelected":true}},{"url":"detailed","valueCoding":{"system":"urn:oid:2.16.840.1.113883.6.238","code":"2036-2","display":"Filipino"}},{"url":"text","valueString":"American Indian or Alaska Native"}]},{"url":"http://hl7.org/fhir/us/core/StructureDefinition/us-core-ethnicity","extension":[{"url":"ombCategory","valueCoding":{"system":"urn:oid:2.16.840.1.113883.6.238","code":"2135-2","display":"Hispanic or Latino","userSelected":true}},{"url":"text","valueString":"Hispanic or Latino"},{"url":"detailed","valueCoding":{"system":"urn:oid:2.16.840.1.113883.6.238","code":"2153-5","display":"Mexican American Indian"}}]}],"identifier":[{"type":{"coding":[{"system":"http://terminology.hl7.org/CodeSystem/v2-0203","code":"MR"}]},"system":"https://bonnie-fhir.healthit.gov/","value":"633c9d030968f8012250fc8f"}],"active":true,"name":[{"use":"usual","family":"DENEXCEPFail","given":["MedReasonAfterEncEnds"]}],"gender":"female","birthDate":"1955-05-23"},"request":{"method":"PUT","url":"Patient/a0d01348-6938-4d7b-8f26-d4643658de9e"}},{"fullUrl":"https://madie.cms.gov/Encounter/33eb2807-bce4-46f4-876f-3d6befdeac80","resource":{"resourceType":"Encounter","id":"33eb2807-bce4-46f4-876f-3d6befdeac80","meta":{"profile":["http://hl7.org/fhir/us/qicore/StructureDefinition/qicore-encounter"]},"status":"finished","class":{"system":"http://terminology.hl7.org/CodeSystem/v3-ActCode","code":"IMP","display":"inpatient encounter"},"type":[{"coding":[{"system":"http://snomed.info/sct","code":"32485007"}]}],"subject":{"reference":"Patient/a0d01348-6938-4d7b-8f26-d4643658de9e"},"period":{"start":"2026-11-20T07:16:00.000Z","end":"2026-11-24T08:15:00.000Z"},"length":{"value":4,"unit":"days"},"diagnosis":[{"condition":{"reference":"Condition/4f59a810-35db-48fa-a574-52d230282fec"},"use":{"coding":[{"system":"http://terminology.hl7.org/CodeSystem/diagnosis-role","code":"billing","display":"Billing"}]},"rank":1}]},"request":{"method":"PUT","url":"Encounter/33eb2807-bce4-46f4-876f-3d6befdeac80"}},{"fullUrl":"https://madie.cms.gov/MedicationRequest/7b4630ae-0de3-45dc-9dd2-2a736f5414d9","resource":{"resourceType":"MedicationRequest","id":"7b4630ae-0de3-45dc-9dd2-2a736f5414d9","meta":{"profile":["http://hl7.org/fhir/us/qicore/StructureDefinition/qicore-mednotrequested"]},"status":"completed","intent":"order","category":[{"coding":[{"system":"http://terminology.hl7.org/CodeSystem/medicationrequest-category","code":"community"}]}],"doNotPerform":true,"medicationCodeableConcept":{"coding":[{"system":"http://www.nlm.nih.gov/research/umls/rxnorm","code":"1037045"}]},"subject":{"reference":"Patient/a0d01348-6938-4d7b-8f26-d4643658de9e"},"authoredOn":"2026-11-24T08:16:00.000+00:00","requester":{"reference":"Practitioner/example"},"reasonCode":[{"coding":[{"system":"http://snomed.info/sct","code":"183932001"}]}]},"request":{"method":"PUT","url":"MedicationRequest/7b4630ae-0de3-45dc-9dd2-2a736f5414d9"}},{"fullUrl":"https://madie.cms.gov/Coverage/5508670c-e30a-41fb-abcf-8a9a4be82a1d","resource":{"resourceType":"Coverage","id":"5508670c-e30a-41fb-abcf-8a9a4be82a1d","status":"active","beneficiary":{"reference":"Patient/a0d01348-6938-4d7b-8f26-d4643658de9e"},"period":{"start":"1955-05-23T08:00:00.000Z"},"payor":[{"reference":"Organization/80e3e0d1-b2aa-43a6-b1d2-00bfa3164a0f"}]},"request":{"method":"PUT","url":"Coverage/5508670c-e30a-41fb-abcf-8a9a4be82a1d"}},{"fullUrl":"https://madie.cms.gov/Procedure/e0e8ffdb-939e-4bcd-abcd-447f0241e4a5","resource":{"resourceType":"Procedure","id":"e0e8ffdb-939e-4bcd-abcd-447f0241e4a5","meta":{"profile":["http://hl7.org/fhir/us/qicore/StructureDefinition/qicore-procedure"]},"extension":[{"url":"http://hl7.org/fhir/us/qicore/StructureDefinition/qicore-recorded","valueDateTime":"2014-04-05T09:35:00-04:00"}],"status":"completed","code":{"coding":[{"system":"http://www.cms.gov/Medicare/Coding/ICD10","code":"02560ZZ"},{"system":"http://snomed.info/sct","code":"175095005"}]},"subject":{"reference":"Patient/a0d01348-6938-4d7b-8f26-d4643658de9e"},"performedPeriod":{"start":"2026-11-20T07:15:00.000Z","end":"2026-11-20T07:16:00.000Z"}},"request":{"method":"PUT","url":"Procedure/e0e8ffdb-939e-4bcd-abcd-447f0241e4a5"}},{"fullUrl":"https://madie.cms.gov/Condition/4f59a810-35db-48fa-a574-52d230282fec","resource":{"resourceType":"Condition","id":"4f59a810-35db-48fa-a574-52d230282fec","meta":{"profile":["http://hl7.org/fhir/us/qicore/StructureDefinition/qicore-condition"]},"clinicalStatus":{"coding":[{"system":"http://terminology.hl7.org/CodeSystem/condition-clinical","code":"active"}]},"verificationStatus":{"coding":[{"system":"http://terminology.hl7.org/CodeSystem/condition-ver-status","code":"confirmed"}]},"category":[{"coding":[{"system":"http://terminology.hl7.org/CodeSystem/condition-category","code":"encounter-diagnosis","display":"Encounter Diagnosis"}]}],"code":{"coding":[{"system":"http://snomed.info/sct","version":"2021-09","code":"111297002","display":"Nonparalytic stroke (disorder)","userSelected":true}]},"subject":{"reference":"Patient/a0d01348-6938-4d7b-8f26-d4643658de9e"},"recordedDate":"2026-10-13T08:00:00.000+00:00"},"request":{"method":"PUT","url":"Condition/4f59a810-35db-48fa-a574-52d230282fec"}},{"fullUrl":"https://madie.cms.gov/Organization/1bfbbbfc-e17d-4720-ac26-53dfc65339af","resource":{"resourceType":"Organization","id":"80e3e0d1-b2aa-43a6-b1d2-00bfa3164a0f","meta":{"profile":["http://hl7.org/fhir/us/qicore/StructureDefinition/qicore-organization"]},"identifier":[{"use":"temp","system":"urn:oid:2.16.840.1.113883.4.4","value":"21-3259825"}],"active":true,"type":[{"coding":[{"system":"http://terminology.hl7.org/CodeSystem/organization-type","code":"pay","display":"Payer"}]}],"name":"Blue Cross Blue Shield of Texas","telecom":[{"system":"phone","value":"(+1) 972-766-6900"}],"address":[{"use":"billing","type":"postal","line":["P.O. Box 660044"],"city":"Dallas","state":"TX","postalCode":"75266-0044","country":"USA"}]},"request":{"method":"PUT","url":"Organization/80e3e0d1-b2aa-43a6-b1d2-00bfa3164a0f"}},{"fullUrl":"https://madie.cms.gov/MeasureReport/4db56b98-4f96-4fef-ae2e-22b83dee509a","resource":{"resourceType":"MeasureReport","id":"4db56b98-4f96-4fef-ae2e-22b83dee509a","meta":{"profile":["http://hl7.org/fhir/us/cqfmeasures/StructureDefinition/test-case-cqfm"]},"contained":[{"resourceType":"Parameters","id":"c32b70c8-661f-42c4-b8ce-3158dd4ce75c-parameters","parameter":[{"name":"subject","valueString":"a0d01348-6938-4d7b-8f26-d4643658de9e"}]}],"extension":[{"url":"http://hl7.org/fhir/us/cqfmeasures/StructureDefinition/cqfm-inputParameters","valueReference":{"reference":"#c32b70c8-661f-42c4-b8ce-3158dd4ce75c-parameters"}},{"url":"http://hl7.org/fhir/us/cqfmeasures/StructureDefinition/cqfm-testCaseDescription","valueMarkdown":"Patient did not receive anticoagulant on dc due to medical reason, but start date is after end of encounter.\n"}],"modifierExtension":[{"url":"http://hl7.org/fhir/us/cqfmeasures/StructureDefinition/cqfm-isTestCase","valueBoolean":true}],"status":"complete","type":"individual","measure":"https://madie.cms.gov/Measure/CMS71FHIRSTKAnticoagAFFlutter","period":{"start":"2026-01-01","end":"2026-12-31"},"group":[{"population":[{"code":{"coding":[{"system":"http://terminology.hl7.org/CodeSystem/measure-population","code":"initial-population","display":"Initial Population"}]},"count":1},{"code":{"coding":[{"system":"http://terminology.hl7.org/CodeSystem/measure-population","code":"denominator","display":"Denominator"}]},"count":1},{"code":{"coding":[{"system":"http://terminology.hl7.org/CodeSystem/measure-population","code":"denominator-exclusion","display":"Denominator Exclusion"}]},"count":0},{"code":{"coding":[{"system":"http://terminology.hl7.org/CodeSystem/measure-population","code":"numerator","display":"Numerator"}]},"count":0},{"code":{"coding":[{"system":"http://terminology.hl7.org/CodeSystem/measure-population","code":"denominator-exception","display":"Denominator Exception"}]},"count":0}]}]},"request":{"method":"PUT","url":"MeasureReport/4db56b98-4f96-4fef-ae2e-22b83dee509a"}}]}