{"resourceType":"Bundle","id":"tests-2c1e6f23-20a1-44c3-8c2a-0bec67c3d2f5-bundle","type":"transaction","entry":[{"fullUrl":"https://madie.cms.gov/Patient/2c1e6f23-20a1-44c3-8c2a-0bec67c3d2f5","resource":{"resourceType":"Patient","id":"2c1e6f23-20a1-44c3-8c2a-0bec67c3d2f5","meta":{"profile":["http://hl7.org/fhir/us/qicore/StructureDefinition/qicore-patient"]},"text":{"status":"generated","div":"<div xmlns=\"http://www.w3.org/1999/xhtml\"><div class=\"hapiHeaderText\">EncPrinDx=IschemicStroke <b>IPPPASS </b></div><table class=\"hapiPropertyTable\"><tbody><tr><td>Identifier</td><td>e24e934ef2385ddb5e9ee5c55913bf5e</td></tr><tr><td>Date of birth</td><td><span>01 December 1960</span></td></tr></tbody></table></div>"},"extension":[{"url":"http://hl7.org/fhir/us/core/StructureDefinition/us-core-race","extension":[{"url":"ombCategory","valueCoding":{"system":"urn:oid:2.16.840.1.113883.6.238","code":"1002-5","display":"American Indian or Alaska Native","userSelected":true}},{"url":"text","valueString":"American Indian or Alaska Native"}]},{"url":"http://hl7.org/fhir/us/core/StructureDefinition/us-core-ethnicity","extension":[{"url":"ombCategory","valueCoding":{"system":"urn:oid:2.16.840.1.113883.6.238","code":"2135-2","display":"Hispanic or Latino","userSelected":true}},{"url":"text","valueString":"Hispanic or Latino"}]}],"identifier":[{"type":{"coding":[{"system":"http://terminology.hl7.org/CodeSystem/v2-0203","code":"MR"}]},"system":"https://bonnie-fhir.healthit.gov/","value":"633c9d030968f8012250fc6b"}],"active":true,"name":[{"use":"usual","family":"IPPPass ","given":["EncPrinDx=IschemicStroke"]}],"gender":"male","birthDate":"1961-12-01"},"request":{"method":"PUT","url":"Patient/2c1e6f23-20a1-44c3-8c2a-0bec67c3d2f5"}},{"fullUrl":"https://madie.cms.gov/Encounter/d5eec8c1-5076-498e-8599-899e5eabe206","resource":{"resourceType":"Encounter","id":"d5eec8c1-5076-498e-8599-899e5eabe206","meta":{"profile":["http://hl7.org/fhir/us/qicore/StructureDefinition/qicore-encounter"]},"status":"finished","class":{"system":"http://terminology.hl7.org/CodeSystem/v3-ActCode","code":"IMP","display":"inpatient encounter"},"type":[{"coding":[{"system":"http://snomed.info/sct","code":"32485007"}]}],"subject":{"reference":"Patient/2c1e6f23-20a1-44c3-8c2a-0bec67c3d2f5"},"period":{"start":"2026-02-08T08:00:00.000Z","end":"2026-02-10T08:15:00.000Z"},"length":{"value":2,"unit":"days"},"diagnosis":[{"condition":{"reference":"Condition/81f52f9c-09e1-4eab-9b6a-9821125039b6"},"use":{"coding":[{"system":"http://terminology.hl7.org/CodeSystem/diagnosis-role","code":"billing","display":"Billing"}]},"rank":1}]},"request":{"method":"PUT","url":"Encounter/d5eec8c1-5076-498e-8599-899e5eabe206"}},{"fullUrl":"https://madie.cms.gov/Coverage/8208d114-ed04-4bc6-86f3-032af8218913","resource":{"resourceType":"Coverage","id":"8208d114-ed04-4bc6-86f3-032af8218913","status":"active","beneficiary":{"reference":"Patient/2c1e6f23-20a1-44c3-8c2a-0bec67c3d2f5"},"period":{"start":"1961-12-01T08:00:00.000Z"},"payor":[{"reference":"Organization/f4907415-83c5-4eae-ab0b-cb63a840880d"}]},"request":{"method":"PUT","url":"Coverage/8208d114-ed04-4bc6-86f3-032af8218913"}},{"fullUrl":"https://madie.cms.gov/Condition/81f52f9c-09e1-4eab-9b6a-9821125039b6","resource":{"resourceType":"Condition","id":"81f52f9c-09e1-4eab-9b6a-9821125039b6","meta":{"profile":["http://hl7.org/fhir/us/qicore/StructureDefinition/qicore-condition"]},"clinicalStatus":{"coding":[{"system":"http://terminology.hl7.org/CodeSystem/condition-clinical","code":"active"}]},"verificationStatus":{"coding":[{"system":"http://terminology.hl7.org/CodeSystem/condition-ver-status","code":"confirmed"}]},"category":[{"coding":[{"system":"http://terminology.hl7.org/CodeSystem/condition-category","code":"encounter-diagnosis","display":"Encounter Diagnosis"}]}],"code":{"coding":[{"system":"http://snomed.info/sct","version":"2021-09","code":"111297002","display":"Nonparalytic stroke (disorder)","userSelected":true}]},"subject":{"reference":"Patient/2c1e6f23-20a1-44c3-8c2a-0bec67c3d2f5"},"recordedDate":"2026-10-13T08:00:00.000+00:00"},"request":{"method":"PUT","url":"Condition/81f52f9c-09e1-4eab-9b6a-9821125039b6"}},{"fullUrl":"https://madie.cms.gov/Organization/304c276a-631b-4a6b-8cba-2dba65d0c948","resource":{"resourceType":"Organization","id":"f4907415-83c5-4eae-ab0b-cb63a840880d","meta":{"profile":["http://hl7.org/fhir/us/qicore/StructureDefinition/qicore-organization"]},"identifier":[{"use":"temp","system":"urn:oid:2.16.840.1.113883.4.4","value":"21-3259825"}],"active":true,"type":[{"coding":[{"system":"http://terminology.hl7.org/CodeSystem/organization-type","code":"pay","display":"Payer"}]}],"name":"Blue Cross Blue Shield of Texas","telecom":[{"system":"phone","value":"(+1) 972-766-6900"}],"address":[{"use":"billing","type":"postal","line":["P.O. Box 660044"],"city":"Dallas","state":"TX","postalCode":"75266-0044","country":"USA"}]},"request":{"method":"PUT","url":"Organization/f4907415-83c5-4eae-ab0b-cb63a840880d"}},{"fullUrl":"https://madie.cms.gov/Practitioner/df179359-43d2-453b-88b5-6729ba4bcee2","resource":{"resourceType":"Practitioner","id":"df179359-43d2-453b-88b5-6729ba4bcee2","identifier":[{"system":"http://hl7.org/fhir/sid/us-npi","value":"123456"}],"name":[{"family":"Evil","prefix":["Dr"]}]},"request":{"method":"PUT","url":"Practitioner/df179359-43d2-453b-88b5-6729ba4bcee2"}},{"fullUrl":"https://madie.cms.gov/MeasureReport/16cf195b-ab5d-4281-b77b-fc9efc7bb19c","resource":{"resourceType":"MeasureReport","id":"16cf195b-ab5d-4281-b77b-fc9efc7bb19c","meta":{"profile":["http://hl7.org/fhir/us/cqfmeasures/StructureDefinition/test-case-cqfm"]},"contained":[{"resourceType":"Parameters","id":"18d3566f-0164-4ee5-b003-c7c4be0b5016-parameters","parameter":[{"name":"subject","valueString":"2c1e6f23-20a1-44c3-8c2a-0bec67c3d2f5"}]}],"extension":[{"url":"http://hl7.org/fhir/us/cqfmeasures/StructureDefinition/cqfm-inputParameters","valueReference":{"reference":"#18d3566f-0164-4ee5-b003-c7c4be0b5016-parameters"}},{"url":"http://hl7.org/fhir/us/cqfmeasures/StructureDefinition/cqfm-testCaseDescription","valueMarkdown":"Principal diagnosis = ischemic stroke, age GT 18\n"}],"modifierExtension":[{"url":"http://hl7.org/fhir/us/cqfmeasures/StructureDefinition/cqfm-isTestCase","valueBoolean":true}],"status":"complete","type":"individual","measure":"https://madie.cms.gov/Measure/CMS71FHIRSTKAnticoagAFFlutter","period":{"start":"2026-01-01","end":"2026-12-31"},"group":[{"population":[{"code":{"coding":[{"system":"http://terminology.hl7.org/CodeSystem/measure-population","code":"initial-population","display":"Initial Population"}]},"count":1},{"code":{"coding":[{"system":"http://terminology.hl7.org/CodeSystem/measure-population","code":"denominator","display":"Denominator"}]},"count":0},{"code":{"coding":[{"system":"http://terminology.hl7.org/CodeSystem/measure-population","code":"denominator-exclusion","display":"Denominator Exclusion"}]},"count":0},{"code":{"coding":[{"system":"http://terminology.hl7.org/CodeSystem/measure-population","code":"numerator","display":"Numerator"}]},"count":0},{"code":{"coding":[{"system":"http://terminology.hl7.org/CodeSystem/measure-population","code":"denominator-exception","display":"Denominator Exception"}]},"count":0}]}]},"request":{"method":"PUT","url":"MeasureReport/16cf195b-ab5d-4281-b77b-fc9efc7bb19c"}}]}