{"resourceType":"Bundle","id":"tests-29fd4e9e-7f7c-4356-8d72-7eabc8060963-bundle","type":"transaction","entry":[{"fullUrl":"https://madie.cms.gov/Patient/29fd4e9e-7f7c-4356-8d72-7eabc8060963","resource":{"resourceType":"Patient","id":"29fd4e9e-7f7c-4356-8d72-7eabc8060963","meta":{"profile":["http://hl7.org/fhir/us/qicore/StructureDefinition/qicore-patient"]},"text":{"status":"generated","div":"<div xmlns=\"http://www.w3.org/1999/xhtml\"><div class=\"hapiHeaderText\">Dx=Afib/flutterStart&gt;EncEnd <b>DENOMFAIL </b></div><table class=\"hapiPropertyTable\"><tbody><tr><td>Identifier</td><td>6b7cd5f3b5c915e66087549c0e58b13c</td></tr><tr><td>Date of birth</td><td><span>01 December 1960</span></td></tr></tbody></table></div>"},"extension":[{"url":"http://hl7.org/fhir/us/core/StructureDefinition/us-core-race","extension":[{"url":"ombCategory","valueCoding":{"system":"urn:oid:2.16.840.1.113883.6.238","code":"1002-5","display":"American Indian or Alaska Native","userSelected":true}},{"url":"text","valueString":"American Indian or Alaska Native"}]},{"url":"http://hl7.org/fhir/us/core/StructureDefinition/us-core-ethnicity","extension":[{"url":"ombCategory","valueCoding":{"system":"urn:oid:2.16.840.1.113883.6.238","code":"2135-2","display":"Hispanic or Latino","userSelected":true}},{"url":"text","valueString":"Hispanic or Latino"}]}],"identifier":[{"type":{"coding":[{"system":"http://terminology.hl7.org/CodeSystem/v2-0203","code":"MR"}]},"system":"https://bonnie-fhir.healthit.gov/","value":"633c9d030968f8012250fc9a"}],"active":true,"name":[{"use":"usual","family":"DENOMFail","given":["Dx=Afib/flutterStart>EncEnd"]}],"gender":"male","birthDate":"1961-12-01"},"request":{"method":"PUT","url":"Patient/29fd4e9e-7f7c-4356-8d72-7eabc8060963"}},{"fullUrl":"https://madie.cms.gov/Condition/af1f1286-8064-4dcd-a19f-185c574aee37","resource":{"resourceType":"Condition","id":"af1f1286-8064-4dcd-a19f-185c574aee37","meta":{"profile":["http://hl7.org/fhir/us/qicore/StructureDefinition/qicore-condition"]},"clinicalStatus":{"coding":[{"system":"http://terminology.hl7.org/CodeSystem/condition-clinical","code":"inactive"}]},"verificationStatus":{"coding":[{"system":"http://terminology.hl7.org/CodeSystem/condition-ver-status","code":"confirmed"}]},"category":[{"coding":[{"system":"http://terminology.hl7.org/CodeSystem/condition-category","code":"encounter-diagnosis","display":"Encounter Diagnosis"}]}],"code":{"coding":[{"system":"http://snomed.info/sct","code":"195080001"},{"system":"http://hl7.org/fhir/sid/icd-9-cm","code":"427.31"},{"system":"http://hl7.org/fhir/sid/icd-10-cm","code":"I48.0"}]},"subject":{"reference":"Patient/29fd4e9e-7f7c-4356-8d72-7eabc8060963"},"onsetDateTime":"2026-02-11T08:15:00.000Z","abatementDateTime":"2026-02-11T08:15:00.000Z"},"request":{"method":"PUT","url":"Condition/af1f1286-8064-4dcd-a19f-185c574aee37"}},{"fullUrl":"https://madie.cms.gov/Encounter/ae11b517-16a3-4f5e-9a00-9e3c0515db09","resource":{"resourceType":"Encounter","id":"ae11b517-16a3-4f5e-9a00-9e3c0515db09","meta":{"profile":["http://hl7.org/fhir/us/qicore/StructureDefinition/qicore-encounter"]},"status":"finished","class":{"system":"http://terminology.hl7.org/CodeSystem/v3-ActCode","code":"IMP","display":"inpatient encounter"},"type":[{"coding":[{"system":"http://snomed.info/sct","code":"183452005"}]}],"subject":{"reference":"Patient/29fd4e9e-7f7c-4356-8d72-7eabc8060963"},"period":{"start":"2026-02-08T08:00:00.000Z","end":"2026-02-10T08:15:00.000Z"},"length":{"value":2,"unit":"days"},"diagnosis":[{"condition":{"reference":"Condition/4196ebf9-dccd-41bc-a6d1-de806c551ffb"},"use":{"coding":[{"system":"http://terminology.hl7.org/CodeSystem/diagnosis-role","code":"billing","display":"Billing"}]},"rank":1}]},"request":{"method":"PUT","url":"Encounter/ae11b517-16a3-4f5e-9a00-9e3c0515db09"}},{"fullUrl":"https://madie.cms.gov/Coverage/a2b05383-97ee-48fa-b014-8d87b120d009","resource":{"resourceType":"Coverage","id":"a2b05383-97ee-48fa-b014-8d87b120d009","status":"active","beneficiary":{"reference":"Patient/29fd4e9e-7f7c-4356-8d72-7eabc8060963"},"period":{"start":"1961-12-01T08:00:00.000Z"},"payor":[{"reference":"Organization/f4907415-83c5-4eae-ab0b-cb63a840880d"}]},"request":{"method":"PUT","url":"Coverage/a2b05383-97ee-48fa-b014-8d87b120d009"}},{"fullUrl":"https://madie.cms.gov/Condition/4196ebf9-dccd-41bc-a6d1-de806c551ffb","resource":{"resourceType":"Condition","id":"4196ebf9-dccd-41bc-a6d1-de806c551ffb","meta":{"profile":["http://hl7.org/fhir/us/qicore/StructureDefinition/qicore-condition"]},"clinicalStatus":{"coding":[{"system":"http://terminology.hl7.org/CodeSystem/condition-clinical","code":"active"}]},"verificationStatus":{"coding":[{"system":"http://terminology.hl7.org/CodeSystem/condition-ver-status","code":"confirmed"}]},"category":[{"coding":[{"system":"http://terminology.hl7.org/CodeSystem/condition-category","code":"encounter-diagnosis","display":"Encounter Diagnosis"}]}],"code":{"coding":[{"system":"http://snomed.info/sct","version":"2021-09","code":"111297002","display":"Nonparalytic stroke (disorder)","userSelected":true}]},"subject":{"reference":"Patient/29fd4e9e-7f7c-4356-8d72-7eabc8060963"},"recordedDate":"2026-10-13T08:00:00.000+00:00"},"request":{"method":"PUT","url":"Condition/4196ebf9-dccd-41bc-a6d1-de806c551ffb"}},{"fullUrl":"https://madie.cms.gov/Organization/4cd210d6-2221-4ddd-9300-be368b99b57d","resource":{"resourceType":"Organization","id":"f4907415-83c5-4eae-ab0b-cb63a840880d","meta":{"profile":["http://hl7.org/fhir/us/qicore/StructureDefinition/qicore-organization"]},"identifier":[{"use":"temp","system":"urn:oid:2.16.840.1.113883.4.4","value":"21-3259825"}],"active":true,"type":[{"coding":[{"system":"http://terminology.hl7.org/CodeSystem/organization-type","code":"pay","display":"Payer"}]}],"name":"Blue Cross Blue Shield of Texas","telecom":[{"system":"phone","value":"(+1) 972-766-6900"}],"address":[{"use":"billing","type":"postal","line":["P.O. Box 660044"],"city":"Dallas","state":"TX","postalCode":"75266-0044","country":"USA"}]},"request":{"method":"PUT","url":"Organization/f4907415-83c5-4eae-ab0b-cb63a840880d"}},{"fullUrl":"https://madie.cms.gov/Practitioner/393b0727-7dea-4c86-813e-d1055319bcd2","resource":{"resourceType":"Practitioner","id":"393b0727-7dea-4c86-813e-d1055319bcd2","identifier":[{"system":"http://hl7.org/fhir/sid/us-npi","value":"123456"}],"name":[{"family":"Evil","prefix":["Dr"]}]},"request":{"method":"PUT","url":"Practitioner/393b0727-7dea-4c86-813e-d1055319bcd2"}},{"fullUrl":"https://madie.cms.gov/MeasureReport/417d18b6-174c-4873-81d3-45c3ff4e6eda","resource":{"resourceType":"MeasureReport","id":"417d18b6-174c-4873-81d3-45c3ff4e6eda","meta":{"profile":["http://hl7.org/fhir/us/cqfmeasures/StructureDefinition/test-case-cqfm"]},"contained":[{"resourceType":"Parameters","id":"cfce3efe-f356-4c34-91d5-9747a8004970-parameters","parameter":[{"name":"subject","valueString":"29fd4e9e-7f7c-4356-8d72-7eabc8060963"}]}],"extension":[{"url":"http://hl7.org/fhir/us/cqfmeasures/StructureDefinition/cqfm-inputParameters","valueReference":{"reference":"#cfce3efe-f356-4c34-91d5-9747a8004970-parameters"}},{"url":"http://hl7.org/fhir/us/cqfmeasures/StructureDefinition/cqfm-testCaseDescription","valueMarkdown":"\"Diagnosis = Afib/flutter start time > encounter end time\nThis case tests the denominator diagnosis criteria (does not meet criteria). \"\n"}],"modifierExtension":[{"url":"http://hl7.org/fhir/us/cqfmeasures/StructureDefinition/cqfm-isTestCase","valueBoolean":true}],"status":"complete","type":"individual","measure":"https://madie.cms.gov/Measure/CMS71FHIRSTKAnticoagAFFlutter","period":{"start":"2026-01-01","end":"2026-12-31"},"group":[{"population":[{"code":{"coding":[{"system":"http://terminology.hl7.org/CodeSystem/measure-population","code":"initial-population","display":"Initial Population"}]},"count":1},{"code":{"coding":[{"system":"http://terminology.hl7.org/CodeSystem/measure-population","code":"denominator","display":"Denominator"}]},"count":0},{"code":{"coding":[{"system":"http://terminology.hl7.org/CodeSystem/measure-population","code":"denominator-exclusion","display":"Denominator Exclusion"}]},"count":0},{"code":{"coding":[{"system":"http://terminology.hl7.org/CodeSystem/measure-population","code":"numerator","display":"Numerator"}]},"count":0},{"code":{"coding":[{"system":"http://terminology.hl7.org/CodeSystem/measure-population","code":"denominator-exception","display":"Denominator Exception"}]},"count":0}]}]},"request":{"method":"PUT","url":"MeasureReport/417d18b6-174c-4873-81d3-45c3ff4e6eda"}}]}