{"resourceType":"Bundle","id":"tests-d4ee0f25-8c45-4db4-8795-b7dbdbbc1ecd-bundle","type":"transaction","entry":[{"fullUrl":"https://madie.cms.gov/Patient/d4ee0f25-8c45-4db4-8795-b7dbdbbc1ecd","resource":{"resourceType":"Patient","id":"d4ee0f25-8c45-4db4-8795-b7dbdbbc1ecd","meta":{"profile":["http://hl7.org/fhir/us/qicore/StructureDefinition/qicore-patient"]},"text":{"status":"generated","div":"<div xmlns=\"http://www.w3.org/1999/xhtml\"><div class=\"hapiHeaderText\">CMOdurEnc_NoEDObs&lt;1hrBFEnc <b>DENEXPASS </b></div><table class=\"hapiPropertyTable\"><tbody><tr><td>Identifier</td><td>02b0ef2e973beaec0a8b1e55c0dadc67beed7a4482dce2ae4bf0963095b983fa</td></tr><tr><td>Date of birth</td><td><span>18 September 1985</span></td></tr></tbody></table></div>"},"extension":[{"url":"http://hl7.org/fhir/us/core/StructureDefinition/us-core-race","extension":[{"url":"ombCategory","valueCoding":{"system":"urn:oid:2.16.840.1.113883.6.238","code":"1002-5","display":"American Indian or Alaska Native","userSelected":true}},{"url":"text","valueString":"American Indian or Alaska Native"}]},{"url":"http://hl7.org/fhir/us/core/StructureDefinition/us-core-ethnicity","extension":[{"url":"ombCategory","valueCoding":{"system":"urn:oid:2.16.840.1.113883.6.238","code":"2135-2","display":"Hispanic or Latino","userSelected":true}},{"url":"text","valueString":"Hispanic or Latino"}]}],"identifier":[{"type":{"coding":[{"system":"http://terminology.hl7.org/CodeSystem/v2-0203","code":"MR"}]},"system":"https://bonnie-fhir.healthit.gov/","value":"633c9d040968f8012250fca0"}],"active":true,"name":[{"use":"usual","family":"DENEXPass","given":["CMOdurEnc_NoEDObs<1hrBFEnc"]}],"gender":"female","birthDate":"1986-09-18"},"request":{"method":"PUT","url":"Patient/d4ee0f25-8c45-4db4-8795-b7dbdbbc1ecd"}},{"fullUrl":"https://madie.cms.gov/Condition/563a4d55-df02-4acc-84dc-79e567905f0e","resource":{"resourceType":"Condition","id":"563a4d55-df02-4acc-84dc-79e567905f0e","meta":{"profile":["http://hl7.org/fhir/us/qicore/StructureDefinition/qicore-condition"]},"clinicalStatus":{"coding":[{"system":"http://terminology.hl7.org/CodeSystem/condition-clinical","code":"inactive"}]},"verificationStatus":{"coding":[{"system":"http://terminology.hl7.org/CodeSystem/condition-ver-status","code":"confirmed"}]},"category":[{"coding":[{"system":"http://terminology.hl7.org/CodeSystem/condition-category","code":"encounter-diagnosis","display":"Encounter Diagnosis"}]}],"code":{"coding":[{"system":"http://hl7.org/fhir/sid/icd-10-cm","code":"I48.20"},{"system":"http://hl7.org/fhir/sid/icd-10-cm","code":"I48.0"},{"system":"http://snomed.info/sct","code":"5370000"}]},"subject":{"reference":"Patient/d4ee0f25-8c45-4db4-8795-b7dbdbbc1ecd"},"onsetDateTime":"2026-02-11T08:00:00.000Z","abatementDateTime":"2026-02-11T08:15:00.000Z"},"request":{"method":"PUT","url":"Condition/563a4d55-df02-4acc-84dc-79e567905f0e"}},{"fullUrl":"https://madie.cms.gov/Condition/66428d92-21d2-4a16-b5fa-884ab1cd2b7a","resource":{"resourceType":"Condition","id":"66428d92-21d2-4a16-b5fa-884ab1cd2b7a","meta":{"profile":["http://hl7.org/fhir/us/qicore/StructureDefinition/qicore-condition"]},"clinicalStatus":{"coding":[{"system":"http://terminology.hl7.org/CodeSystem/condition-clinical","code":"inactive"}]},"verificationStatus":{"coding":[{"system":"http://terminology.hl7.org/CodeSystem/condition-ver-status","code":"confirmed"}]},"category":[{"coding":[{"system":"http://terminology.hl7.org/CodeSystem/condition-category","code":"encounter-diagnosis","display":"Encounter Diagnosis"}]}],"code":{"coding":[{"system":"http://hl7.org/fhir/sid/icd-10-cm","code":"I48.20"},{"system":"http://hl7.org/fhir/sid/icd-10-cm","code":"I48.0"},{"system":"http://snomed.info/sct","code":"5370000"}]},"subject":{"reference":"Patient/d4ee0f25-8c45-4db4-8795-b7dbdbbc1ecd"},"onsetDateTime":"2026-10-01T09:00:00.000Z","abatementDateTime":"2026-10-12T08:15:00.000Z"},"request":{"method":"PUT","url":"Condition/66428d92-21d2-4a16-b5fa-884ab1cd2b7a"}},{"fullUrl":"https://madie.cms.gov/Encounter/fea4e3a5-0cf4-49bb-bb30-7a5d934471d4","resource":{"resourceType":"Encounter","id":"fea4e3a5-0cf4-49bb-bb30-7a5d934471d4","meta":{"profile":["http://hl7.org/fhir/us/qicore/StructureDefinition/qicore-encounter"]},"status":"finished","class":{"system":"http://terminology.hl7.org/CodeSystem/v3-ActCode","code":"OBSENC","display":"observation encounter"},"type":[{"coding":[{"system":"http://snomed.info/sct","code":"448851000124103"}]}],"subject":{"reference":"Patient/d4ee0f25-8c45-4db4-8795-b7dbdbbc1ecd"},"period":{"start":"2026-10-01T06:00:00.000Z","end":"2026-10-01T09:59:00.000Z"},"length":{"value":0,"unit":"days"}},"request":{"method":"PUT","url":"Encounter/fea4e3a5-0cf4-49bb-bb30-7a5d934471d4"}},{"fullUrl":"https://madie.cms.gov/Encounter/7f85cb33-124a-4269-a922-8d2a6cb4b4f6","resource":{"resourceType":"Encounter","id":"7f85cb33-124a-4269-a922-8d2a6cb4b4f6","meta":{"profile":["http://hl7.org/fhir/us/qicore/StructureDefinition/qicore-encounter"]},"status":"finished","class":{"system":"http://terminology.hl7.org/CodeSystem/v3-ActCode","code":"IMP","display":"inpatient encounter"},"type":[{"coding":[{"system":"http://snomed.info/sct","code":"32485007"}]}],"subject":{"reference":"Patient/d4ee0f25-8c45-4db4-8795-b7dbdbbc1ecd"},"period":{"start":"2026-10-01T10:00:00.000Z","end":"2026-10-12T08:15:00.000Z"},"length":{"value":11,"unit":"days"},"diagnosis":[{"condition":{"reference":"Condition/5f33421c-8e60-423a-b548-170df93a5f61"},"use":{"coding":[{"system":"http://terminology.hl7.org/CodeSystem/diagnosis-role","code":"billing","display":"Billing"}]},"rank":1}]},"request":{"method":"PUT","url":"Encounter/7f85cb33-124a-4269-a922-8d2a6cb4b4f6"}},{"fullUrl":"https://madie.cms.gov/ServiceRequest/77388d86-8674-4b85-9bc6-a0e79c337d7a","resource":{"resourceType":"ServiceRequest","id":"77388d86-8674-4b85-9bc6-a0e79c337d7a","meta":{"profile":["http://hl7.org/fhir/us/qicore/StructureDefinition/qicore-servicerequest"]},"status":"active","intent":"order","code":{"coding":[{"system":"http://snomed.info/sct","code":"133918004"}]},"subject":{"reference":"Patient/d4ee0f25-8c45-4db4-8795-b7dbdbbc1ecd"},"authoredOn":"2026-10-03T00:00:00.000+00:00"},"request":{"method":"PUT","url":"ServiceRequest/77388d86-8674-4b85-9bc6-a0e79c337d7a"}},{"fullUrl":"https://madie.cms.gov/Coverage/a6ee0aee-fe8c-4797-a1bc-ad3892fd0924","resource":{"resourceType":"Coverage","id":"a6ee0aee-fe8c-4797-a1bc-ad3892fd0924","status":"active","beneficiary":{"reference":"Patient/d4ee0f25-8c45-4db4-8795-b7dbdbbc1ecd"},"period":{"start":"1986-09-18T08:00:00.000Z"},"payor":[{"reference":"Organization/aeb2c6be-6577-4bba-a6b6-6eab95111f1b"}]},"request":{"method":"PUT","url":"Coverage/a6ee0aee-fe8c-4797-a1bc-ad3892fd0924"}},{"fullUrl":"https://madie.cms.gov/Condition/5f33421c-8e60-423a-b548-170df93a5f61","resource":{"resourceType":"Condition","id":"5f33421c-8e60-423a-b548-170df93a5f61","meta":{"profile":["http://hl7.org/fhir/us/qicore/StructureDefinition/qicore-condition"]},"clinicalStatus":{"coding":[{"system":"http://terminology.hl7.org/CodeSystem/condition-clinical","code":"active"}]},"verificationStatus":{"coding":[{"system":"http://terminology.hl7.org/CodeSystem/condition-ver-status","code":"confirmed"}]},"category":[{"coding":[{"system":"http://terminology.hl7.org/CodeSystem/condition-category","code":"encounter-diagnosis","display":"Encounter Diagnosis"}]}],"code":{"coding":[{"system":"http://snomed.info/sct","version":"2021-09","code":"111297002","display":"Nonparalytic stroke (disorder)","userSelected":true}]},"subject":{"reference":"Patient/d4ee0f25-8c45-4db4-8795-b7dbdbbc1ecd"},"recordedDate":"2026-10-13T08:00:00.000+00:00"},"request":{"method":"PUT","url":"Condition/5f33421c-8e60-423a-b548-170df93a5f61"}},{"fullUrl":"https://madie.cms.gov/Organization/fa26e644-2bfc-469a-9127-25ecc5f00630","resource":{"resourceType":"Organization","id":"aeb2c6be-6577-4bba-a6b6-6eab95111f1b","meta":{"profile":["http://hl7.org/fhir/us/qicore/StructureDefinition/qicore-organization"]},"identifier":[{"use":"temp","system":"urn:oid:2.16.840.1.113883.4.4","value":"21-3259825"}],"active":true,"type":[{"coding":[{"system":"http://terminology.hl7.org/CodeSystem/organization-type","code":"pay","display":"Payer"}]}],"name":"Blue Cross Blue Shield of Texas","telecom":[{"system":"phone","value":"(+1) 972-766-6900"}],"address":[{"use":"billing","type":"postal","line":["P.O. Box 660044"],"city":"Dallas","state":"TX","postalCode":"75266-0044","country":"USA"}]},"request":{"method":"PUT","url":"Organization/aeb2c6be-6577-4bba-a6b6-6eab95111f1b"}},{"fullUrl":"https://madie.cms.gov/Practitioner/57d7a57b-e310-4a3b-aa88-82a3fcc7638e","resource":{"resourceType":"Practitioner","id":"57d7a57b-e310-4a3b-aa88-82a3fcc7638e","identifier":[{"system":"http://hl7.org/fhir/sid/us-npi","value":"123456"}],"name":[{"family":"Evil","prefix":["Dr"]}]},"request":{"method":"PUT","url":"Practitioner/57d7a57b-e310-4a3b-aa88-82a3fcc7638e"}},{"fullUrl":"https://madie.cms.gov/MeasureReport/5fe92b0a-15ce-4c85-9f55-0b0e45c2d31e","resource":{"resourceType":"MeasureReport","id":"5fe92b0a-15ce-4c85-9f55-0b0e45c2d31e","meta":{"profile":["http://hl7.org/fhir/us/cqfmeasures/StructureDefinition/test-case-cqfm"]},"contained":[{"resourceType":"Parameters","id":"64ca91cb-0fa5-4c87-a462-3b89d270146b-parameters","parameter":[{"name":"subject","valueString":"d4ee0f25-8c45-4db4-8795-b7dbdbbc1ecd"}]}],"extension":[{"url":"http://hl7.org/fhir/us/cqfmeasures/StructureDefinition/cqfm-inputParameters","valueReference":{"reference":"#64ca91cb-0fa5-4c87-a462-3b89d270146b-parameters"}},{"url":"http://hl7.org/fhir/us/cqfmeasures/StructureDefinition/cqfm-testCaseDescription","valueMarkdown":"Patient receives CMO during inpatient encounter No ED. Observation ends 1 minute before inpatient encounter start. Testing HospitalizationWithObservation function.\n"}],"modifierExtension":[{"url":"http://hl7.org/fhir/us/cqfmeasures/StructureDefinition/cqfm-isTestCase","valueBoolean":true}],"status":"complete","type":"individual","measure":"https://madie.cms.gov/Measure/CMS71FHIRSTKAnticoagAFFlutter","period":{"start":"2026-01-01","end":"2026-12-31"},"group":[{"population":[{"code":{"coding":[{"system":"http://terminology.hl7.org/CodeSystem/measure-population","code":"initial-population","display":"Initial Population"}]},"count":1},{"code":{"coding":[{"system":"http://terminology.hl7.org/CodeSystem/measure-population","code":"denominator","display":"Denominator"}]},"count":1},{"code":{"coding":[{"system":"http://terminology.hl7.org/CodeSystem/measure-population","code":"denominator-exclusion","display":"Denominator Exclusion"}]},"count":1},{"code":{"coding":[{"system":"http://terminology.hl7.org/CodeSystem/measure-population","code":"numerator","display":"Numerator"}]},"count":0},{"code":{"coding":[{"system":"http://terminology.hl7.org/CodeSystem/measure-population","code":"denominator-exception","display":"Denominator Exception"}]},"count":0}]}]},"request":{"method":"PUT","url":"MeasureReport/5fe92b0a-15ce-4c85-9f55-0b0e45c2d31e"}}]}