{"resourceType":"Bundle","id":"tests-a998e27f-e0a9-475d-80e8-0e9344591294-bundle","type":"transaction","entry":[{"fullUrl":"https://madie.cms.gov/Patient/a998e27f-e0a9-475d-80e8-0e9344591294","resource":{"resourceType":"Patient","id":"a998e27f-e0a9-475d-80e8-0e9344591294","meta":{"profile":["http://hl7.org/fhir/us/qicore/StructureDefinition/qicore-patient"]},"text":{"status":"generated","div":"<div xmlns=\"http://www.w3.org/1999/xhtml\"><div class=\"hapiHeaderText\">CMOdurED_ED=1hrNoObsBFEnc <b>DENEXPASS </b></div><table class=\"hapiPropertyTable\"><tbody><tr><td>Identifier</td><td>670854918483ca8b7894283bd5cddbcf5037c5392991b8777bf3c4f78ed05f0b</td></tr><tr><td>Date of birth</td><td><span>18 September 1985</span></td></tr></tbody></table></div>"},"extension":[{"url":"http://hl7.org/fhir/us/core/StructureDefinition/us-core-race","extension":[{"url":"ombCategory","valueCoding":{"system":"urn:oid:2.16.840.1.113883.6.238","code":"1002-5","display":"American Indian or Alaska Native","userSelected":true}},{"url":"text","valueString":"American Indian or Alaska Native"}]},{"url":"http://hl7.org/fhir/us/core/StructureDefinition/us-core-ethnicity","extension":[{"url":"ombCategory","valueCoding":{"system":"urn:oid:2.16.840.1.113883.6.238","code":"2135-2","display":"Hispanic or Latino","userSelected":true}},{"url":"text","valueString":"Hispanic or Latino"}]}],"identifier":[{"type":{"coding":[{"system":"http://terminology.hl7.org/CodeSystem/v2-0203","code":"MR"}]},"system":"https://bonnie-fhir.healthit.gov/","value":"633c9d040968f8012250fca3"}],"active":true,"name":[{"use":"usual","family":"DENEXFail","given":["CMOdurEDEDEQ1hrNoObsBFEncdoNotPerform"]}],"gender":"female","birthDate":"1986-09-18"},"request":{"method":"PUT","url":"Patient/a998e27f-e0a9-475d-80e8-0e9344591294"}},{"fullUrl":"https://madie.cms.gov/Condition/e81384fb-2ef0-490d-a0aa-b15c346d6bd1","resource":{"resourceType":"Condition","id":"e81384fb-2ef0-490d-a0aa-b15c346d6bd1","meta":{"profile":["http://hl7.org/fhir/us/qicore/StructureDefinition/qicore-condition"]},"clinicalStatus":{"coding":[{"system":"http://terminology.hl7.org/CodeSystem/condition-clinical","code":"inactive"}]},"verificationStatus":{"coding":[{"system":"http://terminology.hl7.org/CodeSystem/condition-ver-status","code":"confirmed"}]},"category":[{"coding":[{"system":"http://terminology.hl7.org/CodeSystem/condition-category","code":"encounter-diagnosis","display":"Encounter Diagnosis"}]}],"code":{"coding":[{"system":"http://hl7.org/fhir/sid/icd-10-cm","code":"I48.20"},{"system":"http://hl7.org/fhir/sid/icd-10-cm","code":"I48.0"},{"system":"http://snomed.info/sct","code":"5370000"}]},"subject":{"reference":"Patient/a998e27f-e0a9-475d-80e8-0e9344591294"},"onsetDateTime":"2026-10-01T09:01:00.000Z","abatementDateTime":"2026-10-12T00:15:00.000Z"},"request":{"method":"PUT","url":"Condition/e81384fb-2ef0-490d-a0aa-b15c346d6bd1"}},{"fullUrl":"https://madie.cms.gov/Encounter/bf8554b1-cb7a-449f-91e6-a5d89b1152e7","resource":{"resourceType":"Encounter","id":"bf8554b1-cb7a-449f-91e6-a5d89b1152e7","meta":{"profile":["http://hl7.org/fhir/us/qicore/StructureDefinition/qicore-encounter"]},"status":"finished","class":{"system":"http://terminology.hl7.org/CodeSystem/v3-ActCode","code":"EMER","display":"emergency"},"type":[{"coding":[{"system":"http://snomed.info/sct","code":"4525004"}]}],"subject":{"reference":"Patient/a998e27f-e0a9-475d-80e8-0e9344591294"},"period":{"start":"2026-10-01T09:01:00.000Z","end":"2026-10-01T12:15:00.000Z"},"length":{"value":0,"unit":"days"}},"request":{"method":"PUT","url":"Encounter/bf8554b1-cb7a-449f-91e6-a5d89b1152e7"}},{"fullUrl":"https://madie.cms.gov/Encounter/47057d97-a085-4a38-a643-3b3c1a743912","resource":{"resourceType":"Encounter","id":"47057d97-a085-4a38-a643-3b3c1a743912","meta":{"profile":["http://hl7.org/fhir/us/qicore/StructureDefinition/qicore-encounter"]},"status":"finished","class":{"system":"http://terminology.hl7.org/CodeSystem/v3-ActCode","code":"IMP","display":"inpatient encounter"},"type":[{"coding":[{"system":"http://snomed.info/sct","code":"32485007"}]}],"subject":{"reference":"Patient/a998e27f-e0a9-475d-80e8-0e9344591294"},"period":{"start":"2026-10-01T13:15:00.000Z","end":"2026-10-12T00:15:00.000Z"},"length":{"value":11,"unit":"days"},"diagnosis":[{"condition":{"reference":"Condition/56008d55-fac3-4e31-a0e4-71827da5efe0"},"use":{"coding":[{"system":"http://terminology.hl7.org/CodeSystem/diagnosis-role","code":"billing","display":"Billing"}]},"rank":1}]},"request":{"method":"PUT","url":"Encounter/47057d97-a085-4a38-a643-3b3c1a743912"}},{"fullUrl":"https://madie.cms.gov/ServiceRequest/8416ab29-8be7-4b72-8fa8-97c0f298468b","resource":{"resourceType":"ServiceRequest","id":"8416ab29-8be7-4b72-8fa8-97c0f298468b","meta":{"profile":["http://hl7.org/fhir/us/qicore/StructureDefinition/qicore-servicerequest"]},"status":"active","intent":"order","doNotPerform":false,"code":{"coding":[{"system":"http://snomed.info/sct","code":"133918004"}]},"subject":{"reference":"Patient/a998e27f-e0a9-475d-80e8-0e9344591294"},"authoredOn":"2026-10-01T09:15:00.000+00:00"},"request":{"method":"PUT","url":"ServiceRequest/8416ab29-8be7-4b72-8fa8-97c0f298468b"}},{"fullUrl":"https://madie.cms.gov/Coverage/59add6ba-b3d8-4cc8-94f1-0e5d39b30da1","resource":{"resourceType":"Coverage","id":"59add6ba-b3d8-4cc8-94f1-0e5d39b30da1","status":"active","beneficiary":{"reference":"Patient/a998e27f-e0a9-475d-80e8-0e9344591294"},"period":{"start":"1986-09-18T08:00:00.000Z"},"payor":[{"reference":"Organization/18ca435c-cae6-4c34-8033-af717477f9fc"}]},"request":{"method":"PUT","url":"Coverage/59add6ba-b3d8-4cc8-94f1-0e5d39b30da1"}},{"fullUrl":"https://madie.cms.gov/Condition/56008d55-fac3-4e31-a0e4-71827da5efe0","resource":{"resourceType":"Condition","id":"56008d55-fac3-4e31-a0e4-71827da5efe0","meta":{"profile":["http://hl7.org/fhir/us/qicore/StructureDefinition/qicore-condition"]},"clinicalStatus":{"coding":[{"system":"http://terminology.hl7.org/CodeSystem/condition-clinical","code":"active"}]},"verificationStatus":{"coding":[{"system":"http://terminology.hl7.org/CodeSystem/condition-ver-status","code":"confirmed"}]},"category":[{"coding":[{"system":"http://terminology.hl7.org/CodeSystem/condition-category","code":"encounter-diagnosis","display":"Encounter Diagnosis"}]}],"code":{"coding":[{"system":"http://snomed.info/sct","version":"2021-09","code":"111297002","display":"Nonparalytic stroke (disorder)","userSelected":true}]},"subject":{"reference":"Patient/a998e27f-e0a9-475d-80e8-0e9344591294"},"recordedDate":"2026-10-13T08:00:00.000+00:00"},"request":{"method":"PUT","url":"Condition/56008d55-fac3-4e31-a0e4-71827da5efe0"}},{"fullUrl":"https://madie.cms.gov/Organization/4dd5f00f-6343-4ed2-91d0-aaf4e0d6ed08","resource":{"resourceType":"Organization","id":"18ca435c-cae6-4c34-8033-af717477f9fc","meta":{"profile":["http://hl7.org/fhir/us/qicore/StructureDefinition/qicore-organization"]},"identifier":[{"use":"temp","system":"urn:oid:2.16.840.1.113883.4.4","value":"21-3259825"}],"active":true,"type":[{"coding":[{"system":"http://terminology.hl7.org/CodeSystem/organization-type","code":"pay","display":"Payer"}]}],"name":"Blue Cross Blue Shield of Texas","telecom":[{"system":"phone","value":"(+1) 972-766-6900"}],"address":[{"use":"billing","type":"postal","line":["P.O. Box 660044"],"city":"Dallas","state":"TX","postalCode":"75266-0044","country":"USA"}]},"request":{"method":"PUT","url":"Organization/18ca435c-cae6-4c34-8033-af717477f9fc"}},{"fullUrl":"https://madie.cms.gov/Practitioner/9f1648a4-282e-4f08-ab8f-3488350be16f","resource":{"resourceType":"Practitioner","id":"9f1648a4-282e-4f08-ab8f-3488350be16f","identifier":[{"system":"http://hl7.org/fhir/sid/us-npi","value":"123456"}],"name":[{"family":"Evil","prefix":["Dr"]}]},"request":{"method":"PUT","url":"Practitioner/9f1648a4-282e-4f08-ab8f-3488350be16f"}},{"fullUrl":"https://madie.cms.gov/MeasureReport/48693898-b0c9-4a00-99a5-1afad0f45460","resource":{"resourceType":"MeasureReport","id":"48693898-b0c9-4a00-99a5-1afad0f45460","meta":{"profile":["http://hl7.org/fhir/us/cqfmeasures/StructureDefinition/test-case-cqfm"]},"contained":[{"resourceType":"Parameters","id":"eb121d0c-668f-4100-96ae-fe6565008c9e-parameters","parameter":[{"name":"subject","valueString":"a998e27f-e0a9-475d-80e8-0e9344591294"}]}],"extension":[{"url":"http://hl7.org/fhir/us/cqfmeasures/StructureDefinition/cqfm-inputParameters","valueReference":{"reference":"#eb121d0c-668f-4100-96ae-fe6565008c9e-parameters"}},{"url":"http://hl7.org/fhir/us/cqfmeasures/StructureDefinition/cqfm-testCaseDescription","valueMarkdown":"Testing false donotperform CMO "}],"modifierExtension":[{"url":"http://hl7.org/fhir/us/cqfmeasures/StructureDefinition/cqfm-isTestCase","valueBoolean":true}],"status":"complete","type":"individual","measure":"https://madie.cms.gov/Measure/CMS71FHIRSTKAnticoagAFFlutter","period":{"start":"2026-01-01","end":"2026-12-31"},"group":[{"population":[{"code":{"coding":[{"system":"http://terminology.hl7.org/CodeSystem/measure-population","code":"initial-population","display":"Initial Population"}]},"count":1},{"code":{"coding":[{"system":"http://terminology.hl7.org/CodeSystem/measure-population","code":"denominator","display":"Denominator"}]},"count":1},{"code":{"coding":[{"system":"http://terminology.hl7.org/CodeSystem/measure-population","code":"denominator-exclusion","display":"Denominator Exclusion"}]},"count":1},{"code":{"coding":[{"system":"http://terminology.hl7.org/CodeSystem/measure-population","code":"numerator","display":"Numerator"}]},"count":0},{"code":{"coding":[{"system":"http://terminology.hl7.org/CodeSystem/measure-population","code":"denominator-exception","display":"Denominator Exception"}]},"count":0}]}]},"request":{"method":"PUT","url":"MeasureReport/48693898-b0c9-4a00-99a5-1afad0f45460"}}]}