{"resourceType":"Bundle","id":"tests-56ae006d-ab1b-428d-8614-2ccd5d962650-bundle","type":"transaction","entry":[{"fullUrl":"https://madie.cms.gov/Patient/56ae006d-ab1b-428d-8614-2ccd5d962650","resource":{"resourceType":"Patient","id":"56ae006d-ab1b-428d-8614-2ccd5d962650","meta":{"profile":["http://hl7.org/fhir/us/qicore/StructureDefinition/qicore-patient"]},"text":{"status":"generated","div":"<div xmlns=\"http://www.w3.org/1999/xhtml\"><div class=\"hapiHeaderText\">MedDCAnticoaStartTmEQEncAdmTm <b>NUMERPASS </b></div><table class=\"hapiPropertyTable\"><tbody><tr><td>Identifier</td><td>31fcea6cd6f0c1c8b9c40622729fede7</td></tr><tr><td>Date of birth</td><td><span>23 May 1954</span></td></tr></tbody></table></div>"},"extension":[{"url":"http://hl7.org/fhir/us/core/StructureDefinition/us-core-race","extension":[{"url":"ombCategory","valueCoding":{"system":"urn:oid:2.16.840.1.113883.6.238","code":"1002-5","display":"American Indian or Alaska Native","userSelected":true}},{"url":"text","valueString":"American Indian or Alaska Native"}]},{"url":"http://hl7.org/fhir/us/core/StructureDefinition/us-core-ethnicity","extension":[{"url":"ombCategory","valueCoding":{"system":"urn:oid:2.16.840.1.113883.6.238","code":"2135-2","display":"Hispanic or Latino","userSelected":true}},{"url":"text","valueString":"Hispanic or Latino"}]}],"identifier":[{"type":{"coding":[{"system":"http://terminology.hl7.org/CodeSystem/v2-0203","code":"MR"}]},"system":"https://bonnie-fhir.healthit.gov/","value":"633c9d030968f8012250fc93"}],"active":true,"name":[{"use":"usual","family":"NUMERPass","given":["MedDCAnticoaStartTmEQEncAdmTm"]}],"gender":"female","birthDate":"1955-05-23"},"request":{"method":"PUT","url":"Patient/56ae006d-ab1b-428d-8614-2ccd5d962650"}},{"fullUrl":"https://madie.cms.gov/Condition/97e274b9-de98-44a4-9396-ad276a441f76","resource":{"resourceType":"Condition","id":"97e274b9-de98-44a4-9396-ad276a441f76","meta":{"profile":["http://hl7.org/fhir/us/qicore/StructureDefinition/qicore-condition"]},"verificationStatus":{"coding":[{"system":"http://terminology.hl7.org/CodeSystem/condition-ver-status","code":"confirmed"}]},"category":[{"coding":[{"system":"http://terminology.hl7.org/CodeSystem/condition-category","code":"encounter-diagnosis","display":"Encounter Diagnosis"}]}],"code":{"coding":[{"system":"http://snomed.info/sct","code":"429508000"}]},"subject":{"reference":"Patient/56ae006d-ab1b-428d-8614-2ccd5d962650"},"onsetDateTime":"2026-11-18T06:00:00.000Z"},"request":{"method":"PUT","url":"Condition/97e274b9-de98-44a4-9396-ad276a441f76"}},{"fullUrl":"https://madie.cms.gov/Encounter/098f2b25-2fd6-4f70-ae93-26766cf661fd","resource":{"resourceType":"Encounter","id":"098f2b25-2fd6-4f70-ae93-26766cf661fd","meta":{"profile":["http://hl7.org/fhir/us/qicore/StructureDefinition/qicore-encounter"]},"status":"finished","class":{"system":"http://terminology.hl7.org/CodeSystem/v3-ActCode","code":"IMP","display":"inpatient encounter"},"type":[{"coding":[{"system":"http://snomed.info/sct","code":"32485007"}]}],"subject":{"reference":"Patient/56ae006d-ab1b-428d-8614-2ccd5d962650"},"period":{"start":"2026-11-20T08:00:00.000Z","end":"2026-11-24T08:15:00.000Z"},"length":{"value":4,"unit":"days"},"diagnosis":[{"condition":{"reference":"Condition/3952af64-439b-4bf4-a975-26fb0bcae3bb"},"use":{"coding":[{"system":"http://terminology.hl7.org/CodeSystem/diagnosis-role","code":"billing","display":"Billing"}]},"rank":1}]},"request":{"method":"PUT","url":"Encounter/098f2b25-2fd6-4f70-ae93-26766cf661fd"}},{"fullUrl":"https://madie.cms.gov/MedicationRequest/baad3749-320e-44ec-8687-f29885241771","resource":{"resourceType":"MedicationRequest","id":"baad3749-320e-44ec-8687-f29885241771","meta":{"profile":["http://hl7.org/fhir/us/qicore/StructureDefinition/qicore-medicationrequest"]},"status":"active","intent":"order","category":[{"coding":[{"system":"http://terminology.hl7.org/CodeSystem/medicationrequest-category","code":"community","display":"Community","userSelected":true}]}],"medicationCodeableConcept":{"coding":[{"system":"http://www.nlm.nih.gov/research/umls/rxnorm","code":"308351"}]},"subject":{"reference":"Patient/56ae006d-ab1b-428d-8614-2ccd5d962650"},"authoredOn":"2026-11-20T08:00:00.000+00:00","requester":{"reference":"Practitioner/example"}},"request":{"method":"PUT","url":"MedicationRequest/baad3749-320e-44ec-8687-f29885241771"}},{"fullUrl":"https://madie.cms.gov/Coverage/3e89e655-ddb4-4c51-9ae7-6f419fca5b9b","resource":{"resourceType":"Coverage","id":"3e89e655-ddb4-4c51-9ae7-6f419fca5b9b","status":"active","beneficiary":{"reference":"Patient/56ae006d-ab1b-428d-8614-2ccd5d962650"},"period":{"start":"1955-05-23T08:00:00.000Z"},"payor":[{"reference":"Organization/a6c3e6fa-301e-4714-9d04-3dde9a7e7c49"}]},"request":{"method":"PUT","url":"Coverage/3e89e655-ddb4-4c51-9ae7-6f419fca5b9b"}},{"fullUrl":"https://madie.cms.gov/Condition/3952af64-439b-4bf4-a975-26fb0bcae3bb","resource":{"resourceType":"Condition","id":"3952af64-439b-4bf4-a975-26fb0bcae3bb","meta":{"profile":["http://hl7.org/fhir/us/qicore/StructureDefinition/qicore-condition"]},"clinicalStatus":{"coding":[{"system":"http://terminology.hl7.org/CodeSystem/condition-clinical","code":"active"}]},"verificationStatus":{"coding":[{"system":"http://terminology.hl7.org/CodeSystem/condition-ver-status","code":"confirmed"}]},"category":[{"coding":[{"system":"http://terminology.hl7.org/CodeSystem/condition-category","code":"encounter-diagnosis","display":"Encounter Diagnosis"}]}],"code":{"coding":[{"system":"http://snomed.info/sct","version":"2021-09","code":"111297002","display":"Nonparalytic stroke (disorder)","userSelected":true}]},"subject":{"reference":"Patient/56ae006d-ab1b-428d-8614-2ccd5d962650"},"recordedDate":"2026-10-13T08:00:00.000+00:00"},"request":{"method":"PUT","url":"Condition/3952af64-439b-4bf4-a975-26fb0bcae3bb"}},{"fullUrl":"https://madie.cms.gov/Organization/6718330c-daf0-4f36-af6b-cbdbda17f0a7","resource":{"resourceType":"Organization","id":"a6c3e6fa-301e-4714-9d04-3dde9a7e7c49","meta":{"profile":["http://hl7.org/fhir/us/qicore/StructureDefinition/qicore-organization"]},"identifier":[{"use":"temp","system":"urn:oid:2.16.840.1.113883.4.4","value":"21-3259825"}],"active":true,"type":[{"coding":[{"system":"http://terminology.hl7.org/CodeSystem/organization-type","code":"pay","display":"Payer"}]}],"name":"Blue Cross Blue Shield of Texas","telecom":[{"system":"phone","value":"(+1) 972-766-6900"}],"address":[{"use":"billing","type":"postal","line":["P.O. Box 660044"],"city":"Dallas","state":"TX","postalCode":"75266-0044","country":"USA"}]},"request":{"method":"PUT","url":"Organization/a6c3e6fa-301e-4714-9d04-3dde9a7e7c49"}},{"fullUrl":"https://madie.cms.gov/Practitioner/d0aaeac0-3e2c-4865-a366-e249ee804395","resource":{"resourceType":"Practitioner","id":"d0aaeac0-3e2c-4865-a366-e249ee804395","identifier":[{"system":"http://hl7.org/fhir/sid/us-npi","value":"123456"}],"name":[{"family":"Evil","prefix":["Dr"]}]},"request":{"method":"PUT","url":"Practitioner/d0aaeac0-3e2c-4865-a366-e249ee804395"}},{"fullUrl":"https://madie.cms.gov/MeasureReport/c5d4815f-f1c9-40f9-8152-ecf806f6cc72","resource":{"resourceType":"MeasureReport","id":"c5d4815f-f1c9-40f9-8152-ecf806f6cc72","meta":{"profile":["http://hl7.org/fhir/us/cqfmeasures/StructureDefinition/test-case-cqfm"]},"contained":[{"resourceType":"Parameters","id":"afa6bbb5-3036-4b1b-9755-8b32b6bc70bc-parameters","parameter":[{"name":"subject","valueString":"56ae006d-ab1b-428d-8614-2ccd5d962650"}]}],"extension":[{"url":"http://hl7.org/fhir/us/cqfmeasures/StructureDefinition/cqfm-inputParameters","valueReference":{"reference":"#afa6bbb5-3036-4b1b-9755-8b32b6bc70bc-parameters"}},{"url":"http://hl7.org/fhir/us/cqfmeasures/StructureDefinition/cqfm-testCaseDescription","valueMarkdown":"Patient DC on Anticoagulant has a History of Atrial Ablation as confirmed"}],"modifierExtension":[{"url":"http://hl7.org/fhir/us/cqfmeasures/StructureDefinition/cqfm-isTestCase","valueBoolean":true}],"status":"complete","type":"individual","measure":"https://madie.cms.gov/Measure/CMS71FHIRSTKAnticoagAFFlutter","period":{"start":"2026-01-01","end":"2026-12-31"},"group":[{"population":[{"code":{"coding":[{"system":"http://terminology.hl7.org/CodeSystem/measure-population","code":"initial-population","display":"Initial Population"}]},"count":1},{"code":{"coding":[{"system":"http://terminology.hl7.org/CodeSystem/measure-population","code":"denominator","display":"Denominator"}]},"count":1},{"code":{"coding":[{"system":"http://terminology.hl7.org/CodeSystem/measure-population","code":"denominator-exclusion","display":"Denominator Exclusion"}]},"count":0},{"code":{"coding":[{"system":"http://terminology.hl7.org/CodeSystem/measure-population","code":"numerator","display":"Numerator"}]},"count":1},{"code":{"coding":[{"system":"http://terminology.hl7.org/CodeSystem/measure-population","code":"denominator-exception","display":"Denominator Exception"}]},"count":0}]}]},"request":{"method":"PUT","url":"MeasureReport/c5d4815f-f1c9-40f9-8152-ecf806f6cc72"}}]}