{"resourceType":"Bundle","id":"tests-d9dc15b7-bf03-4b72-8dd5-3e4db21f052d-bundle","type":"transaction","entry":[{"fullUrl":"https://madie.cms.gov/Patient/d9dc15b7-bf03-4b72-8dd5-3e4db21f052d","resource":{"resourceType":"Patient","id":"d9dc15b7-bf03-4b72-8dd5-3e4db21f052d","meta":{"profile":["http://hl7.org/fhir/us/qicore/StructureDefinition/qicore-patient"]},"text":{"status":"generated","div":"<div xmlns=\"http://www.w3.org/1999/xhtml\"><div class=\"hapiHeaderText\">CMOdurObs_ED&lt;1hrObs=1hrBFEnc <b>DENEXPASS </b></div><table class=\"hapiPropertyTable\"><tbody><tr><td>Identifier</td><td>d7110924d65a531d7c4ff727f0066c38</td></tr><tr><td>Date of birth</td><td><span>18 September 1985</span></td></tr></tbody></table></div>"},"extension":[{"url":"http://hl7.org/fhir/us/core/StructureDefinition/us-core-race","extension":[{"url":"ombCategory","valueCoding":{"system":"urn:oid:2.16.840.1.113883.6.238","code":"1002-5","display":"American Indian or Alaska Native","userSelected":true}},{"url":"text","valueString":"American Indian or Alaska Native"}]},{"url":"http://hl7.org/fhir/us/core/StructureDefinition/us-core-ethnicity","extension":[{"url":"ombCategory","valueCoding":{"system":"urn:oid:2.16.840.1.113883.6.238","code":"2135-2","display":"Hispanic or Latino","userSelected":true}},{"url":"text","valueString":"Hispanic or Latino"}]}],"identifier":[{"type":{"coding":[{"system":"http://terminology.hl7.org/CodeSystem/v2-0203","code":"MR"}]},"system":"https://bonnie-fhir.healthit.gov/","value":"633c9d030968f8012250fc86"}],"active":true,"name":[{"use":"usual","family":"DENEXPass","given":["CMOdurObs_ED<1hrObs=1hrBFEnc"]}],"gender":"female","birthDate":"1986-09-18"},"request":{"method":"PUT","url":"Patient/d9dc15b7-bf03-4b72-8dd5-3e4db21f052d"}},{"fullUrl":"https://madie.cms.gov/Condition/47db487d-b952-441f-acd1-861f28274555","resource":{"resourceType":"Condition","id":"47db487d-b952-441f-acd1-861f28274555","meta":{"profile":["http://hl7.org/fhir/us/qicore/StructureDefinition/qicore-condition"]},"clinicalStatus":{"coding":[{"system":"http://terminology.hl7.org/CodeSystem/condition-clinical","code":"inactive"}]},"verificationStatus":{"coding":[{"system":"http://terminology.hl7.org/CodeSystem/condition-ver-status","code":"confirmed"}]},"category":[{"coding":[{"system":"http://terminology.hl7.org/CodeSystem/condition-category","code":"encounter-diagnosis","display":"Encounter Diagnosis"}]}],"code":{"coding":[{"system":"http://hl7.org/fhir/sid/icd-10-cm","code":"I48.20"},{"system":"http://hl7.org/fhir/sid/icd-10-cm","code":"I48.0"},{"system":"http://snomed.info/sct","code":"5370000"}]},"subject":{"reference":"Patient/d9dc15b7-bf03-4b72-8dd5-3e4db21f052d"},"onsetDateTime":"2026-09-30T09:00:00.000Z","abatementDateTime":"2026-10-12T00:15:00.000Z"},"request":{"method":"PUT","url":"Condition/47db487d-b952-441f-acd1-861f28274555"}},{"fullUrl":"https://madie.cms.gov/Encounter/850442be-a04e-460a-ad66-912c97935a5a","resource":{"resourceType":"Encounter","id":"850442be-a04e-460a-ad66-912c97935a5a","meta":{"profile":["http://hl7.org/fhir/us/qicore/StructureDefinition/qicore-encounter"]},"status":"finished","class":{"system":"http://terminology.hl7.org/CodeSystem/v3-ActCode","code":"EMER","display":"emergency"},"type":[{"coding":[{"system":"http://snomed.info/sct","code":"4525004"}]}],"subject":{"reference":"Patient/d9dc15b7-bf03-4b72-8dd5-3e4db21f052d"},"period":{"start":"2026-09-30T07:59:00.000Z","end":"2026-09-30T08:00:00.000Z"},"length":{"value":0,"unit":"days"}},"request":{"method":"PUT","url":"Encounter/850442be-a04e-460a-ad66-912c97935a5a"}},{"fullUrl":"https://madie.cms.gov/Encounter/6df4114b-c935-42b9-b5e8-a1f8a51aa0f3","resource":{"resourceType":"Encounter","id":"6df4114b-c935-42b9-b5e8-a1f8a51aa0f3","meta":{"profile":["http://hl7.org/fhir/us/qicore/StructureDefinition/qicore-encounter"]},"status":"finished","class":{"system":"http://terminology.hl7.org/CodeSystem/v3-ActCode","code":"OBSENC","display":"observation encounter"},"type":[{"coding":[{"system":"http://snomed.info/sct","code":"448951000124107"}]}],"subject":{"reference":"Patient/d9dc15b7-bf03-4b72-8dd5-3e4db21f052d"},"period":{"start":"2026-09-30T08:01:00.000Z","end":"2026-09-30T10:00:00.000Z"},"length":{"value":0,"unit":"days"}},"request":{"method":"PUT","url":"Encounter/6df4114b-c935-42b9-b5e8-a1f8a51aa0f3"}},{"fullUrl":"https://madie.cms.gov/Encounter/a8b93932-0004-4585-af2e-59ffcc38206d","resource":{"resourceType":"Encounter","id":"a8b93932-0004-4585-af2e-59ffcc38206d","meta":{"profile":["http://hl7.org/fhir/us/qicore/StructureDefinition/qicore-encounter"]},"status":"finished","class":{"system":"http://terminology.hl7.org/CodeSystem/v3-ActCode","code":"IMP","display":"inpatient encounter"},"type":[{"coding":[{"system":"http://snomed.info/sct","code":"32485007"}]}],"subject":{"reference":"Patient/d9dc15b7-bf03-4b72-8dd5-3e4db21f052d"},"period":{"start":"2026-09-30T11:00:00.000Z","end":"2026-10-12T00:15:00.000Z"},"length":{"value":12,"unit":"days"},"diagnosis":[{"condition":{"reference":"Condition/00e16f3e-6d76-4ac5-8afb-419379d4e240"},"use":{"coding":[{"system":"http://terminology.hl7.org/CodeSystem/diagnosis-role","code":"billing","display":"Billing"}]},"rank":1}]},"request":{"method":"PUT","url":"Encounter/a8b93932-0004-4585-af2e-59ffcc38206d"}},{"fullUrl":"https://madie.cms.gov/ServiceRequest/12223d8e-e5f5-4435-b39a-c62470cdeca3","resource":{"resourceType":"ServiceRequest","id":"12223d8e-e5f5-4435-b39a-c62470cdeca3","meta":{"profile":["http://hl7.org/fhir/us/qicore/StructureDefinition/qicore-servicerequest"]},"status":"active","intent":"order","code":{"coding":[{"system":"http://snomed.info/sct","code":"133918004"}]},"subject":{"reference":"Patient/d9dc15b7-bf03-4b72-8dd5-3e4db21f052d"},"authoredOn":"2026-09-30T08:01:00.000+00:00"},"request":{"method":"PUT","url":"ServiceRequest/12223d8e-e5f5-4435-b39a-c62470cdeca3"}},{"fullUrl":"https://madie.cms.gov/Coverage/819a2d03-4cb9-46cd-927c-9e6e65e6ef2d","resource":{"resourceType":"Coverage","id":"819a2d03-4cb9-46cd-927c-9e6e65e6ef2d","status":"active","beneficiary":{"reference":"Patient/d9dc15b7-bf03-4b72-8dd5-3e4db21f052d"},"period":{"start":"1986-09-18T08:00:00.000Z"},"payor":[{"reference":"Organization/880a275e-1cf2-4fb9-869b-f1d2173fdc2b"}]},"request":{"method":"PUT","url":"Coverage/819a2d03-4cb9-46cd-927c-9e6e65e6ef2d"}},{"fullUrl":"https://madie.cms.gov/Condition/00e16f3e-6d76-4ac5-8afb-419379d4e240","resource":{"resourceType":"Condition","id":"00e16f3e-6d76-4ac5-8afb-419379d4e240","meta":{"profile":["http://hl7.org/fhir/us/qicore/StructureDefinition/qicore-condition"]},"clinicalStatus":{"coding":[{"system":"http://terminology.hl7.org/CodeSystem/condition-clinical","code":"active"}]},"verificationStatus":{"coding":[{"system":"http://terminology.hl7.org/CodeSystem/condition-ver-status","code":"confirmed"}]},"category":[{"coding":[{"system":"http://terminology.hl7.org/CodeSystem/condition-category","code":"encounter-diagnosis","display":"Encounter Diagnosis"}]}],"code":{"coding":[{"system":"http://snomed.info/sct","version":"2021-09","code":"111297002","display":"Nonparalytic stroke (disorder)","userSelected":true}]},"subject":{"reference":"Patient/d9dc15b7-bf03-4b72-8dd5-3e4db21f052d"},"recordedDate":"2026-10-13T08:00:00.000+00:00"},"request":{"method":"PUT","url":"Condition/00e16f3e-6d76-4ac5-8afb-419379d4e240"}},{"fullUrl":"https://madie.cms.gov/Organization/73dc9861-ea14-4492-98dc-7607c4080144","resource":{"resourceType":"Organization","id":"880a275e-1cf2-4fb9-869b-f1d2173fdc2b","meta":{"profile":["http://hl7.org/fhir/us/qicore/StructureDefinition/qicore-organization"]},"identifier":[{"use":"temp","system":"urn:oid:2.16.840.1.113883.4.4","value":"21-3259825"}],"active":true,"type":[{"coding":[{"system":"http://terminology.hl7.org/CodeSystem/organization-type","code":"pay","display":"Payer"}]}],"name":"Blue Cross Blue Shield of Texas","telecom":[{"system":"phone","value":"(+1) 972-766-6900"}],"address":[{"use":"billing","type":"postal","line":["P.O. Box 660044"],"city":"Dallas","state":"TX","postalCode":"75266-0044","country":"USA"}]},"request":{"method":"PUT","url":"Organization/880a275e-1cf2-4fb9-869b-f1d2173fdc2b"}},{"fullUrl":"https://madie.cms.gov/Practitioner/283ce5e3-e4f7-4ff7-b310-7bc69ef63e8c","resource":{"resourceType":"Practitioner","id":"283ce5e3-e4f7-4ff7-b310-7bc69ef63e8c","identifier":[{"system":"http://hl7.org/fhir/sid/us-npi","value":"123456"}],"name":[{"family":"Evil","prefix":["Dr"]}]},"request":{"method":"PUT","url":"Practitioner/283ce5e3-e4f7-4ff7-b310-7bc69ef63e8c"}},{"fullUrl":"https://madie.cms.gov/MeasureReport/dd697578-8bbd-4374-9a71-64203a1f0668","resource":{"resourceType":"MeasureReport","id":"dd697578-8bbd-4374-9a71-64203a1f0668","meta":{"profile":["http://hl7.org/fhir/us/cqfmeasures/StructureDefinition/test-case-cqfm"]},"contained":[{"resourceType":"Parameters","id":"e26c5778-c1d7-4d6e-a0a3-9a6b19f2f04b-parameters","parameter":[{"name":"subject","valueString":"d9dc15b7-bf03-4b72-8dd5-3e4db21f052d"}]}],"extension":[{"url":"http://hl7.org/fhir/us/cqfmeasures/StructureDefinition/cqfm-inputParameters","valueReference":{"reference":"#e26c5778-c1d7-4d6e-a0a3-9a6b19f2f04b-parameters"}},{"url":"http://hl7.org/fhir/us/cqfmeasures/StructureDefinition/cqfm-testCaseDescription","valueMarkdown":"\"Patient receives CMO order during Observation, ED visit ends 1 minute before Obs starts, Obs ends 60 min before inpatient start. Testing HospitalizationWithObservation function.\n\n\"\n"}],"modifierExtension":[{"url":"http://hl7.org/fhir/us/cqfmeasures/StructureDefinition/cqfm-isTestCase","valueBoolean":true}],"status":"complete","type":"individual","measure":"https://madie.cms.gov/Measure/CMS71FHIRSTKAnticoagAFFlutter","period":{"start":"2026-01-01","end":"2026-12-31"},"group":[{"population":[{"code":{"coding":[{"system":"http://terminology.hl7.org/CodeSystem/measure-population","code":"initial-population","display":"Initial Population"}]},"count":1},{"code":{"coding":[{"system":"http://terminology.hl7.org/CodeSystem/measure-population","code":"denominator","display":"Denominator"}]},"count":1},{"code":{"coding":[{"system":"http://terminology.hl7.org/CodeSystem/measure-population","code":"denominator-exclusion","display":"Denominator Exclusion"}]},"count":1},{"code":{"coding":[{"system":"http://terminology.hl7.org/CodeSystem/measure-population","code":"numerator","display":"Numerator"}]},"count":0},{"code":{"coding":[{"system":"http://terminology.hl7.org/CodeSystem/measure-population","code":"denominator-exception","display":"Denominator Exception"}]},"count":0}]}]},"request":{"method":"PUT","url":"MeasureReport/dd697578-8bbd-4374-9a71-64203a1f0668"}}]}