{"resourceType":"Bundle","id":"tests-e75d7e1c-df18-487e-a8f0-0b140e120581-bundle","type":"transaction","entry":[{"fullUrl":"https://madie.cms.gov/Patient/e75d7e1c-df18-487e-a8f0-0b140e120581","resource":{"resourceType":"Patient","id":"e75d7e1c-df18-487e-a8f0-0b140e120581","meta":{"profile":["http://hl7.org/fhir/us/qicore/StructureDefinition/qicore-patient"]},"text":{"status":"generated","div":"<div xmlns=\"http://www.w3.org/1999/xhtml\"><div class=\"hapiHeaderText\">EncPrinDx=IschStk_EncDx=Afib/flutter <b>DENOMPASS </b></div><table class=\"hapiPropertyTable\"><tbody><tr><td>Identifier</td><td>bfd807e1d1993084d1164432ce591a06</td></tr><tr><td>Date of birth</td><td><span>01 December 1960</span></td></tr></tbody></table></div>"},"extension":[{"url":"http://hl7.org/fhir/us/core/StructureDefinition/us-core-race","extension":[{"url":"ombCategory","valueCoding":{"system":"urn:oid:2.16.840.1.113883.6.238","code":"1002-5","display":"American Indian or Alaska Native","userSelected":true}},{"url":"text","valueString":"American Indian or Alaska Native"}]},{"url":"http://hl7.org/fhir/us/core/StructureDefinition/us-core-ethnicity","extension":[{"url":"ombCategory","valueCoding":{"system":"urn:oid:2.16.840.1.113883.6.238","code":"2135-2","display":"Hispanic or Latino","userSelected":true}},{"url":"text","valueString":"Hispanic or Latino"}]}],"identifier":[{"type":{"coding":[{"system":"http://terminology.hl7.org/CodeSystem/v2-0203","code":"MR"}]},"system":"https://bonnie-fhir.healthit.gov/","value":"633c9d030968f8012250fc6d"}],"active":true,"name":[{"use":"usual","family":"DENOMPass","given":["EncPrinDx=IschStk_EncDx=Afib/flutter"]}],"gender":"male","birthDate":"1961-12-01"},"request":{"method":"PUT","url":"Patient/e75d7e1c-df18-487e-a8f0-0b140e120581"}},{"fullUrl":"https://madie.cms.gov/Encounter/81182d9f-1d8f-4742-807b-3ae4ad6c1a69","resource":{"resourceType":"Encounter","id":"81182d9f-1d8f-4742-807b-3ae4ad6c1a69","meta":{"profile":["http://hl7.org/fhir/us/qicore/StructureDefinition/qicore-encounter"]},"status":"finished","class":{"system":"http://terminology.hl7.org/CodeSystem/v3-ActCode","code":"IMP","display":"inpatient encounter"},"type":[{"coding":[{"system":"http://snomed.info/sct","code":"183452005"}]}],"subject":{"reference":"Patient/e75d7e1c-df18-487e-a8f0-0b140e120581"},"period":{"start":"2026-02-08T08:00:00.000Z","end":"2026-02-10T08:15:00.000Z"},"length":{"value":2,"unit":"days"},"diagnosis":[{"condition":{"reference":"Condition/d911ded2-4775-4f2f-99bd-5df1af817960"},"use":{"coding":[{"system":"http://terminology.hl7.org/CodeSystem/diagnosis-role","code":"billing","display":"Billing"}]},"rank":1},{"condition":{"reference":"Condition/5268002a-d26b-4481-8a48-6c11d948f591"},"use":{"coding":[{"system":"http://snomed.info/sct","code":"120041000119109","display":"Atrial Fibrillation/Flutter"}]}}]},"request":{"method":"PUT","url":"Encounter/81182d9f-1d8f-4742-807b-3ae4ad6c1a69"}},{"fullUrl":"https://madie.cms.gov/Coverage/1ea2c09d-adfb-4428-852e-23a04053cad3","resource":{"resourceType":"Coverage","id":"1ea2c09d-adfb-4428-852e-23a04053cad3","status":"active","beneficiary":{"reference":"Patient/e75d7e1c-df18-487e-a8f0-0b140e120581"},"period":{"start":"1961-12-01T08:00:00.000Z"},"payor":[{"reference":"Organization/a6c3e6fa-301e-4714-9d04-3dde9a7e7c49"}]},"request":{"method":"PUT","url":"Coverage/1ea2c09d-adfb-4428-852e-23a04053cad3"}},{"fullUrl":"https://madie.cms.gov/Condition/d911ded2-4775-4f2f-99bd-5df1af817960","resource":{"resourceType":"Condition","id":"d911ded2-4775-4f2f-99bd-5df1af817960","meta":{"profile":["http://hl7.org/fhir/us/qicore/StructureDefinition/qicore-condition"]},"clinicalStatus":{"coding":[{"system":"http://terminology.hl7.org/CodeSystem/condition-clinical","code":"active"}]},"verificationStatus":{"coding":[{"system":"http://terminology.hl7.org/CodeSystem/condition-ver-status","code":"confirmed"}]},"category":[{"coding":[{"system":"http://terminology.hl7.org/CodeSystem/condition-category","code":"encounter-diagnosis","display":"Encounter Diagnosis"}]}],"code":{"coding":[{"system":"http://snomed.info/sct","version":"2021-09","code":"111297002","display":"Nonparalytic stroke (disorder)","userSelected":true}]},"subject":{"reference":"Patient/e75d7e1c-df18-487e-a8f0-0b140e120581"},"recordedDate":"2026-10-13T08:00:00.000+00:00"},"request":{"method":"PUT","url":"Condition/d911ded2-4775-4f2f-99bd-5df1af817960"}},{"fullUrl":"https://madie.cms.gov/Condition/5268002a-d26b-4481-8a48-6c11d948f591","resource":{"resourceType":"Condition","id":"5268002a-d26b-4481-8a48-6c11d948f591","meta":{"profile":["http://hl7.org/fhir/us/qicore/StructureDefinition/qicore-condition"]},"clinicalStatus":{"coding":[{"system":"http://terminology.hl7.org/CodeSystem/condition-clinical","code":"active"}]},"verificationStatus":{"coding":[{"system":"http://terminology.hl7.org/CodeSystem/condition-ver-status","code":"confirmed"}]},"category":[{"coding":[{"system":"http://terminology.hl7.org/CodeSystem/condition-category","code":"encounter-diagnosis","display":"Encounter Diagnosis"}]}],"code":{"coding":[{"system":"http://snomed.info/sct","version":"2021-09","code":"120041000119109","display":"Atrial fibrillation with rapid ventricular response (disorder)","userSelected":true}]},"subject":{"reference":"Patient/e75d7e1c-df18-487e-a8f0-0b140e120581"},"recordedDate":"2026-10-13T08:00:00.000+00:00"},"request":{"method":"PUT","url":"Condition/5268002a-d26b-4481-8a48-6c11d948f591"}},{"fullUrl":"https://madie.cms.gov/Organization/c221389a-2d4c-4863-afa6-2b3f3f2f8a3f","resource":{"resourceType":"Organization","id":"a6c3e6fa-301e-4714-9d04-3dde9a7e7c49","meta":{"profile":["http://hl7.org/fhir/us/qicore/StructureDefinition/qicore-organization"]},"identifier":[{"use":"temp","system":"urn:oid:2.16.840.1.113883.4.4","value":"21-3259825"}],"active":true,"type":[{"coding":[{"system":"http://terminology.hl7.org/CodeSystem/organization-type","code":"pay","display":"Payer"}]}],"name":"Blue Cross Blue Shield of Texas","telecom":[{"system":"phone","value":"(+1) 972-766-6900"}],"address":[{"use":"billing","type":"postal","line":["P.O. Box 660044"],"city":"Dallas","state":"TX","postalCode":"75266-0044","country":"USA"}]},"request":{"method":"PUT","url":"Organization/a6c3e6fa-301e-4714-9d04-3dde9a7e7c49"}},{"fullUrl":"https://madie.cms.gov/Practitioner/b5de557b-868f-422e-9f6b-7ed69adda87f","resource":{"resourceType":"Practitioner","id":"b5de557b-868f-422e-9f6b-7ed69adda87f","identifier":[{"system":"http://hl7.org/fhir/sid/us-npi","value":"123456"}],"name":[{"family":"Evil","prefix":["Dr"]}]},"request":{"method":"PUT","url":"Practitioner/b5de557b-868f-422e-9f6b-7ed69adda87f"}},{"fullUrl":"https://madie.cms.gov/MeasureReport/ce9e200f-68cf-481b-b28c-da8fc547a99f","resource":{"resourceType":"MeasureReport","id":"ce9e200f-68cf-481b-b28c-da8fc547a99f","meta":{"profile":["http://hl7.org/fhir/us/cqfmeasures/StructureDefinition/test-case-cqfm"]},"contained":[{"resourceType":"Parameters","id":"e6f3aae5-78c7-4a02-b7f1-266a6e029446-parameters","parameter":[{"name":"subject","valueString":"e75d7e1c-df18-487e-a8f0-0b140e120581"}]}],"extension":[{"url":"http://hl7.org/fhir/us/cqfmeasures/StructureDefinition/cqfm-inputParameters","valueReference":{"reference":"#e6f3aae5-78c7-4a02-b7f1-266a6e029446-parameters"}},{"url":"http://hl7.org/fhir/us/cqfmeasures/StructureDefinition/cqfm-testCaseDescription","valueMarkdown":"\"Diagnosis Attribute= Afib during encounter\nThis case tests the denominator diagnosis criteria (meets criteria). \"\n"}],"modifierExtension":[{"url":"http://hl7.org/fhir/us/cqfmeasures/StructureDefinition/cqfm-isTestCase","valueBoolean":true}],"status":"complete","type":"individual","measure":"https://madie.cms.gov/Measure/CMS71FHIRSTKAnticoagAFFlutter","period":{"start":"2026-01-01","end":"2026-12-31"},"group":[{"population":[{"code":{"coding":[{"system":"http://terminology.hl7.org/CodeSystem/measure-population","code":"initial-population","display":"Initial Population"}]},"count":1},{"code":{"coding":[{"system":"http://terminology.hl7.org/CodeSystem/measure-population","code":"denominator","display":"Denominator"}]},"count":1},{"code":{"coding":[{"system":"http://terminology.hl7.org/CodeSystem/measure-population","code":"denominator-exclusion","display":"Denominator Exclusion"}]},"count":0},{"code":{"coding":[{"system":"http://terminology.hl7.org/CodeSystem/measure-population","code":"numerator","display":"Numerator"}]},"count":0},{"code":{"coding":[{"system":"http://terminology.hl7.org/CodeSystem/measure-population","code":"denominator-exception","display":"Denominator Exception"}]},"count":0}]}]},"request":{"method":"PUT","url":"MeasureReport/ce9e200f-68cf-481b-b28c-da8fc547a99f"}}]}