{"resourceType":"Bundle","id":"tests-4151585a-f621-4de5-91df-4e4227e2165e-bundle","type":"transaction","entry":[{"fullUrl":"https://madie.cms.gov/Patient/4151585a-f621-4de5-91df-4e4227e2165e","resource":{"resourceType":"Patient","id":"4151585a-f621-4de5-91df-4e4227e2165e","meta":{"profile":["http://hl7.org/fhir/us/qicore/StructureDefinition/qicore-patient"]},"text":{"status":"generated","div":"<div xmlns=\"http://www.w3.org/1999/xhtml\"><div class=\"hapiHeaderText\">CustomCode <b>NUMERFAIL </b></div><table class=\"hapiPropertyTable\"><tbody><tr><td>Identifier</td><td>067c4f753ca8fc3fba90168757c33218</td></tr><tr><td>Date of birth</td><td><span>21 August 1994</span></td></tr></tbody></table></div>"},"extension":[{"url":"http://hl7.org/fhir/us/core/StructureDefinition/us-core-race","extension":[{"url":"ombCategory","valueCoding":{"system":"urn:oid:2.16.840.1.113883.6.238","code":"1002-5","display":"American Indian or Alaska Native","userSelected":true}},{"url":"text","valueString":"American Indian or Alaska Native"}]},{"url":"http://hl7.org/fhir/us/core/StructureDefinition/us-core-ethnicity","extension":[{"url":"ombCategory","valueCoding":{"system":"urn:oid:2.16.840.1.113883.6.238","code":"2135-2","display":"Hispanic or Latino","userSelected":true}},{"url":"text","valueString":"Hispanic or Latino"}]}],"identifier":[{"type":{"coding":[{"system":"http://terminology.hl7.org/CodeSystem/v2-0203","code":"MR"}]},"system":"https://bonnie-fhir.healthit.gov/","value":"633c9d030968f8012250fc91"}],"active":true,"name":[{"use":"usual","family":"NUMERFail","given":["CustomCode"]}],"gender":"male","birthDate":"1995-08-21"},"request":{"method":"PUT","url":"Patient/4151585a-f621-4de5-91df-4e4227e2165e"}},{"fullUrl":"https://madie.cms.gov/Encounter/963e4903-2197-436a-8d43-ae9ee027800b","resource":{"resourceType":"Encounter","id":"963e4903-2197-436a-8d43-ae9ee027800b","meta":{"profile":["http://hl7.org/fhir/us/qicore/StructureDefinition/qicore-encounter"]},"status":"finished","class":{"system":"http://terminology.hl7.org/CodeSystem/v3-ActCode","code":"IMP","display":"inpatient encounter"},"type":[{"coding":[{"system":"http://snomed.info/sct","code":"32485007"}]}],"subject":{"reference":"Patient/4151585a-f621-4de5-91df-4e4227e2165e"},"period":{"start":"2026-10-10T09:30:00.000Z","end":"2026-10-12T10:30:00.000Z"},"length":{"value":2,"unit":"days"},"diagnosis":[{"condition":{"reference":"Condition/ebf60e51-c1b0-4c91-b24c-22e42852c36d"},"use":{"coding":[{"system":"http://terminology.hl7.org/CodeSystem/diagnosis-role","code":"billing","display":"Billing"}]},"rank":1}]},"request":{"method":"PUT","url":"Encounter/963e4903-2197-436a-8d43-ae9ee027800b"}},{"fullUrl":"https://madie.cms.gov/MedicationRequest/4ca0cf1d-8b6c-4efa-848c-6084c737248c","resource":{"resourceType":"MedicationRequest","id":"4ca0cf1d-8b6c-4efa-848c-6084c737248c","meta":{"profile":["http://hl7.org/fhir/us/qicore/StructureDefinition/qicore-medicationrequest"]},"status":"active","intent":"order","medicationCodeableConcept":{"coding":[{"system":"http://www.nlm.nih.gov/research/umls/rxnorm","code":"1006608"}]},"subject":{"reference":"Patient/4151585a-f621-4de5-91df-4e4227e2165e"},"authoredOn":"2026-10-10T09:30:00.000+00:00","requester":{"reference":"Practitioner/example"}},"request":{"method":"PUT","url":"MedicationRequest/4ca0cf1d-8b6c-4efa-848c-6084c737248c"}},{"fullUrl":"https://madie.cms.gov/Coverage/d18adc68-a25b-4db8-ae23-30f68df4e5ea","resource":{"resourceType":"Coverage","id":"d18adc68-a25b-4db8-ae23-30f68df4e5ea","status":"active","beneficiary":{"reference":"Patient/4151585a-f621-4de5-91df-4e4227e2165e"},"period":{"start":"1995-08-21T08:00:00.000Z"},"payor":[{"reference":"Organization/880a275e-1cf2-4fb9-869b-f1d2173fdc2b"}]},"request":{"method":"PUT","url":"Coverage/d18adc68-a25b-4db8-ae23-30f68df4e5ea"}},{"fullUrl":"https://madie.cms.gov/Procedure/7c7b8d15-4313-474b-a6d6-8184a73e4ea8","resource":{"resourceType":"Procedure","id":"7c7b8d15-4313-474b-a6d6-8184a73e4ea8","meta":{"profile":["http://hl7.org/fhir/us/qicore/StructureDefinition/qicore-procedure"]},"extension":[{"url":"http://hl7.org/fhir/us/qicore/StructureDefinition/qicore-recorded","valueDateTime":"2026-11-19T09:35:00-04:00"}],"status":"completed","code":{"coding":[{"system":"http://www.cms.gov/Medicare/Coding/ICD10","code":"02560ZZ"},{"system":"http://snomed.info/sct","code":"175095005"}]},"subject":{"reference":"Patient/4151585a-f621-4de5-91df-4e4227e2165e"},"performedPeriod":{"start":"2026-10-10T08:30:00.000Z"}},"request":{"method":"PUT","url":"Procedure/7c7b8d15-4313-474b-a6d6-8184a73e4ea8"}},{"fullUrl":"https://madie.cms.gov/Condition/ebf60e51-c1b0-4c91-b24c-22e42852c36d","resource":{"resourceType":"Condition","id":"ebf60e51-c1b0-4c91-b24c-22e42852c36d","meta":{"profile":["http://hl7.org/fhir/us/qicore/StructureDefinition/qicore-condition"]},"clinicalStatus":{"coding":[{"system":"http://terminology.hl7.org/CodeSystem/condition-clinical","code":"active"}]},"verificationStatus":{"coding":[{"system":"http://terminology.hl7.org/CodeSystem/condition-ver-status","code":"confirmed"}]},"category":[{"coding":[{"system":"http://terminology.hl7.org/CodeSystem/condition-category","code":"encounter-diagnosis","display":"Encounter Diagnosis"}]}],"code":{"coding":[{"system":"http://snomed.info/sct","version":"2021-09","code":"111297002","display":"Nonparalytic stroke (disorder)","userSelected":true}]},"subject":{"reference":"Patient/4151585a-f621-4de5-91df-4e4227e2165e"},"recordedDate":"2026-10-13T08:00:00.000+00:00"},"request":{"method":"PUT","url":"Condition/ebf60e51-c1b0-4c91-b24c-22e42852c36d"}},{"fullUrl":"https://madie.cms.gov/Organization/1beda074-00af-463f-bfc6-d596fc3be388","resource":{"resourceType":"Organization","id":"880a275e-1cf2-4fb9-869b-f1d2173fdc2b","meta":{"profile":["http://hl7.org/fhir/us/qicore/StructureDefinition/qicore-organization"]},"identifier":[{"use":"temp","system":"urn:oid:2.16.840.1.113883.4.4","value":"21-3259825"}],"active":true,"type":[{"coding":[{"system":"http://terminology.hl7.org/CodeSystem/organization-type","code":"pay","display":"Payer"}]}],"name":"Blue Cross Blue Shield of Texas","telecom":[{"system":"phone","value":"(+1) 972-766-6900"}],"address":[{"use":"billing","type":"postal","line":["P.O. Box 660044"],"city":"Dallas","state":"TX","postalCode":"75266-0044","country":"USA"}]},"request":{"method":"PUT","url":"Organization/880a275e-1cf2-4fb9-869b-f1d2173fdc2b"}},{"fullUrl":"https://madie.cms.gov/Practitioner/a2f9836c-f0e9-42d6-a01e-2b3c3020d626","resource":{"resourceType":"Practitioner","id":"a2f9836c-f0e9-42d6-a01e-2b3c3020d626","identifier":[{"system":"http://hl7.org/fhir/sid/us-npi","value":"123456"}],"name":[{"family":"Evil","prefix":["Dr"]}]},"request":{"method":"PUT","url":"Practitioner/a2f9836c-f0e9-42d6-a01e-2b3c3020d626"}},{"fullUrl":"https://madie.cms.gov/MeasureReport/f8ad42f7-8056-4011-8180-2657d8f0f4c9","resource":{"resourceType":"MeasureReport","id":"f8ad42f7-8056-4011-8180-2657d8f0f4c9","meta":{"profile":["http://hl7.org/fhir/us/cqfmeasures/StructureDefinition/test-case-cqfm"]},"contained":[{"resourceType":"Parameters","id":"2737de5e-2277-4811-a4a7-4c517e10d76c-parameters","parameter":[{"name":"subject","valueString":"4151585a-f621-4de5-91df-4e4227e2165e"}]}],"extension":[{"url":"http://hl7.org/fhir/us/cqfmeasures/StructureDefinition/cqfm-inputParameters","valueReference":{"reference":"#2737de5e-2277-4811-a4a7-4c517e10d76c-parameters"}},{"url":"http://hl7.org/fhir/us/cqfmeasures/StructureDefinition/cqfm-testCaseDescription","valueMarkdown":"Patient is 18 with Non-Elective Inpatient Encounter (LOS 120 days) with principal diagnosis of ischemic stroke ends during MP received medication not found in anticoagulant value set during IP encounter\n"}],"modifierExtension":[{"url":"http://hl7.org/fhir/us/cqfmeasures/StructureDefinition/cqfm-isTestCase","valueBoolean":true}],"status":"complete","type":"individual","measure":"https://madie.cms.gov/Measure/CMS71FHIRSTKAnticoagAFFlutter","period":{"start":"2026-01-01","end":"2026-12-31"},"group":[{"population":[{"code":{"coding":[{"system":"http://terminology.hl7.org/CodeSystem/measure-population","code":"initial-population","display":"Initial Population"}]},"count":1},{"code":{"coding":[{"system":"http://terminology.hl7.org/CodeSystem/measure-population","code":"denominator","display":"Denominator"}]},"count":1},{"code":{"coding":[{"system":"http://terminology.hl7.org/CodeSystem/measure-population","code":"denominator-exclusion","display":"Denominator Exclusion"}]},"count":0},{"code":{"coding":[{"system":"http://terminology.hl7.org/CodeSystem/measure-population","code":"numerator","display":"Numerator"}]},"count":0},{"code":{"coding":[{"system":"http://terminology.hl7.org/CodeSystem/measure-population","code":"denominator-exception","display":"Denominator Exception"}]},"count":0}]}]},"request":{"method":"PUT","url":"MeasureReport/f8ad42f7-8056-4011-8180-2657d8f0f4c9"}}]}