{"resourceType":"Bundle","id":"tests-43d04e08-768c-4e5e-a7eb-44219c5e94b1-bundle","type":"transaction","entry":[{"fullUrl":"https://madie.cms.gov/Patient/43d04e08-768c-4e5e-a7eb-44219c5e94b1","resource":{"resourceType":"Patient","id":"43d04e08-768c-4e5e-a7eb-44219c5e94b1","meta":{"profile":["http://hl7.org/fhir/us/qicore/StructureDefinition/qicore-patient"]},"text":{"status":"generated","div":"<div xmlns=\"http://www.w3.org/1999/xhtml\"><div class=\"hapiHeaderText\">DxAfibAtEncEndTime <b>DENOMPASS </b></div><table class=\"hapiPropertyTable\"><tbody><tr><td>Identifier</td><td>07d1b6cfb79c3da7b4c3edf0c8bcb5f1</td></tr><tr><td>Date of birth</td><td><span>01 December 1960</span></td></tr></tbody></table></div>"},"extension":[{"url":"http://hl7.org/fhir/us/core/StructureDefinition/us-core-race","extension":[{"url":"ombCategory","valueCoding":{"system":"urn:oid:2.16.840.1.113883.6.238","code":"1002-5","display":"American Indian or Alaska Native","userSelected":true}},{"url":"text","valueString":"American Indian or Alaska Native"}]},{"url":"http://hl7.org/fhir/us/core/StructureDefinition/us-core-ethnicity","extension":[{"url":"ombCategory","valueCoding":{"system":"urn:oid:2.16.840.1.113883.6.238","code":"2135-2","display":"Hispanic or Latino","userSelected":true}},{"url":"text","valueString":"Hispanic or Latino"}]}],"identifier":[{"type":{"coding":[{"system":"http://terminology.hl7.org/CodeSystem/v2-0203","code":"MR"}]},"system":"https://bonnie-fhir.healthit.gov/","value":"633c9d030968f8012250fc90"}],"active":true,"name":[{"use":"usual","family":"DENOMPass","given":["DxAfibAtEncEndTime"]}],"gender":"male","birthDate":"1961-12-01"},"request":{"method":"PUT","url":"Patient/43d04e08-768c-4e5e-a7eb-44219c5e94b1"}},{"fullUrl":"https://madie.cms.gov/Condition/d3e24436-27bb-438d-b9fc-5d92a5230bd0","resource":{"resourceType":"Condition","id":"d3e24436-27bb-438d-b9fc-5d92a5230bd0","meta":{"profile":["http://hl7.org/fhir/us/qicore/StructureDefinition/qicore-condition"]},"clinicalStatus":{"coding":[{"system":"http://terminology.hl7.org/CodeSystem/condition-clinical","code":"inactive"}]},"verificationStatus":{"coding":[{"system":"http://terminology.hl7.org/CodeSystem/condition-ver-status","code":"confirmed"}]},"category":[{"coding":[{"system":"http://terminology.hl7.org/CodeSystem/condition-category","code":"encounter-diagnosis","display":"Encounter Diagnosis"}]}],"code":{"coding":[{"system":"http://snomed.info/sct","code":"195080001"},{"system":"http://hl7.org/fhir/sid/icd-9-cm","code":"427.31"},{"system":"http://hl7.org/fhir/sid/icd-10-cm","code":"I48.0"}]},"subject":{"reference":"Patient/43d04e08-768c-4e5e-a7eb-44219c5e94b1"},"onsetDateTime":"2026-02-10T08:15:00.000Z","abatementDateTime":"2026-02-10T08:15:00.000Z"},"request":{"method":"PUT","url":"Condition/d3e24436-27bb-438d-b9fc-5d92a5230bd0"}},{"fullUrl":"https://madie.cms.gov/Encounter/ae2c43e5-0a26-48c0-a099-592c13c1f6d5","resource":{"resourceType":"Encounter","id":"ae2c43e5-0a26-48c0-a099-592c13c1f6d5","meta":{"profile":["http://hl7.org/fhir/us/qicore/StructureDefinition/qicore-encounter"]},"status":"finished","class":{"system":"http://terminology.hl7.org/CodeSystem/v3-ActCode","code":"IMP","display":"inpatient encounter"},"type":[{"coding":[{"system":"http://snomed.info/sct","code":"32485007"}]}],"subject":{"reference":"Patient/43d04e08-768c-4e5e-a7eb-44219c5e94b1"},"period":{"start":"2026-02-08T08:00:00.000Z","end":"2026-02-10T08:15:00.000Z"},"length":{"value":2,"unit":"days"},"diagnosis":[{"condition":{"reference":"Condition/887042b5-db57-4a0c-ac45-ede74771d9a0"},"use":{"coding":[{"system":"http://terminology.hl7.org/CodeSystem/diagnosis-role","code":"billing","display":"Billing"}]},"rank":1}]},"request":{"method":"PUT","url":"Encounter/ae2c43e5-0a26-48c0-a099-592c13c1f6d5"}},{"fullUrl":"https://madie.cms.gov/Coverage/4d544281-c77a-4757-8c1a-53e7681f5578","resource":{"resourceType":"Coverage","id":"4d544281-c77a-4757-8c1a-53e7681f5578","status":"active","beneficiary":{"reference":"Patient/43d04e08-768c-4e5e-a7eb-44219c5e94b1"},"period":{"start":"1961-12-01T08:00:00.000Z"},"payor":[{"reference":"Organization/18ca435c-cae6-4c34-8033-af717477f9fc"}]},"request":{"method":"PUT","url":"Coverage/4d544281-c77a-4757-8c1a-53e7681f5578"}},{"fullUrl":"https://madie.cms.gov/Condition/887042b5-db57-4a0c-ac45-ede74771d9a0","resource":{"resourceType":"Condition","id":"887042b5-db57-4a0c-ac45-ede74771d9a0","meta":{"profile":["http://hl7.org/fhir/us/qicore/StructureDefinition/qicore-condition"]},"clinicalStatus":{"coding":[{"system":"http://terminology.hl7.org/CodeSystem/condition-clinical","code":"active"}]},"verificationStatus":{"coding":[{"system":"http://terminology.hl7.org/CodeSystem/condition-ver-status","code":"confirmed"}]},"category":[{"coding":[{"system":"http://terminology.hl7.org/CodeSystem/condition-category","code":"encounter-diagnosis","display":"Encounter Diagnosis"}]}],"code":{"coding":[{"system":"http://snomed.info/sct","version":"2021-09","code":"111297002","display":"Nonparalytic stroke (disorder)","userSelected":true}]},"subject":{"reference":"Patient/43d04e08-768c-4e5e-a7eb-44219c5e94b1"},"recordedDate":"2026-10-13T08:00:00.000+00:00"},"request":{"method":"PUT","url":"Condition/887042b5-db57-4a0c-ac45-ede74771d9a0"}},{"fullUrl":"https://madie.cms.gov/Organization/cc69e4b6-c09a-4ad3-be02-289ced1dfd71","resource":{"resourceType":"Organization","id":"18ca435c-cae6-4c34-8033-af717477f9fc","meta":{"profile":["http://hl7.org/fhir/us/qicore/StructureDefinition/qicore-organization"]},"identifier":[{"use":"temp","system":"urn:oid:2.16.840.1.113883.4.4","value":"21-3259825"}],"active":true,"type":[{"coding":[{"system":"http://terminology.hl7.org/CodeSystem/organization-type","code":"pay","display":"Payer"}]}],"name":"Blue Cross Blue Shield of Texas","telecom":[{"system":"phone","value":"(+1) 972-766-6900"}],"address":[{"use":"billing","type":"postal","line":["P.O. Box 660044"],"city":"Dallas","state":"TX","postalCode":"75266-0044","country":"USA"}]},"request":{"method":"PUT","url":"Organization/18ca435c-cae6-4c34-8033-af717477f9fc"}},{"fullUrl":"https://madie.cms.gov/Practitioner/bcafbcbc-a035-4b85-88e5-321a2354f3bc","resource":{"resourceType":"Practitioner","id":"bcafbcbc-a035-4b85-88e5-321a2354f3bc","identifier":[{"system":"http://hl7.org/fhir/sid/us-npi","value":"123456"}],"name":[{"family":"Evil","prefix":["Dr"]}]},"request":{"method":"PUT","url":"Practitioner/bcafbcbc-a035-4b85-88e5-321a2354f3bc"}},{"fullUrl":"https://madie.cms.gov/MeasureReport/f15a102b-cf71-4a3b-b83d-b7f8dd4ff11f","resource":{"resourceType":"MeasureReport","id":"f15a102b-cf71-4a3b-b83d-b7f8dd4ff11f","meta":{"profile":["http://hl7.org/fhir/us/cqfmeasures/StructureDefinition/test-case-cqfm"]},"contained":[{"resourceType":"Parameters","id":"177eb182-a0c9-44e4-b850-998e876ed5dc-parameters","parameter":[{"name":"subject","valueString":"43d04e08-768c-4e5e-a7eb-44219c5e94b1"}]}],"extension":[{"url":"http://hl7.org/fhir/us/cqfmeasures/StructureDefinition/cqfm-inputParameters","valueReference":{"reference":"#177eb182-a0c9-44e4-b850-998e876ed5dc-parameters"}},{"url":"http://hl7.org/fhir/us/cqfmeasures/StructureDefinition/cqfm-testCaseDescription","valueMarkdown":"\"Afib as a Diagnosis Datatype, starts at OccurA EndDate\nEdge case to test timing boundaries of diagnosis. \"\n"}],"modifierExtension":[{"url":"http://hl7.org/fhir/us/cqfmeasures/StructureDefinition/cqfm-isTestCase","valueBoolean":true}],"status":"complete","type":"individual","measure":"https://madie.cms.gov/Measure/CMS71FHIRSTKAnticoagAFFlutter","period":{"start":"2026-01-01","end":"2026-12-31"},"group":[{"population":[{"code":{"coding":[{"system":"http://terminology.hl7.org/CodeSystem/measure-population","code":"initial-population","display":"Initial Population"}]},"count":1},{"code":{"coding":[{"system":"http://terminology.hl7.org/CodeSystem/measure-population","code":"denominator","display":"Denominator"}]},"count":1},{"code":{"coding":[{"system":"http://terminology.hl7.org/CodeSystem/measure-population","code":"denominator-exclusion","display":"Denominator Exclusion"}]},"count":0},{"code":{"coding":[{"system":"http://terminology.hl7.org/CodeSystem/measure-population","code":"numerator","display":"Numerator"}]},"count":0},{"code":{"coding":[{"system":"http://terminology.hl7.org/CodeSystem/measure-population","code":"denominator-exception","display":"Denominator Exception"}]},"count":0}]}]},"request":{"method":"PUT","url":"MeasureReport/f15a102b-cf71-4a3b-b83d-b7f8dd4ff11f"}}]}