{"resourceType":"Bundle","id":"tests-ed792352-3bb4-435d-896a-d221df866142-bundle","type":"transaction","entry":[{"fullUrl":"https://madie.cms.gov/Patient/ed792352-3bb4-435d-896a-d221df866142","resource":{"resourceType":"Patient","id":"ed792352-3bb4-435d-896a-d221df866142","meta":{"profile":["http://hl7.org/fhir/us/qicore/StructureDefinition/qicore-patient"]},"text":{"status":"generated","div":"<div xmlns=\"http://www.w3.org/1999/xhtml\"><div class=\"hapiHeaderText\">AtrialAblAfterEncStartRelePer <b>DENOMFAIL </b></div><table class=\"hapiPropertyTable\"><tbody><tr><td>Identifier</td><td>0ab8a288462c493a0716bd9a93a37855</td></tr><tr><td>Date of birth</td><td><span>01 December 1960</span></td></tr></tbody></table></div>"},"extension":[{"url":"http://hl7.org/fhir/us/core/StructureDefinition/us-core-race","extension":[{"url":"ombCategory","valueCoding":{"system":"urn:oid:2.16.840.1.113883.6.238","code":"1002-5","display":"American Indian or Alaska Native","userSelected":true}},{"url":"text","valueString":"American Indian or Alaska Native"}]},{"url":"http://hl7.org/fhir/us/core/StructureDefinition/us-core-ethnicity","extension":[{"url":"ombCategory","valueCoding":{"system":"urn:oid:2.16.840.1.113883.6.238","code":"2135-2","display":"Hispanic or Latino","userSelected":true}},{"url":"text","valueString":"Hispanic or Latino"}]}],"identifier":[{"type":{"coding":[{"system":"http://terminology.hl7.org/CodeSystem/v2-0203","code":"MR"}]},"system":"https://bonnie-fhir.healthit.gov/","value":"633c9d030968f8012250fc97"}],"active":true,"name":[{"use":"usual","family":"DENOMFail","given":["AtrialAblAfterEncStartRelePer"]}],"gender":"male","birthDate":"1961-12-01"},"request":{"method":"PUT","url":"Patient/ed792352-3bb4-435d-896a-d221df866142"}},{"fullUrl":"https://madie.cms.gov/Encounter/69f64ecc-c1fa-4c7e-9802-81754620ed66","resource":{"resourceType":"Encounter","id":"69f64ecc-c1fa-4c7e-9802-81754620ed66","meta":{"profile":["http://hl7.org/fhir/us/qicore/StructureDefinition/qicore-encounter"]},"status":"finished","class":{"system":"http://terminology.hl7.org/CodeSystem/v3-ActCode","code":"IMP","display":"inpatient encounter"},"type":[{"coding":[{"system":"http://snomed.info/sct","code":"32485007"}]}],"subject":{"reference":"Patient/ed792352-3bb4-435d-896a-d221df866142"},"period":{"start":"2026-02-08T08:00:00.000Z","end":"2026-02-10T08:15:00.000Z"},"length":{"value":2,"unit":"days"},"diagnosis":[{"condition":{"reference":"Condition/860c842c-ca9b-400b-acdd-b13b73c952e8"},"use":{"coding":[{"system":"http://terminology.hl7.org/CodeSystem/diagnosis-role","code":"billing","display":"Billing"}]},"rank":1}]},"request":{"method":"PUT","url":"Encounter/69f64ecc-c1fa-4c7e-9802-81754620ed66"}},{"fullUrl":"https://madie.cms.gov/Coverage/7950e6e7-3f7b-4e33-9d55-7119759ce14e","resource":{"resourceType":"Coverage","id":"7950e6e7-3f7b-4e33-9d55-7119759ce14e","status":"active","beneficiary":{"reference":"Patient/ed792352-3bb4-435d-896a-d221df866142"},"period":{"start":"1961-12-01T08:00:00.000Z"},"payor":[{"reference":"Organization/f7da4368-fb6d-4d73-a75b-f78024cbb18d"}]},"request":{"method":"PUT","url":"Coverage/7950e6e7-3f7b-4e33-9d55-7119759ce14e"}},{"fullUrl":"https://madie.cms.gov/Procedure/a69ad3db-8192-480a-961a-13bd082e39ef","resource":{"resourceType":"Procedure","id":"a69ad3db-8192-480a-961a-13bd082e39ef","meta":{"profile":["http://hl7.org/fhir/us/qicore/StructureDefinition/qicore-procedure"]},"extension":[{"url":"http://hl7.org/fhir/us/qicore/StructureDefinition/qicore-recorded","valueDateTime":"2026-11-19T09:35:00-04:00"}],"status":"completed","code":{"coding":[{"system":"http://www.cms.gov/Medicare/Coding/ICD10","code":"02560ZZ"},{"system":"http://snomed.info/sct","code":"175095005"}]},"subject":{"reference":"Patient/ed792352-3bb4-435d-896a-d221df866142"},"performedPeriod":{"start":"2026-02-09T10:00:00.000Z"}},"request":{"method":"PUT","url":"Procedure/a69ad3db-8192-480a-961a-13bd082e39ef"}},{"fullUrl":"https://madie.cms.gov/Condition/860c842c-ca9b-400b-acdd-b13b73c952e8","resource":{"resourceType":"Condition","id":"860c842c-ca9b-400b-acdd-b13b73c952e8","meta":{"profile":["http://hl7.org/fhir/us/qicore/StructureDefinition/qicore-condition"]},"clinicalStatus":{"coding":[{"system":"http://terminology.hl7.org/CodeSystem/condition-clinical","code":"active"}]},"verificationStatus":{"coding":[{"system":"http://terminology.hl7.org/CodeSystem/condition-ver-status","code":"confirmed"}]},"category":[{"coding":[{"system":"http://terminology.hl7.org/CodeSystem/condition-category","code":"encounter-diagnosis","display":"Encounter Diagnosis"}]}],"code":{"coding":[{"system":"http://snomed.info/sct","version":"2021-09","code":"111297002","display":"Nonparalytic stroke (disorder)","userSelected":true}]},"subject":{"reference":"Patient/ed792352-3bb4-435d-896a-d221df866142"},"recordedDate":"2026-10-13T08:00:00.000+00:00"},"request":{"method":"PUT","url":"Condition/860c842c-ca9b-400b-acdd-b13b73c952e8"}},{"fullUrl":"https://madie.cms.gov/Organization/cfba27f4-a85a-40de-a3f5-2d36a822cbbe","resource":{"resourceType":"Organization","id":"f7da4368-fb6d-4d73-a75b-f78024cbb18d","meta":{"profile":["http://hl7.org/fhir/us/qicore/StructureDefinition/qicore-organization"]},"identifier":[{"use":"temp","system":"urn:oid:2.16.840.1.113883.4.4","value":"21-3259825"}],"active":true,"type":[{"coding":[{"system":"http://terminology.hl7.org/CodeSystem/organization-type","code":"pay","display":"Payer"}]}],"name":"Blue Cross Blue Shield of Texas","telecom":[{"system":"phone","value":"(+1) 972-766-6900"}],"address":[{"use":"billing","type":"postal","line":["P.O. Box 660044"],"city":"Dallas","state":"TX","postalCode":"75266-0044","country":"USA"}]},"request":{"method":"PUT","url":"Organization/f7da4368-fb6d-4d73-a75b-f78024cbb18d"}},{"fullUrl":"https://madie.cms.gov/Practitioner/fafdf9d6-a122-4214-9b19-1375fd8e4ad0","resource":{"resourceType":"Practitioner","id":"fafdf9d6-a122-4214-9b19-1375fd8e4ad0","identifier":[{"system":"http://hl7.org/fhir/sid/us-npi","value":"123456"}],"name":[{"family":"Evil","prefix":["Dr"]}]},"request":{"method":"PUT","url":"Practitioner/fafdf9d6-a122-4214-9b19-1375fd8e4ad0"}},{"fullUrl":"https://madie.cms.gov/MeasureReport/00fb37fb-0b3b-44cf-bc50-c7d0648393a9","resource":{"resourceType":"MeasureReport","id":"00fb37fb-0b3b-44cf-bc50-c7d0648393a9","meta":{"profile":["http://hl7.org/fhir/us/cqfmeasures/StructureDefinition/test-case-cqfm"]},"contained":[{"resourceType":"Parameters","id":"623c8d66-80e4-4e6f-978d-51e43f6234e5-parameters","parameter":[{"name":"subject","valueString":"ed792352-3bb4-435d-896a-d221df866142"}]}],"extension":[{"url":"http://hl7.org/fhir/us/cqfmeasures/StructureDefinition/cqfm-inputParameters","valueReference":{"reference":"#623c8d66-80e4-4e6f-978d-51e43f6234e5-parameters"}},{"url":"http://hl7.org/fhir/us/cqfmeasures/StructureDefinition/cqfm-testCaseDescription","valueMarkdown":"Atrial Ablation starts after OccA Enc start time using relevant period. \n"}],"modifierExtension":[{"url":"http://hl7.org/fhir/us/cqfmeasures/StructureDefinition/cqfm-isTestCase","valueBoolean":true}],"status":"complete","type":"individual","measure":"https://madie.cms.gov/Measure/CMS71FHIRSTKAnticoagAFFlutter","period":{"start":"2026-01-01","end":"2026-12-31"},"group":[{"population":[{"code":{"coding":[{"system":"http://terminology.hl7.org/CodeSystem/measure-population","code":"initial-population","display":"Initial Population"}]},"count":1},{"code":{"coding":[{"system":"http://terminology.hl7.org/CodeSystem/measure-population","code":"denominator","display":"Denominator"}]},"count":0},{"code":{"coding":[{"system":"http://terminology.hl7.org/CodeSystem/measure-population","code":"denominator-exclusion","display":"Denominator Exclusion"}]},"count":0},{"code":{"coding":[{"system":"http://terminology.hl7.org/CodeSystem/measure-population","code":"numerator","display":"Numerator"}]},"count":0},{"code":{"coding":[{"system":"http://terminology.hl7.org/CodeSystem/measure-population","code":"denominator-exception","display":"Denominator Exception"}]},"count":0}]}]},"request":{"method":"PUT","url":"MeasureReport/00fb37fb-0b3b-44cf-bc50-c7d0648393a9"}}]}