{"resourceType":"Bundle","id":"tests-31d1dbd5-28cf-49d0-a38d-0c84497c8457-bundle","type":"transaction","entry":[{"fullUrl":"https://madie.cms.gov/Patient/31d1dbd5-28cf-49d0-a38d-0c84497c8457","resource":{"resourceType":"Patient","id":"31d1dbd5-28cf-49d0-a38d-0c84497c8457","meta":{"profile":["http://hl7.org/fhir/us/qicore/StructureDefinition/qicore-patient"]},"text":{"status":"generated","div":"<div xmlns=\"http://www.w3.org/1999/xhtml\"><div class=\"hapiHeaderText\">NoIPEncounter <b>IPPFAIL </b></div><table class=\"hapiPropertyTable\"><tbody><tr><td>Identifier</td><td>946910ea4598e45468b2565ed3cdbc9e</td></tr><tr><td>Date of birth</td><td><span>01 December 1960</span></td></tr></tbody></table></div>"},"extension":[{"url":"http://hl7.org/fhir/us/core/StructureDefinition/us-core-race","extension":[{"url":"ombCategory","valueCoding":{"system":"urn:oid:2.16.840.1.113883.6.238","code":"1002-5","display":"American Indian or Alaska Native","userSelected":true}},{"url":"text","valueString":"American Indian or Alaska Native"}]},{"url":"http://hl7.org/fhir/us/core/StructureDefinition/us-core-ethnicity","extension":[{"url":"ombCategory","valueCoding":{"system":"urn:oid:2.16.840.1.113883.6.238","code":"2135-2","display":"Hispanic or Latino","userSelected":true}},{"url":"text","valueString":"Hispanic or Latino"}]}],"identifier":[{"type":{"coding":[{"system":"http://terminology.hl7.org/CodeSystem/v2-0203","code":"MR"}]},"system":"https://bonnie-fhir.healthit.gov/","value":"633c9d030968f8012250fc6e"}],"active":true,"name":[{"use":"usual","family":"IPPFail","given":["NoIPEncounter"]}],"gender":"male","birthDate":"1961-12-01"},"request":{"method":"PUT","url":"Patient/31d1dbd5-28cf-49d0-a38d-0c84497c8457"}},{"fullUrl":"https://madie.cms.gov/Encounter/c2c79920-799a-4e8a-9821-e328f1d819d4","resource":{"resourceType":"Encounter","id":"c2c79920-799a-4e8a-9821-e328f1d819d4","meta":{"profile":["http://hl7.org/fhir/us/qicore/StructureDefinition/qicore-encounter"]},"status":"finished","class":{"system":"http://terminology.hl7.org/CodeSystem/v3-ActCode","code":"EMER","display":"emergency"},"type":[{"coding":[{"system":"http://snomed.info/sct","code":"4525004"}]}],"subject":{"reference":"Patient/31d1dbd5-28cf-49d0-a38d-0c84497c8457"},"period":{"start":"2026-02-08T08:00:00.000Z","end":"2026-02-08T08:15:00.000Z"},"length":{"value":0,"unit":"days"},"diagnosis":[{"condition":{"reference":"Condition/5c819731-a299-43ca-a458-e61d0394bbbc"},"use":{"coding":[{"system":"http://terminology.hl7.org/CodeSystem/diagnosis-role","code":"billing","display":"Billing"}]},"rank":1}]},"request":{"method":"PUT","url":"Encounter/c2c79920-799a-4e8a-9821-e328f1d819d4"}},{"fullUrl":"https://madie.cms.gov/Coverage/794b36e0-28da-4494-aba4-c98dd5d17edd","resource":{"resourceType":"Coverage","id":"794b36e0-28da-4494-aba4-c98dd5d17edd","status":"active","beneficiary":{"reference":"Patient/31d1dbd5-28cf-49d0-a38d-0c84497c8457"},"period":{"start":"1961-12-01T08:00:00.000Z"},"payor":[{"reference":"Organization/80e3e0d1-b2aa-43a6-b1d2-00bfa3164a0f"}]},"request":{"method":"PUT","url":"Coverage/794b36e0-28da-4494-aba4-c98dd5d17edd"}},{"fullUrl":"https://madie.cms.gov/Condition/5c819731-a299-43ca-a458-e61d0394bbbc","resource":{"resourceType":"Condition","id":"5c819731-a299-43ca-a458-e61d0394bbbc","meta":{"profile":["http://hl7.org/fhir/us/qicore/StructureDefinition/qicore-condition"]},"clinicalStatus":{"coding":[{"system":"http://terminology.hl7.org/CodeSystem/condition-clinical","code":"active"}]},"verificationStatus":{"coding":[{"system":"http://terminology.hl7.org/CodeSystem/condition-ver-status","code":"confirmed"}]},"category":[{"coding":[{"system":"http://terminology.hl7.org/CodeSystem/condition-category","code":"encounter-diagnosis","display":"Encounter Diagnosis"}]}],"code":{"coding":[{"system":"http://snomed.info/sct","version":"2021-09","code":"111297002","display":"Nonparalytic stroke (disorder)","userSelected":true}]},"subject":{"reference":"Patient/31d1dbd5-28cf-49d0-a38d-0c84497c8457"},"recordedDate":"2026-10-13T08:00:00.000+00:00"},"request":{"method":"PUT","url":"Condition/5c819731-a299-43ca-a458-e61d0394bbbc"}},{"fullUrl":"https://madie.cms.gov/Organization/1b1f31cb-ad40-4c29-a1d9-2b57620e958c","resource":{"resourceType":"Organization","id":"80e3e0d1-b2aa-43a6-b1d2-00bfa3164a0f","meta":{"profile":["http://hl7.org/fhir/us/qicore/StructureDefinition/qicore-organization"]},"identifier":[{"use":"temp","system":"urn:oid:2.16.840.1.113883.4.4","value":"21-3259825"}],"active":true,"type":[{"coding":[{"system":"http://terminology.hl7.org/CodeSystem/organization-type","code":"pay","display":"Payer"}]}],"name":"Blue Cross Blue Shield of Texas","telecom":[{"system":"phone","value":"(+1) 972-766-6900"}],"address":[{"use":"billing","type":"postal","line":["P.O. Box 660044"],"city":"Dallas","state":"TX","postalCode":"75266-0044","country":"USA"}]},"request":{"method":"PUT","url":"Organization/80e3e0d1-b2aa-43a6-b1d2-00bfa3164a0f"}},{"fullUrl":"https://madie.cms.gov/Practitioner/a471164f-4fc5-4c46-beb9-2fbdbf35c42a","resource":{"resourceType":"Practitioner","id":"a471164f-4fc5-4c46-beb9-2fbdbf35c42a","identifier":[{"system":"http://hl7.org/fhir/sid/us-npi","value":"123456"}],"name":[{"family":"Evil","prefix":["Dr"]}]},"request":{"method":"PUT","url":"Practitioner/a471164f-4fc5-4c46-beb9-2fbdbf35c42a"}},{"fullUrl":"https://madie.cms.gov/MeasureReport/e47272ce-e7c1-4c7d-b83c-4bd3fa0d194d","resource":{"resourceType":"MeasureReport","id":"e47272ce-e7c1-4c7d-b83c-4bd3fa0d194d","meta":{"profile":["http://hl7.org/fhir/us/cqfmeasures/StructureDefinition/test-case-cqfm"]},"contained":[{"resourceType":"Parameters","id":"f64e6d86-9601-494f-a9fa-0f2179d1696b-parameters","parameter":[{"name":"subject","valueString":"31d1dbd5-28cf-49d0-a38d-0c84497c8457"}]}],"extension":[{"url":"http://hl7.org/fhir/us/cqfmeasures/StructureDefinition/cqfm-inputParameters","valueReference":{"reference":"#f64e6d86-9601-494f-a9fa-0f2179d1696b-parameters"}},{"url":"http://hl7.org/fhir/us/cqfmeasures/StructureDefinition/cqfm-testCaseDescription","valueMarkdown":"ED visit with Principal Dx = Ischemic Stroke. No inpatient encounter \n"}],"modifierExtension":[{"url":"http://hl7.org/fhir/us/cqfmeasures/StructureDefinition/cqfm-isTestCase","valueBoolean":true}],"status":"complete","type":"individual","measure":"https://madie.cms.gov/Measure/CMS71FHIRSTKAnticoagAFFlutter","period":{"start":"2026-01-01","end":"2026-12-31"},"group":[{"population":[{"code":{"coding":[{"system":"http://terminology.hl7.org/CodeSystem/measure-population","code":"initial-population","display":"Initial Population"}]},"count":0},{"code":{"coding":[{"system":"http://terminology.hl7.org/CodeSystem/measure-population","code":"denominator","display":"Denominator"}]},"count":0},{"code":{"coding":[{"system":"http://terminology.hl7.org/CodeSystem/measure-population","code":"denominator-exclusion","display":"Denominator Exclusion"}]},"count":0},{"code":{"coding":[{"system":"http://terminology.hl7.org/CodeSystem/measure-population","code":"numerator","display":"Numerator"}]},"count":0},{"code":{"coding":[{"system":"http://terminology.hl7.org/CodeSystem/measure-population","code":"denominator-exception","display":"Denominator Exception"}]},"count":0}]}]},"request":{"method":"PUT","url":"MeasureReport/e47272ce-e7c1-4c7d-b83c-4bd3fa0d194d"}}]}