{"resourceType":"Bundle","id":"tests-e549da32-8565-45cb-b432-3d1bcc560cf2-bundle","type":"transaction","entry":[{"fullUrl":"https://madie.cms.gov/Patient/e549da32-8565-45cb-b432-3d1bcc560cf2","resource":{"resourceType":"Patient","id":"e549da32-8565-45cb-b432-3d1bcc560cf2","meta":{"profile":["http://hl7.org/fhir/us/qicore/StructureDefinition/qicore-patient"]},"text":{"status":"generated","div":"<div xmlns=\"http://www.w3.org/1999/xhtml\"><div class=\"hapiHeaderText\">EncDx=HemStroke <b>IPPFAIL </b></div><table class=\"hapiPropertyTable\"><tbody><tr><td>Identifier</td><td>772d231fd1f32fc4c53689105ade52d1</td></tr><tr><td>Date of birth</td><td><span>01 December 1960</span></td></tr></tbody></table></div>"},"extension":[{"url":"http://hl7.org/fhir/us/core/StructureDefinition/us-core-race","extension":[{"url":"ombCategory","valueCoding":{"system":"urn:oid:2.16.840.1.113883.6.238","code":"1002-5","display":"American Indian or Alaska Native","userSelected":true}},{"url":"text","valueString":"American Indian or Alaska Native"}]},{"url":"http://hl7.org/fhir/us/core/StructureDefinition/us-core-ethnicity","extension":[{"url":"ombCategory","valueCoding":{"system":"urn:oid:2.16.840.1.113883.6.238","code":"2135-2","display":"Hispanic or Latino","userSelected":true}},{"url":"text","valueString":"Hispanic or Latino"}]}],"identifier":[{"type":{"coding":[{"system":"http://terminology.hl7.org/CodeSystem/v2-0203","code":"MR"}]},"system":"https://bonnie-fhir.healthit.gov/","value":"633c9d030968f8012250fc96"}],"active":true,"name":[{"use":"usual","family":"IPPFail","given":["EncDx=HemStroke "]}],"gender":"male","birthDate":"1961-12-01"},"request":{"method":"PUT","url":"Patient/e549da32-8565-45cb-b432-3d1bcc560cf2"}},{"fullUrl":"https://madie.cms.gov/Encounter/d6efed25-0f60-49ab-8cfa-b9f0d7eb040b","resource":{"resourceType":"Encounter","id":"d6efed25-0f60-49ab-8cfa-b9f0d7eb040b","meta":{"profile":["http://hl7.org/fhir/us/qicore/StructureDefinition/qicore-encounter"]},"status":"finished","class":{"system":"http://terminology.hl7.org/CodeSystem/v3-ActCode","code":"IMP","display":"inpatient encounter"},"type":[{"coding":[{"system":"http://snomed.info/sct","code":"32485007"}]}],"subject":{"reference":"Patient/e549da32-8565-45cb-b432-3d1bcc560cf2"},"period":{"start":"2026-02-08T08:00:00.000Z","end":"2026-02-10T08:15:00.000Z"},"length":{"value":2.0,"unit":"days"},"diagnosis":[{"condition":{"reference":"Condition/9136611b-52a9-4bba-8b43-0a0cd4550d78"}}]},"request":{"method":"PUT","url":"Encounter/d6efed25-0f60-49ab-8cfa-b9f0d7eb040b"}},{"fullUrl":"https://madie.cms.gov/Coverage/3018239b-d9d0-4ae8-87ed-f6a71575749a","resource":{"resourceType":"Coverage","id":"3018239b-d9d0-4ae8-87ed-f6a71575749a","status":"active","beneficiary":{"reference":"Patient/e549da32-8565-45cb-b432-3d1bcc560cf2"},"period":{"start":"1961-12-01T08:00:00.000Z"},"payor":[{"reference":"Organization/80e3e0d1-b2aa-43a6-b1d2-00bfa3164a0f"}]},"request":{"method":"PUT","url":"Coverage/3018239b-d9d0-4ae8-87ed-f6a71575749a"}},{"fullUrl":"https://madie.cms.gov/Condition/9136611b-52a9-4bba-8b43-0a0cd4550d78","resource":{"resourceType":"Condition","id":"9136611b-52a9-4bba-8b43-0a0cd4550d78","meta":{"profile":["http://hl7.org/fhir/us/qicore/StructureDefinition/qicore-condition"]},"clinicalStatus":{"coding":[{"system":"http://terminology.hl7.org/CodeSystem/condition-clinical","code":"active"}]},"verificationStatus":{"coding":[{"system":"http://terminology.hl7.org/CodeSystem/condition-ver-status","code":"confirmed"}]},"category":[{"coding":[{"system":"http://terminology.hl7.org/CodeSystem/condition-category","code":"encounter-diagnosis","display":"Encounter Diagnosis"}]}],"code":{"coding":[{"system":"http://snomed.info/sct","version":"2021-09","code":"195155004","display":"Subarachnoid hemorrhage from carotid siphon and bifurcation (disorder)","userSelected":true}]},"subject":{"reference":"Patient/e549da32-8565-45cb-b432-3d1bcc560cf2"},"recordedDate":"2026-10-13T08:00:00.000+00:00"},"request":{"method":"PUT","url":"Condition/9136611b-52a9-4bba-8b43-0a0cd4550d78"}},{"fullUrl":"https://madie.cms.gov/Organization/31f53779-6965-4ccd-a5f8-53cdde80809d","resource":{"resourceType":"Organization","id":"80e3e0d1-b2aa-43a6-b1d2-00bfa3164a0f","meta":{"profile":["http://hl7.org/fhir/us/qicore/StructureDefinition/qicore-organization"]},"identifier":[{"use":"temp","system":"urn:oid:2.16.840.1.113883.4.4","value":"21-3259825"}],"active":true,"type":[{"coding":[{"system":"http://terminology.hl7.org/CodeSystem/organization-type","code":"pay","display":"Payer"}]}],"name":"Blue Cross Blue Shield of Texas","telecom":[{"system":"phone","value":"(+1) 972-766-6900"}],"address":[{"use":"billing","type":"postal","line":["P.O. Box 660044"],"city":"Dallas","state":"TX","postalCode":"75266-0044","country":"USA"}]},"request":{"method":"PUT","url":"Organization/80e3e0d1-b2aa-43a6-b1d2-00bfa3164a0f"}},{"fullUrl":"https://madie.cms.gov/Practitioner/67bf908b-60e6-4978-9177-bcb1a344c437","resource":{"resourceType":"Practitioner","id":"67bf908b-60e6-4978-9177-bcb1a344c437","identifier":[{"system":"http://hl7.org/fhir/sid/us-npi","value":"123456"}],"name":[{"family":"Evil","prefix":["Dr"]}]},"request":{"method":"PUT","url":"Practitioner/67bf908b-60e6-4978-9177-bcb1a344c437"}},{"fullUrl":"https://madie.cms.gov/MeasureReport/1dd06277-3a2f-4e32-b4df-6a274e89f297","resource":{"resourceType":"MeasureReport","id":"1dd06277-3a2f-4e32-b4df-6a274e89f297","meta":{"profile":["http://hl7.org/fhir/us/cqfmeasures/StructureDefinition/test-case-cqfm"]},"contained":[{"resourceType":"Parameters","id":"3c1a91a8-7540-42b9-9f17-d1ea57d86525-parameters","parameter":[{"name":"subject","valueString":"e549da32-8565-45cb-b432-3d1bcc560cf2"}]}],"extension":[{"url":"http://hl7.org/fhir/us/cqfmeasures/StructureDefinition/cqfm-inputParameters","valueReference":{"reference":"#3c1a91a8-7540-42b9-9f17-d1ea57d86525-parameters"}},{"url":"http://hl7.org/fhir/us/cqfmeasures/StructureDefinition/cqfm-testCaseDescription","valueMarkdown":"Enc diagnosis = Hem stroke\n"}],"modifierExtension":[{"url":"http://hl7.org/fhir/us/cqfmeasures/StructureDefinition/cqfm-isTestCase","valueBoolean":true}],"status":"complete","type":"individual","measure":"https://madie.cms.gov/Measure/CMS71FHIRSTKAnticoagAFFlutter","period":{"start":"2026-01-01","end":"2026-12-31"},"group":[{"population":[{"code":{"coding":[{"system":"http://terminology.hl7.org/CodeSystem/measure-population","code":"initial-population","display":"Initial Population"}]},"count":0},{"code":{"coding":[{"system":"http://terminology.hl7.org/CodeSystem/measure-population","code":"denominator","display":"Denominator"}]},"count":0},{"code":{"coding":[{"system":"http://terminology.hl7.org/CodeSystem/measure-population","code":"denominator-exclusion","display":"Denominator Exclusion"}]},"count":0},{"code":{"coding":[{"system":"http://terminology.hl7.org/CodeSystem/measure-population","code":"numerator","display":"Numerator"}]},"count":0},{"code":{"coding":[{"system":"http://terminology.hl7.org/CodeSystem/measure-population","code":"denominator-exception","display":"Denominator Exception"}]},"count":0}]}]},"request":{"method":"PUT","url":"MeasureReport/1dd06277-3a2f-4e32-b4df-6a274e89f297"}}]}