{"resourceType":"Bundle","id":"tests-971fefaa-cfa2-4e36-80d6-319f748d4b5f-bundle","type":"transaction","entry":[{"fullUrl":"https://madie.cms.gov/Patient/971fefaa-cfa2-4e36-80d6-319f748d4b5f","resource":{"resourceType":"Patient","id":"971fefaa-cfa2-4e36-80d6-319f748d4b5f","meta":{"profile":["http://hl7.org/fhir/us/qicore/StructureDefinition/qicore-patient"]},"text":{"status":"generated","div":"<div xmlns=\"http://www.w3.org/1999/xhtml\"><div class=\"hapiHeaderText\">AMA <b>DENEXPASS </b></div><table class=\"hapiPropertyTable\"><tbody><tr><td>Identifier</td><td>b38296647323cdc7f628f752ac1b84d0</td></tr><tr><td>Date of birth</td><td><span>31 July 1969</span></td></tr></tbody></table></div>"},"extension":[{"url":"http://hl7.org/fhir/us/core/StructureDefinition/us-core-race","extension":[{"url":"ombCategory","valueCoding":{"system":"urn:oid:2.16.840.1.113883.6.238","code":"1002-5","display":"American Indian or Alaska Native","userSelected":true}},{"url":"text","valueString":"American Indian or Alaska Native"}]},{"url":"http://hl7.org/fhir/us/core/StructureDefinition/us-core-ethnicity","extension":[{"url":"ombCategory","valueCoding":{"system":"urn:oid:2.16.840.1.113883.6.238","code":"2135-2","display":"Hispanic or Latino","userSelected":true}},{"url":"text","valueString":"Hispanic or Latino"}]}],"identifier":[{"type":{"coding":[{"system":"http://terminology.hl7.org/CodeSystem/v2-0203","code":"MR"}]},"system":"https://bonnie-fhir.healthit.gov/","value":"633c9d020968f8012250fc64"}],"active":true,"name":[{"use":"usual","family":"DENEXPass","given":["AMA"]}],"gender":"male","birthDate":"1970-07-31"},"request":{"method":"PUT","url":"Patient/971fefaa-cfa2-4e36-80d6-319f748d4b5f"}},{"fullUrl":"https://madie.cms.gov/Encounter/d16f098e-e6e0-4afd-b753-6e17c8e9b9f1","resource":{"resourceType":"Encounter","id":"d16f098e-e6e0-4afd-b753-6e17c8e9b9f1","meta":{"profile":["http://hl7.org/fhir/us/qicore/StructureDefinition/qicore-encounter"]},"status":"finished","class":{"system":"http://terminology.hl7.org/CodeSystem/v3-ActCode","code":"IMP","display":"inpatient encounter"},"type":[{"coding":[{"system":"http://snomed.info/sct","code":"32485007"}]}],"subject":{"reference":"Patient/971fefaa-cfa2-4e36-80d6-319f748d4b5f"},"period":{"start":"2026-11-20T08:00:00.000Z","end":"2026-11-24T08:15:00.000Z"},"length":{"value":4,"unit":"days"},"diagnosis":[{"condition":{"reference":"Condition/cb5e8085-a02b-42c5-ae36-30b6c34ff59c"},"use":{"coding":[{"system":"http://terminology.hl7.org/CodeSystem/diagnosis-role","code":"billing","display":"Billing"}]},"rank":1}],"hospitalization":{"dischargeDisposition":{"coding":[{"system":"http://snomed.info/sct","code":"445060000","display":"Left Against Medical Advice"}]}}},"request":{"method":"PUT","url":"Encounter/d16f098e-e6e0-4afd-b753-6e17c8e9b9f1"}},{"fullUrl":"https://madie.cms.gov/Coverage/7f2cc7d5-3ae0-4c35-9d2c-575b0db89a4a","resource":{"resourceType":"Coverage","id":"7f2cc7d5-3ae0-4c35-9d2c-575b0db89a4a","meta":{"profile":["http://hl7.org/fhir/us/qicore/StructureDefinition/qicore-coverage"]},"status":"active","type":{"coding":[{"system":"https://nahdo.org/sopt","code":"1","display":"MEDICARE"}]},"beneficiary":{"reference":"Patient/971fefaa-cfa2-4e36-80d6-319f748d4b5f"},"period":{"start":"1970-07-31T08:00:00.000Z"},"payor":[{"reference":"Organization/607fdef9-3983-4cef-ab1a-95434d29b463"}]},"request":{"method":"PUT","url":"Coverage/7f2cc7d5-3ae0-4c35-9d2c-575b0db89a4a"}},{"fullUrl":"https://madie.cms.gov/Procedure/413ffa67-47de-4f3a-97ba-7e4762b70c8d","resource":{"resourceType":"Procedure","id":"413ffa67-47de-4f3a-97ba-7e4762b70c8d","meta":{"profile":["http://hl7.org/fhir/us/qicore/StructureDefinition/qicore-procedure"]},"extension":[{"url":"http://hl7.org/fhir/us/qicore/StructureDefinition/qicore-recorded","valueDateTime":"2026-11-19T09:35:00-04:00"}],"status":"completed","code":{"coding":[{"system":"http://www.cms.gov/Medicare/Coding/ICD10","code":"02560ZZ"},{"system":"http://snomed.info/sct","code":"175095005"}]},"subject":{"reference":"Patient/971fefaa-cfa2-4e36-80d6-319f748d4b5f"},"performedPeriod":{"start":"2026-11-19T08:00:00.000Z","end":"2026-11-20T08:15:00.000Z"}},"request":{"method":"PUT","url":"Procedure/413ffa67-47de-4f3a-97ba-7e4762b70c8d"}},{"fullUrl":"https://madie.cms.gov/Condition/cb5e8085-a02b-42c5-ae36-30b6c34ff59c","resource":{"resourceType":"Condition","id":"cb5e8085-a02b-42c5-ae36-30b6c34ff59c","meta":{"profile":["http://hl7.org/fhir/us/qicore/StructureDefinition/qicore-condition"]},"clinicalStatus":{"coding":[{"system":"http://terminology.hl7.org/CodeSystem/condition-clinical","code":"active"}]},"verificationStatus":{"coding":[{"system":"http://terminology.hl7.org/CodeSystem/condition-ver-status","code":"confirmed"}]},"category":[{"coding":[{"system":"http://terminology.hl7.org/CodeSystem/condition-category","code":"encounter-diagnosis","display":"Encounter Diagnosis"}]}],"code":{"coding":[{"system":"http://snomed.info/sct","version":"2021-09","code":"111297002","display":"Nonparalytic stroke (disorder)","userSelected":true}]},"subject":{"reference":"Patient/971fefaa-cfa2-4e36-80d6-319f748d4b5f"},"recordedDate":"2026-10-04T08:00:00.000+00:00"},"request":{"method":"PUT","url":"Condition/cb5e8085-a02b-42c5-ae36-30b6c34ff59c"}},{"fullUrl":"https://madie.cms.gov/Organization/6b3f0506-dda4-4b3e-9c94-f22a1308f46b","resource":{"resourceType":"Organization","id":"607fdef9-3983-4cef-ab1a-95434d29b463","meta":{"profile":["http://hl7.org/fhir/us/qicore/StructureDefinition/qicore-organization"]},"identifier":[{"use":"temp","system":"urn:oid:2.16.840.1.113883.4.4","value":"21-3259825"}],"active":true,"type":[{"coding":[{"system":"http://terminology.hl7.org/CodeSystem/organization-type","code":"pay","display":"Payer"}]}],"name":"Blue Cross Blue Shield of Texas","telecom":[{"system":"phone","value":"(+1) 972-766-6900"}],"address":[{"use":"billing","type":"postal","line":["P.O. Box 660044"],"city":"Dallas","state":"TX","postalCode":"75266-0044","country":"USA"}]},"request":{"method":"PUT","url":"Organization/607fdef9-3983-4cef-ab1a-95434d29b463"}},{"fullUrl":"https://madie.cms.gov/Practitioner/827243f5-5ae5-4069-8710-2f38af7315f8","resource":{"resourceType":"Practitioner","id":"827243f5-5ae5-4069-8710-2f38af7315f8","identifier":[{"system":"http://hl7.org/fhir/sid/us-npi","value":"123456"}],"name":[{"family":"Evil","prefix":["Dr"]}]},"request":{"method":"PUT","url":"Practitioner/827243f5-5ae5-4069-8710-2f38af7315f8"}},{"fullUrl":"https://madie.cms.gov/MeasureReport/099e45ca-c710-4e97-8cef-ef5448c64374","resource":{"resourceType":"MeasureReport","id":"099e45ca-c710-4e97-8cef-ef5448c64374","meta":{"profile":["http://hl7.org/fhir/us/cqfmeasures/StructureDefinition/test-case-cqfm"]},"contained":[{"resourceType":"Parameters","id":"66787c6e-f676-433e-9880-52dc1dbf0c5d-parameters","parameter":[{"name":"subject","valueString":"971fefaa-cfa2-4e36-80d6-319f748d4b5f"}]}],"extension":[{"url":"http://hl7.org/fhir/us/cqfmeasures/StructureDefinition/cqfm-inputParameters","valueReference":{"reference":"#66787c6e-f676-433e-9880-52dc1dbf0c5d-parameters"}},{"url":"http://hl7.org/fhir/us/cqfmeasures/StructureDefinition/cqfm-testCaseDescription","valueMarkdown":"Added this to test Payer"}],"modifierExtension":[{"url":"http://hl7.org/fhir/us/cqfmeasures/StructureDefinition/cqfm-isTestCase","valueBoolean":true}],"status":"complete","type":"individual","measure":"https://madie.cms.gov/Measure/CMS71FHIRSTKAnticoagAFFlutter","period":{"start":"2026-01-01","end":"2026-12-31"},"group":[{"population":[{"code":{"coding":[{"system":"http://terminology.hl7.org/CodeSystem/measure-population","code":"initial-population","display":"Initial Population"}]},"count":1},{"code":{"coding":[{"system":"http://terminology.hl7.org/CodeSystem/measure-population","code":"denominator","display":"Denominator"}]},"count":1},{"code":{"coding":[{"system":"http://terminology.hl7.org/CodeSystem/measure-population","code":"denominator-exclusion","display":"Denominator Exclusion"}]},"count":1},{"code":{"coding":[{"system":"http://terminology.hl7.org/CodeSystem/measure-population","code":"numerator","display":"Numerator"}]},"count":0},{"code":{"coding":[{"system":"http://terminology.hl7.org/CodeSystem/measure-population","code":"denominator-exception","display":"Denominator Exception"}]},"count":0}]}]},"request":{"method":"PUT","url":"MeasureReport/099e45ca-c710-4e97-8cef-ef5448c64374"}}]}