{"resourceType":"Bundle","id":"tests-ccfddeae-a86e-4e43-adca-2ceef716970e-bundle","type":"transaction","entry":[{"fullUrl":"https://madie.cms.gov/Patient/ccfddeae-a86e-4e43-adca-2ceef716970e","resource":{"resourceType":"Patient","id":"ccfddeae-a86e-4e43-adca-2ceef716970e","meta":{"profile":["http://hl7.org/fhir/us/qicore/StructureDefinition/qicore-patient"]},"text":{"status":"generated","div":"<div xmlns=\"http://www.w3.org/1999/xhtml\"><div class=\"hapiHeaderText\">MedDCAnticoaStartTmEQEncAdmTm <b>NUMERPASS </b></div><table class=\"hapiPropertyTable\"><tbody><tr><td>Identifier</td><td>31fcea6cd6f0c1c8b9c40622729fede7</td></tr><tr><td>Date of birth</td><td><span>23 May 1954</span></td></tr></tbody></table></div>"},"extension":[{"url":"http://hl7.org/fhir/us/core/StructureDefinition/us-core-race","extension":[{"url":"ombCategory","valueCoding":{"system":"urn:oid:2.16.840.1.113883.6.238","code":"1002-5","display":"American Indian or Alaska Native","userSelected":true}},{"url":"text","valueString":"American Indian or Alaska Native"}]},{"url":"http://hl7.org/fhir/us/core/StructureDefinition/us-core-ethnicity","extension":[{"url":"ombCategory","valueCoding":{"system":"urn:oid:2.16.840.1.113883.6.238","code":"2135-2","display":"Hispanic or Latino","userSelected":true}},{"url":"text","valueString":"Hispanic or Latino"}]}],"identifier":[{"type":{"coding":[{"system":"http://terminology.hl7.org/CodeSystem/v2-0203","code":"MR"}]},"system":"https://bonnie-fhir.healthit.gov/","value":"633c9d030968f8012250fc93"}],"active":true,"name":[{"use":"usual","family":"NUMERPass","given":["MedDCAnticoaStartTmEQEncAdmTm"]}],"gender":"female","birthDate":"1955-05-23"},"request":{"method":"PUT","url":"Patient/ccfddeae-a86e-4e43-adca-2ceef716970e"}},{"fullUrl":"https://madie.cms.gov/Observation/63188451-9834-4677-afa6-e060c3e58d84","resource":{"resourceType":"Observation","id":"63188451-9834-4677-afa6-e060c3e58d84","meta":{"profile":["http://hl7.org/fhir/us/qicore/StructureDefinition/qicore-observation"]},"status":"final","category":[{"coding":[{"system":"http://terminology.hl7.org/CodeSystem/observation-category","code":"exam","display":"exam","userSelected":true}]}],"code":{"coding":[{"system":"http://snomed.info/sct","code":"429508000"}]},"subject":{"reference":"Patient/ccfddeae-a86e-4e43-adca-2ceef716970e"},"effectiveDateTime":"2026-11-20T08:00:00.000Z","valueDateTime":"2026-11-24T08:15:00.000Z"},"request":{"method":"PUT","url":"Observation/63188451-9834-4677-afa6-e060c3e58d84"}},{"fullUrl":"https://madie.cms.gov/Encounter/53adfa0c-7367-46b8-9b96-fe8234517ba4","resource":{"resourceType":"Encounter","id":"53adfa0c-7367-46b8-9b96-fe8234517ba4","meta":{"profile":["http://hl7.org/fhir/us/qicore/StructureDefinition/qicore-encounter"]},"status":"finished","class":{"system":"http://terminology.hl7.org/CodeSystem/v3-ActCode","code":"IMP","display":"inpatient encounter"},"type":[{"coding":[{"system":"http://snomed.info/sct","code":"32485007"}]}],"subject":{"reference":"Patient/ccfddeae-a86e-4e43-adca-2ceef716970e"},"period":{"start":"2026-11-20T08:00:00.000Z","end":"2026-11-24T08:15:00.000Z"},"length":{"value":4,"unit":"days"},"diagnosis":[{"condition":{"reference":"Condition/dedffeaf-2ac6-438d-97a5-5c377b197509"},"use":{"coding":[{"system":"http://terminology.hl7.org/CodeSystem/diagnosis-role","code":"billing","display":"Billing"}]},"rank":1}]},"request":{"method":"PUT","url":"Encounter/53adfa0c-7367-46b8-9b96-fe8234517ba4"}},{"fullUrl":"https://madie.cms.gov/MedicationRequest/5d8dc456-9a78-4179-b2e8-6996db80e9db","resource":{"resourceType":"MedicationRequest","id":"5d8dc456-9a78-4179-b2e8-6996db80e9db","meta":{"profile":["http://hl7.org/fhir/us/qicore/StructureDefinition/qicore-medicationrequest"]},"status":"active","intent":"order","category":[{"coding":[{"system":"http://terminology.hl7.org/CodeSystem/medicationrequest-category","code":"community","display":"Community","userSelected":true}]}],"medicationCodeableConcept":{"coding":[{"system":"http://www.nlm.nih.gov/research/umls/rxnorm","code":"308351"}]},"subject":{"reference":"Patient/ccfddeae-a86e-4e43-adca-2ceef716970e"},"authoredOn":"2026-11-20T08:00:00.000+00:00","requester":{"reference":"Practitioner/example"}},"request":{"method":"PUT","url":"MedicationRequest/5d8dc456-9a78-4179-b2e8-6996db80e9db"}},{"fullUrl":"https://madie.cms.gov/Coverage/094761f1-c201-45ea-99f2-f4d35b002fa3","resource":{"resourceType":"Coverage","id":"094761f1-c201-45ea-99f2-f4d35b002fa3","status":"active","beneficiary":{"reference":"Patient/ccfddeae-a86e-4e43-adca-2ceef716970e"},"period":{"start":"1955-05-23T08:00:00.000Z"},"payor":[{"reference":"Organization/f4907415-83c5-4eae-ab0b-cb63a840880d"}]},"request":{"method":"PUT","url":"Coverage/094761f1-c201-45ea-99f2-f4d35b002fa3"}},{"fullUrl":"https://madie.cms.gov/Condition/dedffeaf-2ac6-438d-97a5-5c377b197509","resource":{"resourceType":"Condition","id":"dedffeaf-2ac6-438d-97a5-5c377b197509","meta":{"profile":["http://hl7.org/fhir/us/qicore/StructureDefinition/qicore-condition"]},"clinicalStatus":{"coding":[{"system":"http://terminology.hl7.org/CodeSystem/condition-clinical","code":"active"}]},"verificationStatus":{"coding":[{"system":"http://terminology.hl7.org/CodeSystem/condition-ver-status","code":"confirmed"}]},"category":[{"coding":[{"system":"http://terminology.hl7.org/CodeSystem/condition-category","code":"encounter-diagnosis","display":"Encounter Diagnosis"}]}],"code":{"coding":[{"system":"http://snomed.info/sct","version":"2021-09","code":"111297002","display":"Nonparalytic stroke (disorder)","userSelected":true}]},"subject":{"reference":"Patient/ccfddeae-a86e-4e43-adca-2ceef716970e"},"recordedDate":"2026-10-13T08:00:00.000+00:00"},"request":{"method":"PUT","url":"Condition/dedffeaf-2ac6-438d-97a5-5c377b197509"}},{"fullUrl":"https://madie.cms.gov/Organization/754c5d45-eb5e-4a58-bdf3-8592ee951220","resource":{"resourceType":"Organization","id":"f4907415-83c5-4eae-ab0b-cb63a840880d","meta":{"profile":["http://hl7.org/fhir/us/qicore/StructureDefinition/qicore-organization"]},"identifier":[{"use":"temp","system":"urn:oid:2.16.840.1.113883.4.4","value":"21-3259825"}],"active":true,"type":[{"coding":[{"system":"http://terminology.hl7.org/CodeSystem/organization-type","code":"pay","display":"Payer"}]}],"name":"Blue Cross Blue Shield of Texas","telecom":[{"system":"phone","value":"(+1) 972-766-6900"}],"address":[{"use":"billing","type":"postal","line":["P.O. Box 660044"],"city":"Dallas","state":"TX","postalCode":"75266-0044","country":"USA"}]},"request":{"method":"PUT","url":"Organization/f4907415-83c5-4eae-ab0b-cb63a840880d"}},{"fullUrl":"https://madie.cms.gov/Practitioner/90d79a27-d030-4f0f-8ef1-3e4f00a9fbd6","resource":{"resourceType":"Practitioner","id":"90d79a27-d030-4f0f-8ef1-3e4f00a9fbd6","identifier":[{"system":"http://hl7.org/fhir/sid/us-npi","value":"123456"}],"name":[{"family":"Evil","prefix":["Dr"]}]},"request":{"method":"PUT","url":"Practitioner/90d79a27-d030-4f0f-8ef1-3e4f00a9fbd6"}},{"fullUrl":"https://madie.cms.gov/MeasureReport/7c9de8ea-924d-4e0f-9809-6346a5606804","resource":{"resourceType":"MeasureReport","id":"7c9de8ea-924d-4e0f-9809-6346a5606804","meta":{"profile":["http://hl7.org/fhir/us/cqfmeasures/StructureDefinition/test-case-cqfm"]},"contained":[{"resourceType":"Parameters","id":"51adb0d3-980a-4eb9-b8ed-ceec359ed680-parameters","parameter":[{"name":"subject","valueString":"ccfddeae-a86e-4e43-adca-2ceef716970e"}]}],"extension":[{"url":"http://hl7.org/fhir/us/cqfmeasures/StructureDefinition/cqfm-inputParameters","valueReference":{"reference":"#51adb0d3-980a-4eb9-b8ed-ceec359ed680-parameters"}},{"url":"http://hl7.org/fhir/us/cqfmeasures/StructureDefinition/cqfm-testCaseDescription","valueMarkdown":"Discharge on Anticoagulation with Observation HX of ablation"}],"modifierExtension":[{"url":"http://hl7.org/fhir/us/cqfmeasures/StructureDefinition/cqfm-isTestCase","valueBoolean":true}],"status":"complete","type":"individual","measure":"https://madie.cms.gov/Measure/CMS71FHIRSTKAnticoagAFFlutter","period":{"start":"2026-01-01","end":"2026-12-31"},"group":[{"population":[{"code":{"coding":[{"system":"http://terminology.hl7.org/CodeSystem/measure-population","code":"initial-population","display":"Initial Population"}]},"count":1},{"code":{"coding":[{"system":"http://terminology.hl7.org/CodeSystem/measure-population","code":"denominator","display":"Denominator"}]},"count":1},{"code":{"coding":[{"system":"http://terminology.hl7.org/CodeSystem/measure-population","code":"denominator-exclusion","display":"Denominator Exclusion"}]},"count":0},{"code":{"coding":[{"system":"http://terminology.hl7.org/CodeSystem/measure-population","code":"numerator","display":"Numerator"}]},"count":1},{"code":{"coding":[{"system":"http://terminology.hl7.org/CodeSystem/measure-population","code":"denominator-exception","display":"Denominator Exception"}]},"count":0}]}]},"request":{"method":"PUT","url":"MeasureReport/7c9de8ea-924d-4e0f-9809-6346a5606804"}}]}