{"resourceType":"Bundle","id":"tests-86d68293-66ae-425b-bc4a-9ce429f4621e-bundle","type":"transaction","entry":[{"fullUrl":"https://madie.cms.gov/Patient/86d68293-66ae-425b-bc4a-9ce429f4621e","resource":{"resourceType":"Patient","id":"86d68293-66ae-425b-bc4a-9ce429f4621e","meta":{"profile":["http://hl7.org/fhir/us/qicore/StructureDefinition/qicore-patient"]},"text":{"status":"generated","div":"<div xmlns=\"http://www.w3.org/1999/xhtml\"><div class=\"hapiHeaderText\">CMPdurEnc_NoEDNoObsBFEnc_DateTime <b>DENEXPASS </b></div><table class=\"hapiPropertyTable\"><tbody><tr><td>Identifier</td><td>669cd2691aaab3d70b8b307e64426a43</td></tr><tr><td>Date of birth</td><td><span>18 September 1985</span></td></tr></tbody></table></div>"},"extension":[{"url":"http://hl7.org/fhir/us/core/StructureDefinition/us-core-race","extension":[{"url":"ombCategory","valueCoding":{"system":"urn:oid:2.16.840.1.113883.6.238","code":"1002-5","display":"American Indian or Alaska Native","userSelected":true}},{"url":"text","valueString":"American Indian or Alaska Native"}]},{"url":"http://hl7.org/fhir/us/core/StructureDefinition/us-core-ethnicity","extension":[{"url":"ombCategory","valueCoding":{"system":"urn:oid:2.16.840.1.113883.6.238","code":"2135-2","display":"Hispanic or Latino","userSelected":true}},{"url":"text","valueString":"Hispanic or Latino"}]}],"identifier":[{"type":{"coding":[{"system":"http://terminology.hl7.org/CodeSystem/v2-0203","code":"MR"}]},"system":"https://bonnie-fhir.healthit.gov/","value":"633c9d040968f8012250fcb4"}],"active":true,"name":[{"use":"usual","family":"DENEXPass","given":["CMPdurEnc_NoEDNoObsBFEnc_DateTime"]}],"gender":"female","birthDate":"1986-09-18"},"request":{"method":"PUT","url":"Patient/86d68293-66ae-425b-bc4a-9ce429f4621e"}},{"fullUrl":"https://madie.cms.gov/Condition/a533e9bf-d3a1-4f45-bf3c-2af24f8acfe2","resource":{"resourceType":"Condition","id":"a533e9bf-d3a1-4f45-bf3c-2af24f8acfe2","meta":{"profile":["http://hl7.org/fhir/us/qicore/StructureDefinition/qicore-condition"]},"clinicalStatus":{"coding":[{"system":"http://terminology.hl7.org/CodeSystem/condition-clinical","code":"inactive"}]},"verificationStatus":{"coding":[{"system":"http://terminology.hl7.org/CodeSystem/condition-ver-status","code":"confirmed"}]},"category":[{"coding":[{"system":"http://terminology.hl7.org/CodeSystem/condition-category","code":"encounter-diagnosis","display":"Encounter Diagnosis"}]}],"code":{"coding":[{"system":"http://hl7.org/fhir/sid/icd-10-cm","code":"I48.20"},{"system":"http://hl7.org/fhir/sid/icd-10-cm","code":"I48.0"},{"system":"http://snomed.info/sct","code":"5370000"}]},"subject":{"reference":"Patient/86d68293-66ae-425b-bc4a-9ce429f4621e"},"onsetDateTime":"2026-10-01T09:00:00.000Z","abatementDateTime":"2026-10-12T00:15:00.000Z"},"request":{"method":"PUT","url":"Condition/a533e9bf-d3a1-4f45-bf3c-2af24f8acfe2"}},{"fullUrl":"https://madie.cms.gov/Encounter/ea15c300-807d-4418-b4b5-fba2d33eed63","resource":{"resourceType":"Encounter","id":"ea15c300-807d-4418-b4b5-fba2d33eed63","meta":{"profile":["http://hl7.org/fhir/us/qicore/StructureDefinition/qicore-encounter"]},"status":"finished","class":{"system":"http://terminology.hl7.org/CodeSystem/v3-ActCode","code":"IMP","display":"inpatient encounter"},"type":[{"coding":[{"system":"http://snomed.info/sct","code":"32485007"}]}],"subject":{"reference":"Patient/86d68293-66ae-425b-bc4a-9ce429f4621e"},"period":{"start":"2026-10-01T09:00:00.000Z","end":"2026-10-12T00:15:00.000Z"},"length":{"value":11,"unit":"days"},"diagnosis":[{"condition":{"reference":"Condition/6bfc0ab1-5dd1-449a-b7d4-17e9282bcf1b"},"use":{"coding":[{"system":"http://terminology.hl7.org/CodeSystem/diagnosis-role","code":"billing","display":"Billing"}]},"rank":1}]},"request":{"method":"PUT","url":"Encounter/ea15c300-807d-4418-b4b5-fba2d33eed63"}},{"fullUrl":"https://madie.cms.gov/Procedure/fc68ae1d-afa4-4003-ae46-902f236ec6d0","resource":{"resourceType":"Procedure","id":"fc68ae1d-afa4-4003-ae46-902f236ec6d0","meta":{"profile":["http://hl7.org/fhir/us/qicore/StructureDefinition/qicore-procedure"]},"extension":[{"url":"http://hl7.org/fhir/us/qicore/StructureDefinition/qicore-recorded","valueDateTime":"2026-11-19T09:35:00-04:00"}],"status":"completed","code":{"coding":[{"system":"http://snomed.info/sct","code":"133918004"}]},"subject":{"reference":"Patient/86d68293-66ae-425b-bc4a-9ce429f4621e"},"performedDateTime":"2026-10-01T09:01:00.000+00:00"},"request":{"method":"PUT","url":"Procedure/fc68ae1d-afa4-4003-ae46-902f236ec6d0"}},{"fullUrl":"https://madie.cms.gov/Coverage/d42fe1f3-708a-4283-8e36-b19f5939c10b","resource":{"resourceType":"Coverage","id":"d42fe1f3-708a-4283-8e36-b19f5939c10b","status":"active","beneficiary":{"reference":"Patient/86d68293-66ae-425b-bc4a-9ce429f4621e"},"period":{"start":"1986-09-18T08:00:00.000Z"},"payor":[{"reference":"Organization/a6c3e6fa-301e-4714-9d04-3dde9a7e7c49"}]},"request":{"method":"PUT","url":"Coverage/d42fe1f3-708a-4283-8e36-b19f5939c10b"}},{"fullUrl":"https://madie.cms.gov/Condition/6bfc0ab1-5dd1-449a-b7d4-17e9282bcf1b","resource":{"resourceType":"Condition","id":"6bfc0ab1-5dd1-449a-b7d4-17e9282bcf1b","meta":{"profile":["http://hl7.org/fhir/us/qicore/StructureDefinition/qicore-condition"]},"clinicalStatus":{"coding":[{"system":"http://terminology.hl7.org/CodeSystem/condition-clinical","code":"active"}]},"verificationStatus":{"coding":[{"system":"http://terminology.hl7.org/CodeSystem/condition-ver-status","code":"confirmed"}]},"category":[{"coding":[{"system":"http://terminology.hl7.org/CodeSystem/condition-category","code":"encounter-diagnosis","display":"Encounter Diagnosis"}]}],"code":{"coding":[{"system":"http://snomed.info/sct","version":"2021-09","code":"111297002","display":"Nonparalytic stroke (disorder)","userSelected":true}]},"subject":{"reference":"Patient/86d68293-66ae-425b-bc4a-9ce429f4621e"},"recordedDate":"2026-10-13T08:00:00.000+00:00"},"request":{"method":"PUT","url":"Condition/6bfc0ab1-5dd1-449a-b7d4-17e9282bcf1b"}},{"fullUrl":"https://madie.cms.gov/Organization/7919bf55-0691-42d2-8a0b-f833cbcda1b6","resource":{"resourceType":"Organization","id":"a6c3e6fa-301e-4714-9d04-3dde9a7e7c49","meta":{"profile":["http://hl7.org/fhir/us/qicore/StructureDefinition/qicore-organization"]},"identifier":[{"use":"temp","system":"urn:oid:2.16.840.1.113883.4.4","value":"21-3259825"}],"active":true,"type":[{"coding":[{"system":"http://terminology.hl7.org/CodeSystem/organization-type","code":"pay","display":"Payer"}]}],"name":"Blue Cross Blue Shield of Texas","telecom":[{"system":"phone","value":"(+1) 972-766-6900"}],"address":[{"use":"billing","type":"postal","line":["P.O. Box 660044"],"city":"Dallas","state":"TX","postalCode":"75266-0044","country":"USA"}]},"request":{"method":"PUT","url":"Organization/a6c3e6fa-301e-4714-9d04-3dde9a7e7c49"}},{"fullUrl":"https://madie.cms.gov/Practitioner/9d3e262b-c732-4f18-ba78-9210547a729b","resource":{"resourceType":"Practitioner","id":"9d3e262b-c732-4f18-ba78-9210547a729b","identifier":[{"system":"http://hl7.org/fhir/sid/us-npi","value":"123456"}],"name":[{"family":"Evil","prefix":["Dr"]}]},"request":{"method":"PUT","url":"Practitioner/9d3e262b-c732-4f18-ba78-9210547a729b"}},{"fullUrl":"https://madie.cms.gov/MeasureReport/483eb769-dc49-4cec-a5f8-7e48b131916c","resource":{"resourceType":"MeasureReport","id":"483eb769-dc49-4cec-a5f8-7e48b131916c","meta":{"profile":["http://hl7.org/fhir/us/cqfmeasures/StructureDefinition/test-case-cqfm"]},"contained":[{"resourceType":"Parameters","id":"e6b63198-4228-49e6-a955-202887a99be1-parameters","parameter":[{"name":"subject","valueString":"86d68293-66ae-425b-bc4a-9ce429f4621e"}]}],"extension":[{"url":"http://hl7.org/fhir/us/cqfmeasures/StructureDefinition/cqfm-inputParameters","valueReference":{"reference":"#e6b63198-4228-49e6-a955-202887a99be1-parameters"}},{"url":"http://hl7.org/fhir/us/cqfmeasures/StructureDefinition/cqfm-testCaseDescription","valueMarkdown":"Patient receives CMP during inpatient encounter. No ED. No Obs. Testing HospitalizationWithObservation function\n"}],"modifierExtension":[{"url":"http://hl7.org/fhir/us/cqfmeasures/StructureDefinition/cqfm-isTestCase","valueBoolean":true}],"status":"complete","type":"individual","measure":"https://madie.cms.gov/Measure/CMS71FHIRSTKAnticoagAFFlutter","period":{"start":"2026-01-01","end":"2026-12-31"},"group":[{"population":[{"code":{"coding":[{"system":"http://terminology.hl7.org/CodeSystem/measure-population","code":"initial-population","display":"Initial Population"}]},"count":1},{"code":{"coding":[{"system":"http://terminology.hl7.org/CodeSystem/measure-population","code":"denominator","display":"Denominator"}]},"count":1},{"code":{"coding":[{"system":"http://terminology.hl7.org/CodeSystem/measure-population","code":"denominator-exclusion","display":"Denominator Exclusion"}]},"count":1},{"code":{"coding":[{"system":"http://terminology.hl7.org/CodeSystem/measure-population","code":"numerator","display":"Numerator"}]},"count":0},{"code":{"coding":[{"system":"http://terminology.hl7.org/CodeSystem/measure-population","code":"denominator-exception","display":"Denominator Exception"}]},"count":0}]}]},"request":{"method":"PUT","url":"MeasureReport/483eb769-dc49-4cec-a5f8-7e48b131916c"}}]}