{"resourceType":"Bundle","id":"tests-a8856231-e110-4811-ac95-3f65c3d440fa-bundle","type":"transaction","entry":[{"fullUrl":"https://madie.cms.gov/Patient/a8856231-e110-4811-ac95-3f65c3d440fa","resource":{"resourceType":"Patient","id":"a8856231-e110-4811-ac95-3f65c3d440fa","meta":{"profile":["http://hl7.org/fhir/us/qicore/StructureDefinition/qicore-patient"]},"text":{"status":"generated","div":"<div xmlns=\"http://www.w3.org/1999/xhtml\"><div class=\"hapiHeaderText\">CMOdurED_ED&lt;1hrObs&lt;1hrBFEnc <b>DENEXPASS </b></div><table class=\"hapiPropertyTable\"><tbody><tr><td>Identifier</td><td>0b5c2e2db5c7f9518d6eb2bf44cd7df8817ff6b8521c862f9878d999f0ab28a2</td></tr><tr><td>Date of birth</td><td><span>18 September 1985</span></td></tr></tbody></table></div>"},"extension":[{"url":"http://hl7.org/fhir/us/core/StructureDefinition/us-core-race","extension":[{"url":"ombCategory","valueCoding":{"system":"urn:oid:2.16.840.1.113883.6.238","code":"1002-5","display":"American Indian or Alaska Native","userSelected":true}},{"url":"text","valueString":"American Indian or Alaska Native"}]},{"url":"http://hl7.org/fhir/us/core/StructureDefinition/us-core-ethnicity","extension":[{"url":"ombCategory","valueCoding":{"system":"urn:oid:2.16.840.1.113883.6.238","code":"2135-2","display":"Hispanic or Latino","userSelected":true}},{"url":"text","valueString":"Hispanic or Latino"}]}],"identifier":[{"type":{"coding":[{"system":"http://terminology.hl7.org/CodeSystem/v2-0203","code":"MR"}]},"system":"https://bonnie-fhir.healthit.gov/","value":"633c9d040968f8012250fca4"}],"active":true,"name":[{"use":"usual","family":"DENEXPass","given":["CMOdurED_ED<1hrObs<1hrBFEnc"]}],"gender":"female","birthDate":"1986-09-18"},"request":{"method":"PUT","url":"Patient/a8856231-e110-4811-ac95-3f65c3d440fa"}},{"fullUrl":"https://madie.cms.gov/Condition/2994c83a-e121-4d35-89fb-8adefb7ccf1c","resource":{"resourceType":"Condition","id":"2994c83a-e121-4d35-89fb-8adefb7ccf1c","meta":{"profile":["http://hl7.org/fhir/us/qicore/StructureDefinition/qicore-condition"]},"clinicalStatus":{"coding":[{"system":"http://terminology.hl7.org/CodeSystem/condition-clinical","code":"inactive"}]},"verificationStatus":{"coding":[{"system":"http://terminology.hl7.org/CodeSystem/condition-ver-status","code":"confirmed"}]},"category":[{"coding":[{"system":"http://terminology.hl7.org/CodeSystem/condition-category","code":"encounter-diagnosis","display":"Encounter Diagnosis"}]}],"code":{"coding":[{"system":"http://hl7.org/fhir/sid/icd-10-cm","code":"I48.20"},{"system":"http://hl7.org/fhir/sid/icd-10-cm","code":"I48.0"},{"system":"http://snomed.info/sct","code":"5370000"}]},"subject":{"reference":"Patient/a8856231-e110-4811-ac95-3f65c3d440fa"},"onsetDateTime":"2026-10-01T09:00:00.000Z","abatementDateTime":"2026-10-12T00:15:00.000Z"},"request":{"method":"PUT","url":"Condition/2994c83a-e121-4d35-89fb-8adefb7ccf1c"}},{"fullUrl":"https://madie.cms.gov/Encounter/0ff8bad8-7f81-4ea7-a72e-c80b7e05153f","resource":{"resourceType":"Encounter","id":"0ff8bad8-7f81-4ea7-a72e-c80b7e05153f","meta":{"profile":["http://hl7.org/fhir/us/qicore/StructureDefinition/qicore-encounter"]},"status":"finished","class":{"system":"http://terminology.hl7.org/CodeSystem/v3-ActCode","code":"EMER","display":"emergency"},"type":[{"coding":[{"system":"http://snomed.info/sct","code":"4525004"}]}],"subject":{"reference":"Patient/a8856231-e110-4811-ac95-3f65c3d440fa"},"period":{"start":"2026-09-30T07:59:00.000Z","end":"2026-09-30T09:00:00.000Z"},"length":{"value":0,"unit":"days"}},"request":{"method":"PUT","url":"Encounter/0ff8bad8-7f81-4ea7-a72e-c80b7e05153f"}},{"fullUrl":"https://madie.cms.gov/Encounter/e895f20a-9c87-476f-8c87-87f8ac581986","resource":{"resourceType":"Encounter","id":"e895f20a-9c87-476f-8c87-87f8ac581986","meta":{"profile":["http://hl7.org/fhir/us/qicore/StructureDefinition/qicore-encounter"]},"status":"finished","class":{"system":"http://terminology.hl7.org/CodeSystem/v3-ActCode","code":"OBSENC","display":"observation encounter"},"type":[{"coding":[{"system":"http://snomed.info/sct","code":"448851000124103"}]}],"subject":{"reference":"Patient/a8856231-e110-4811-ac95-3f65c3d440fa"},"period":{"start":"2026-09-30T09:01:00.000Z","end":"2026-09-30T09:05:00.000Z"},"length":{"value":0,"unit":"days"}},"request":{"method":"PUT","url":"Encounter/e895f20a-9c87-476f-8c87-87f8ac581986"}},{"fullUrl":"https://madie.cms.gov/Encounter/deadc090-c5dc-46e6-8691-4af4832fa735","resource":{"resourceType":"Encounter","id":"deadc090-c5dc-46e6-8691-4af4832fa735","meta":{"profile":["http://hl7.org/fhir/us/qicore/StructureDefinition/qicore-encounter"]},"status":"finished","class":{"system":"http://terminology.hl7.org/CodeSystem/v3-ActCode","code":"IMP","display":"inpatient encounter"},"type":[{"coding":[{"system":"http://snomed.info/sct","code":"32485007"}]}],"subject":{"reference":"Patient/a8856231-e110-4811-ac95-3f65c3d440fa"},"period":{"start":"2026-09-30T09:06:00.000Z","end":"2026-10-12T00:15:00.000Z"},"length":{"value":12,"unit":"days"},"diagnosis":[{"condition":{"reference":"Condition/41db5ac8-d2e6-4416-8600-a51ef683325a"},"use":{"coding":[{"system":"http://terminology.hl7.org/CodeSystem/diagnosis-role","code":"billing","display":"Billing"}]},"rank":1}]},"request":{"method":"PUT","url":"Encounter/deadc090-c5dc-46e6-8691-4af4832fa735"}},{"fullUrl":"https://madie.cms.gov/Condition/41db5ac8-d2e6-4416-8600-a51ef683325a","resource":{"resourceType":"Condition","id":"41db5ac8-d2e6-4416-8600-a51ef683325a","meta":{"profile":["http://hl7.org/fhir/us/qicore/StructureDefinition/qicore-condition"]},"clinicalStatus":{"coding":[{"system":"http://terminology.hl7.org/CodeSystem/condition-clinical","code":"active"}]},"verificationStatus":{"coding":[{"system":"http://terminology.hl7.org/CodeSystem/condition-ver-status","code":"confirmed"}]},"category":[{"coding":[{"system":"http://terminology.hl7.org/CodeSystem/condition-category","code":"encounter-diagnosis","display":"Encounter Diagnosis"}]}],"code":{"coding":[{"system":"http://snomed.info/sct","version":"2021-09","code":"111297002","display":"Nonparalytic stroke (disorder)","userSelected":true}]},"subject":{"reference":"Patient/a8856231-e110-4811-ac95-3f65c3d440fa"},"recordedDate":"2026-09-30T09:06:00.000Z"},"request":{"method":"PUT","url":"Condition/41db5ac8-d2e6-4416-8600-a51ef683325a"}},{"fullUrl":"https://madie.cms.gov/ServiceRequest/67d0672e-6e4a-4e84-ba2e-d345853b6efb","resource":{"resourceType":"ServiceRequest","id":"67d0672e-6e4a-4e84-ba2e-d345853b6efb","meta":{"profile":["http://hl7.org/fhir/us/qicore/StructureDefinition/qicore-servicerequest"]},"status":"active","intent":"order","code":{"coding":[{"system":"http://snomed.info/sct","code":"133918004"}]},"subject":{"reference":"Patient/a8856231-e110-4811-ac95-3f65c3d440fa"},"authoredOn":"2026-09-30T08:01:00.000+00:00"},"request":{"method":"PUT","url":"ServiceRequest/67d0672e-6e4a-4e84-ba2e-d345853b6efb"}},{"fullUrl":"https://madie.cms.gov/Coverage/b8961559-6f92-46bb-997e-6d42bfac4caa","resource":{"resourceType":"Coverage","id":"b8961559-6f92-46bb-997e-6d42bfac4caa","status":"active","beneficiary":{"reference":"Patient/a8856231-e110-4811-ac95-3f65c3d440fa"},"period":{"start":"1986-09-18T08:00:00.000Z"},"payor":[{"reference":"Organization/890316dc-a4ad-43b4-ba6f-9fb9e6eca282"}]},"request":{"method":"PUT","url":"Coverage/b8961559-6f92-46bb-997e-6d42bfac4caa"}},{"fullUrl":"https://madie.cms.gov/Organization/fdfc1dfa-b520-4705-afb3-6d20fac7f5e0","resource":{"resourceType":"Organization","id":"890316dc-a4ad-43b4-ba6f-9fb9e6eca282","meta":{"profile":["http://hl7.org/fhir/us/qicore/StructureDefinition/qicore-organization"]},"identifier":[{"use":"temp","system":"urn:oid:2.16.840.1.113883.4.4","value":"21-3259825"}],"active":true,"type":[{"coding":[{"system":"http://terminology.hl7.org/CodeSystem/organization-type","code":"pay","display":"Payer"}]}],"name":"Blue Cross Blue Shield of Texas","telecom":[{"system":"phone","value":"(+1) 972-766-6900"}],"address":[{"use":"billing","type":"postal","line":["P.O. Box 660044"],"city":"Dallas","state":"TX","postalCode":"75266-0044","country":"USA"}]},"request":{"method":"PUT","url":"Organization/890316dc-a4ad-43b4-ba6f-9fb9e6eca282"}},{"fullUrl":"https://madie.cms.gov/Practitioner/c168aa7d-c6c7-4386-ada1-e7e6375bd4a3","resource":{"resourceType":"Practitioner","id":"c168aa7d-c6c7-4386-ada1-e7e6375bd4a3","identifier":[{"system":"http://hl7.org/fhir/sid/us-npi","value":"123456"}],"name":[{"family":"Evil","prefix":["Dr"]}]},"request":{"method":"PUT","url":"Practitioner/c168aa7d-c6c7-4386-ada1-e7e6375bd4a3"}},{"fullUrl":"https://madie.cms.gov/MeasureReport/a6467af5-b6db-41f1-9563-bd027c3e1f10","resource":{"resourceType":"MeasureReport","id":"a6467af5-b6db-41f1-9563-bd027c3e1f10","meta":{"profile":["http://hl7.org/fhir/us/cqfmeasures/StructureDefinition/test-case-cqfm"]},"contained":[{"resourceType":"Parameters","id":"06385932-de5a-4a05-89fc-0706287576a2-parameters","parameter":[{"name":"subject","valueString":"a8856231-e110-4811-ac95-3f65c3d440fa"}]}],"extension":[{"url":"http://hl7.org/fhir/us/cqfmeasures/StructureDefinition/cqfm-inputParameters","valueReference":{"reference":"#06385932-de5a-4a05-89fc-0706287576a2-parameters"}},{"url":"http://hl7.org/fhir/us/cqfmeasures/StructureDefinition/cqfm-testCaseDescription","valueMarkdown":"Patient receives CMO during ED. ED ends 1 min before Obs start and Obs ends 1 min before inpatient start.  Testing HospitalizationWithObservation function\n"}],"modifierExtension":[{"url":"http://hl7.org/fhir/us/cqfmeasures/StructureDefinition/cqfm-isTestCase","valueBoolean":true}],"status":"complete","type":"individual","measure":"https://madie.cms.gov/Measure/CMS71FHIRSTKAnticoagAFFlutter","period":{"start":"2026-01-01","end":"2026-12-31"},"group":[{"population":[{"code":{"coding":[{"system":"http://terminology.hl7.org/CodeSystem/measure-population","code":"initial-population","display":"Initial Population"}]},"count":1},{"code":{"coding":[{"system":"http://terminology.hl7.org/CodeSystem/measure-population","code":"denominator","display":"Denominator"}]},"count":1},{"code":{"coding":[{"system":"http://terminology.hl7.org/CodeSystem/measure-population","code":"denominator-exclusion","display":"Denominator Exclusion"}]},"count":1},{"code":{"coding":[{"system":"http://terminology.hl7.org/CodeSystem/measure-population","code":"numerator","display":"Numerator"}]},"count":0},{"code":{"coding":[{"system":"http://terminology.hl7.org/CodeSystem/measure-population","code":"denominator-exception","display":"Denominator Exception"}]},"count":0}]}]},"request":{"method":"PUT","url":"MeasureReport/a6467af5-b6db-41f1-9563-bd027c3e1f10"}}]}