{"resourceType":"Bundle","id":"tests-85774da1-da62-45f3-9bf8-12223f13d82a-bundle","type":"transaction","entry":[{"fullUrl":"https://madie.cms.gov/Patient/85774da1-da62-45f3-9bf8-12223f13d82a","resource":{"resourceType":"Patient","id":"85774da1-da62-45f3-9bf8-12223f13d82a","meta":{"profile":["http://hl7.org/fhir/us/qicore/StructureDefinition/qicore-patient"]},"text":{"status":"generated","div":"<div xmlns=\"http://www.w3.org/1999/xhtml\"><div class=\"hapiHeaderText\">DxAfibAtEncStart <b>DENOMPASS </b></div><table class=\"hapiPropertyTable\"><tbody><tr><td>Identifier</td><td>fd376d7a447108fc2cb6203808235ba3</td></tr><tr><td>Date of birth</td><td><span>01 December 1960</span></td></tr></tbody></table></div>"},"extension":[{"url":"http://hl7.org/fhir/us/core/StructureDefinition/us-core-race","extension":[{"url":"ombCategory","valueCoding":{"system":"urn:oid:2.16.840.1.113883.6.238","code":"1002-5","display":"American Indian or Alaska Native","userSelected":true}},{"url":"text","valueString":"American Indian or Alaska Native"}]},{"url":"http://hl7.org/fhir/us/core/StructureDefinition/us-core-ethnicity","extension":[{"url":"ombCategory","valueCoding":{"system":"urn:oid:2.16.840.1.113883.6.238","code":"2135-2","display":"Hispanic or Latino","userSelected":true}},{"url":"text","valueString":"Hispanic or Latino"}]}],"identifier":[{"type":{"coding":[{"system":"http://terminology.hl7.org/CodeSystem/v2-0203","code":"MR"}]},"system":"https://bonnie-fhir.healthit.gov/","value":"633c9d030968f8012250fc7c"}],"active":true,"name":[{"use":"usual","family":"DENOMPass","given":["DxAfibAtEncStart"]}],"gender":"male","birthDate":"1961-12-01"},"request":{"method":"PUT","url":"Patient/85774da1-da62-45f3-9bf8-12223f13d82a"}},{"fullUrl":"https://madie.cms.gov/Condition/62aafa97-760b-497d-8889-e1321107c1a8","resource":{"resourceType":"Condition","id":"62aafa97-760b-497d-8889-e1321107c1a8","meta":{"profile":["http://hl7.org/fhir/us/qicore/StructureDefinition/qicore-condition"]},"clinicalStatus":{"coding":[{"system":"http://terminology.hl7.org/CodeSystem/condition-clinical","code":"inactive"}]},"verificationStatus":{"coding":[{"system":"http://terminology.hl7.org/CodeSystem/condition-ver-status","code":"confirmed"}]},"category":[{"coding":[{"system":"http://terminology.hl7.org/CodeSystem/condition-category","code":"encounter-diagnosis","display":"Encounter Diagnosis"}]}],"code":{"coding":[{"system":"http://hl7.org/fhir/sid/icd-9-cm","code":"427.31"},{"system":"http://hl7.org/fhir/sid/icd-10-cm","code":"I48.0"},{"system":"http://snomed.info/sct","code":"5370000"}]},"subject":{"reference":"Patient/85774da1-da62-45f3-9bf8-12223f13d82a"},"onsetDateTime":"2026-02-08T08:00:00.000Z"},"request":{"method":"PUT","url":"Condition/62aafa97-760b-497d-8889-e1321107c1a8"}},{"fullUrl":"https://madie.cms.gov/Encounter/4e126aee-1452-47bc-b711-79b055eafa82","resource":{"resourceType":"Encounter","id":"4e126aee-1452-47bc-b711-79b055eafa82","meta":{"profile":["http://hl7.org/fhir/us/qicore/StructureDefinition/qicore-encounter"]},"status":"finished","class":{"system":"http://terminology.hl7.org/CodeSystem/v3-ActCode","code":"IMP","display":"inpatient encounter"},"type":[{"coding":[{"system":"http://snomed.info/sct","code":"32485007"}]}],"subject":{"reference":"Patient/85774da1-da62-45f3-9bf8-12223f13d82a"},"period":{"start":"2026-02-08T08:00:00.000Z","end":"2026-02-10T08:15:00.000Z"},"length":{"value":2,"unit":"days"},"diagnosis":[{"condition":{"reference":"Condition/16da73b6-9d44-46e3-9727-f76f476a2ef5"},"use":{"coding":[{"system":"http://terminology.hl7.org/CodeSystem/diagnosis-role","code":"billing","display":"Billing"}]},"rank":1}]},"request":{"method":"PUT","url":"Encounter/4e126aee-1452-47bc-b711-79b055eafa82"}},{"fullUrl":"https://madie.cms.gov/Coverage/5d2a98bf-7d93-41d1-a3f1-e8e68d57ea4d","resource":{"resourceType":"Coverage","id":"5d2a98bf-7d93-41d1-a3f1-e8e68d57ea4d","status":"active","beneficiary":{"reference":"Patient/85774da1-da62-45f3-9bf8-12223f13d82a"},"period":{"start":"1961-12-01T08:00:00.000Z"},"payor":[{"reference":"Organization/3778262e-e084-4bb5-9a47-1a144735f786"}]},"request":{"method":"PUT","url":"Coverage/5d2a98bf-7d93-41d1-a3f1-e8e68d57ea4d"}},{"fullUrl":"https://madie.cms.gov/Condition/16da73b6-9d44-46e3-9727-f76f476a2ef5","resource":{"resourceType":"Condition","id":"16da73b6-9d44-46e3-9727-f76f476a2ef5","meta":{"profile":["http://hl7.org/fhir/us/qicore/StructureDefinition/qicore-condition"]},"clinicalStatus":{"coding":[{"system":"http://terminology.hl7.org/CodeSystem/condition-clinical","code":"active"}]},"verificationStatus":{"coding":[{"system":"http://terminology.hl7.org/CodeSystem/condition-ver-status","code":"confirmed"}]},"category":[{"coding":[{"system":"http://terminology.hl7.org/CodeSystem/condition-category","code":"encounter-diagnosis","display":"Encounter Diagnosis"}]}],"code":{"coding":[{"system":"http://snomed.info/sct","version":"2021-09","code":"111297002","display":"Nonparalytic stroke (disorder)","userSelected":true}]},"subject":{"reference":"Patient/85774da1-da62-45f3-9bf8-12223f13d82a"},"recordedDate":"2026-10-13T08:00:00.000+00:00"},"request":{"method":"PUT","url":"Condition/16da73b6-9d44-46e3-9727-f76f476a2ef5"}},{"fullUrl":"https://madie.cms.gov/Organization/d96608fc-3488-402c-be5a-f02f0c19e31f","resource":{"resourceType":"Organization","id":"3778262e-e084-4bb5-9a47-1a144735f786","meta":{"profile":["http://hl7.org/fhir/us/qicore/StructureDefinition/qicore-organization"]},"identifier":[{"use":"temp","system":"urn:oid:2.16.840.1.113883.4.4","value":"21-3259825"}],"active":true,"type":[{"coding":[{"system":"http://terminology.hl7.org/CodeSystem/organization-type","code":"pay","display":"Payer"}]}],"name":"Blue Cross Blue Shield of Texas","telecom":[{"system":"phone","value":"(+1) 972-766-6900"}],"address":[{"use":"billing","type":"postal","line":["P.O. Box 660044"],"city":"Dallas","state":"TX","postalCode":"75266-0044","country":"USA"}]},"request":{"method":"PUT","url":"Organization/3778262e-e084-4bb5-9a47-1a144735f786"}},{"fullUrl":"https://madie.cms.gov/Practitioner/96cc6835-1a53-469e-bd72-38926b9b58b0","resource":{"resourceType":"Practitioner","id":"96cc6835-1a53-469e-bd72-38926b9b58b0","identifier":[{"system":"http://hl7.org/fhir/sid/us-npi","value":"123456"}],"name":[{"family":"Evil","prefix":["Dr"]}]},"request":{"method":"PUT","url":"Practitioner/96cc6835-1a53-469e-bd72-38926b9b58b0"}},{"fullUrl":"https://madie.cms.gov/MeasureReport/16d17823-5989-43a2-843f-be67b1c961f6","resource":{"resourceType":"MeasureReport","id":"16d17823-5989-43a2-843f-be67b1c961f6","meta":{"profile":["http://hl7.org/fhir/us/cqfmeasures/StructureDefinition/test-case-cqfm"]},"contained":[{"resourceType":"Parameters","id":"b0024a45-b187-4c34-85cd-206c86c83d08-parameters","parameter":[{"name":"subject","valueString":"85774da1-da62-45f3-9bf8-12223f13d82a"}]}],"extension":[{"url":"http://hl7.org/fhir/us/cqfmeasures/StructureDefinition/cqfm-inputParameters","valueReference":{"reference":"#b0024a45-b187-4c34-85cd-206c86c83d08-parameters"}},{"url":"http://hl7.org/fhir/us/cqfmeasures/StructureDefinition/cqfm-testCaseDescription","valueMarkdown":"Afib as a condition, starts at start of OccurA\n"}],"modifierExtension":[{"url":"http://hl7.org/fhir/us/cqfmeasures/StructureDefinition/cqfm-isTestCase","valueBoolean":true}],"status":"complete","type":"individual","measure":"https://madie.cms.gov/Measure/CMS71FHIRSTKAnticoagAFFlutter","period":{"start":"2026-01-01","end":"2026-12-31"},"group":[{"population":[{"code":{"coding":[{"system":"http://terminology.hl7.org/CodeSystem/measure-population","code":"initial-population","display":"Initial Population"}]},"count":1},{"code":{"coding":[{"system":"http://terminology.hl7.org/CodeSystem/measure-population","code":"denominator","display":"Denominator"}]},"count":1},{"code":{"coding":[{"system":"http://terminology.hl7.org/CodeSystem/measure-population","code":"denominator-exclusion","display":"Denominator Exclusion"}]},"count":0},{"code":{"coding":[{"system":"http://terminology.hl7.org/CodeSystem/measure-population","code":"numerator","display":"Numerator"}]},"count":0},{"code":{"coding":[{"system":"http://terminology.hl7.org/CodeSystem/measure-population","code":"denominator-exception","display":"Denominator Exception"}]},"count":0}]}]},"request":{"method":"PUT","url":"MeasureReport/16d17823-5989-43a2-843f-be67b1c961f6"}}]}