{"resourceType":"Bundle","id":"tests-e73d1055-c564-4663-9af0-d3ccabeb49c8-bundle","type":"transaction","entry":[{"fullUrl":"https://madie.cms.gov/Patient/e73d1055-c564-4663-9af0-d3ccabeb49c8","resource":{"resourceType":"Patient","id":"e73d1055-c564-4663-9af0-d3ccabeb49c8","meta":{"profile":["http://hl7.org/fhir/us/qicore/StructureDefinition/qicore-patient"]},"text":{"status":"generated","div":"<div xmlns=\"http://www.w3.org/1999/xhtml\"><div class=\"hapiHeaderText\">CMOdurED_ED=1hrObs=1hrBFEnc <b>DENEXPASS </b></div><table class=\"hapiPropertyTable\"><tbody><tr><td>Identifier</td><td>6154ed3e6029d496bda5b35d3515afbbdc41984dd4c9181d132c9b1c15092843</td></tr><tr><td>Date of birth</td><td><span>18 September 1985</span></td></tr></tbody></table></div>"},"extension":[{"url":"http://hl7.org/fhir/us/core/StructureDefinition/us-core-race","extension":[{"url":"ombCategory","valueCoding":{"system":"urn:oid:2.16.840.1.113883.6.238","code":"1002-5","display":"American Indian or Alaska Native","userSelected":true}},{"url":"text","valueString":"American Indian or Alaska Native"}]},{"url":"http://hl7.org/fhir/us/core/StructureDefinition/us-core-ethnicity","extension":[{"url":"ombCategory","valueCoding":{"system":"urn:oid:2.16.840.1.113883.6.238","code":"2135-2","display":"Hispanic or Latino","userSelected":true}},{"url":"text","valueString":"Hispanic or Latino"}]}],"identifier":[{"type":{"coding":[{"system":"http://terminology.hl7.org/CodeSystem/v2-0203","code":"MR"}]},"system":"https://bonnie-fhir.healthit.gov/","value":"633c9d040968f8012250fca6"}],"active":true,"name":[{"use":"usual","family":"DENEXPass","given":["CMOdurED_ED=1hrObs=1hrBFEnc"]}],"gender":"female","birthDate":"1986-09-18"},"request":{"method":"PUT","url":"Patient/e73d1055-c564-4663-9af0-d3ccabeb49c8"}},{"fullUrl":"https://madie.cms.gov/Condition/a2a824e8-1437-4f42-b1c8-07b367936886","resource":{"resourceType":"Condition","id":"a2a824e8-1437-4f42-b1c8-07b367936886","meta":{"profile":["http://hl7.org/fhir/us/qicore/StructureDefinition/qicore-condition"]},"clinicalStatus":{"coding":[{"system":"http://terminology.hl7.org/CodeSystem/condition-clinical","code":"inactive"}]},"verificationStatus":{"coding":[{"system":"http://terminology.hl7.org/CodeSystem/condition-ver-status","code":"confirmed"}]},"category":[{"coding":[{"system":"http://terminology.hl7.org/CodeSystem/condition-category","code":"encounter-diagnosis","display":"Encounter Diagnosis"}]}],"code":{"coding":[{"system":"http://hl7.org/fhir/sid/icd-10-cm","code":"I48.20"},{"system":"http://hl7.org/fhir/sid/icd-10-cm","code":"I48.0"},{"system":"http://snomed.info/sct","code":"5370000"}]},"subject":{"reference":"Patient/e73d1055-c564-4663-9af0-d3ccabeb49c8"},"onsetDateTime":"2026-10-01T09:00:00.000Z","abatementDateTime":"2026-10-12T00:15:00.000Z"},"request":{"method":"PUT","url":"Condition/a2a824e8-1437-4f42-b1c8-07b367936886"}},{"fullUrl":"https://madie.cms.gov/Encounter/85e55b60-40b4-43ad-bd97-5ec87f470a9f","resource":{"resourceType":"Encounter","id":"85e55b60-40b4-43ad-bd97-5ec87f470a9f","meta":{"profile":["http://hl7.org/fhir/us/qicore/StructureDefinition/qicore-encounter"]},"status":"finished","class":{"system":"http://terminology.hl7.org/CodeSystem/v3-ActCode","code":"EMER","display":"emergency"},"type":[{"coding":[{"system":"http://snomed.info/sct","code":"4525004"}]}],"subject":{"reference":"Patient/e73d1055-c564-4663-9af0-d3ccabeb49c8"},"period":{"start":"2026-09-30T07:59:00.000Z","end":"2026-09-30T08:00:00.000Z"},"length":{"value":0,"unit":"days"}},"request":{"method":"PUT","url":"Encounter/85e55b60-40b4-43ad-bd97-5ec87f470a9f"}},{"fullUrl":"https://madie.cms.gov/Encounter/44f3ac1d-428e-4f6d-bcbe-d0efc58da271","resource":{"resourceType":"Encounter","id":"44f3ac1d-428e-4f6d-bcbe-d0efc58da271","meta":{"profile":["http://hl7.org/fhir/us/qicore/StructureDefinition/qicore-encounter"]},"status":"finished","class":{"system":"http://terminology.hl7.org/CodeSystem/v3-ActCode","code":"OBSENC","display":"observation encounter"},"type":[{"coding":[{"system":"http://snomed.info/sct","code":"448951000124107"}]}],"subject":{"reference":"Patient/e73d1055-c564-4663-9af0-d3ccabeb49c8"},"period":{"start":"2026-09-30T09:00:00.000Z","end":"2026-09-30T09:01:00.000Z"},"length":{"value":0,"unit":"days"}},"request":{"method":"PUT","url":"Encounter/44f3ac1d-428e-4f6d-bcbe-d0efc58da271"}},{"fullUrl":"https://madie.cms.gov/Encounter/7e100e9d-c1ad-4816-98f7-0dc627fe3edd","resource":{"resourceType":"Encounter","id":"7e100e9d-c1ad-4816-98f7-0dc627fe3edd","meta":{"profile":["http://hl7.org/fhir/us/qicore/StructureDefinition/qicore-encounter"]},"status":"finished","class":{"system":"http://terminology.hl7.org/CodeSystem/v3-ActCode","code":"IMP","display":"inpatient encounter"},"type":[{"coding":[{"system":"http://snomed.info/sct","code":"32485007"}]}],"subject":{"reference":"Patient/e73d1055-c564-4663-9af0-d3ccabeb49c8"},"period":{"start":"2026-09-30T10:01:00.000Z","end":"2026-10-12T00:15:00.000Z"},"length":{"value":12,"unit":"days"},"diagnosis":[{"condition":{"reference":"Condition/d568b365-45ae-4f83-b31b-ec09b674505c"},"use":{"coding":[{"system":"http://terminology.hl7.org/CodeSystem/diagnosis-role","code":"billing","display":"Billing"}]},"rank":1}]},"request":{"method":"PUT","url":"Encounter/7e100e9d-c1ad-4816-98f7-0dc627fe3edd"}},{"fullUrl":"https://madie.cms.gov/ServiceRequest/fdfabd59-c63d-4b8e-8f41-ab86a170efc6","resource":{"resourceType":"ServiceRequest","id":"fdfabd59-c63d-4b8e-8f41-ab86a170efc6","meta":{"profile":["http://hl7.org/fhir/us/qicore/StructureDefinition/qicore-servicerequest"]},"status":"active","intent":"order","code":{"coding":[{"system":"http://snomed.info/sct","code":"133918004"}]},"subject":{"reference":"Patient/e73d1055-c564-4663-9af0-d3ccabeb49c8"},"authoredOn":"2026-09-30T08:00:00.000+00:00"},"request":{"method":"PUT","url":"ServiceRequest/fdfabd59-c63d-4b8e-8f41-ab86a170efc6"}},{"fullUrl":"https://madie.cms.gov/Coverage/d149154b-7181-4f1b-af5a-210490442cab","resource":{"resourceType":"Coverage","id":"d149154b-7181-4f1b-af5a-210490442cab","status":"active","beneficiary":{"reference":"Patient/e73d1055-c564-4663-9af0-d3ccabeb49c8"},"period":{"start":"1986-09-18T08:00:00.000Z"},"payor":[{"reference":"Organization/3778262e-e084-4bb5-9a47-1a144735f786"}]},"request":{"method":"PUT","url":"Coverage/d149154b-7181-4f1b-af5a-210490442cab"}},{"fullUrl":"https://madie.cms.gov/Condition/d568b365-45ae-4f83-b31b-ec09b674505c","resource":{"resourceType":"Condition","id":"d568b365-45ae-4f83-b31b-ec09b674505c","meta":{"profile":["http://hl7.org/fhir/us/qicore/StructureDefinition/qicore-condition"]},"clinicalStatus":{"coding":[{"system":"http://terminology.hl7.org/CodeSystem/condition-clinical","code":"active"}]},"verificationStatus":{"coding":[{"system":"http://terminology.hl7.org/CodeSystem/condition-ver-status","code":"confirmed"}]},"category":[{"coding":[{"system":"http://terminology.hl7.org/CodeSystem/condition-category","code":"encounter-diagnosis","display":"Encounter Diagnosis"}]}],"code":{"coding":[{"system":"http://snomed.info/sct","version":"2021-09","code":"111297002","display":"Nonparalytic stroke (disorder)","userSelected":true}]},"subject":{"reference":"Patient/e73d1055-c564-4663-9af0-d3ccabeb49c8"},"recordedDate":"2026-10-13T08:00:00.000+00:00"},"request":{"method":"PUT","url":"Condition/d568b365-45ae-4f83-b31b-ec09b674505c"}},{"fullUrl":"https://madie.cms.gov/Organization/9c0be30d-e26c-4f55-86a7-1480612df67b","resource":{"resourceType":"Organization","id":"3778262e-e084-4bb5-9a47-1a144735f786","meta":{"profile":["http://hl7.org/fhir/us/qicore/StructureDefinition/qicore-organization"]},"identifier":[{"use":"temp","system":"urn:oid:2.16.840.1.113883.4.4","value":"21-3259825"}],"active":true,"type":[{"coding":[{"system":"http://terminology.hl7.org/CodeSystem/organization-type","code":"pay","display":"Payer"}]}],"name":"Blue Cross Blue Shield of Texas","telecom":[{"system":"phone","value":"(+1) 972-766-6900"}],"address":[{"use":"billing","type":"postal","line":["P.O. Box 660044"],"city":"Dallas","state":"TX","postalCode":"75266-0044","country":"USA"}]},"request":{"method":"PUT","url":"Organization/3778262e-e084-4bb5-9a47-1a144735f786"}},{"fullUrl":"https://madie.cms.gov/Practitioner/b55f7168-64ff-4609-aa14-cfff6f3ac550","resource":{"resourceType":"Practitioner","id":"b55f7168-64ff-4609-aa14-cfff6f3ac550","identifier":[{"system":"http://hl7.org/fhir/sid/us-npi","value":"123456"}],"name":[{"family":"Evil","prefix":["Dr"]}]},"request":{"method":"PUT","url":"Practitioner/b55f7168-64ff-4609-aa14-cfff6f3ac550"}},{"fullUrl":"https://madie.cms.gov/MeasureReport/a79276df-1f1a-40b8-aa54-7182c4bece2f","resource":{"resourceType":"MeasureReport","id":"a79276df-1f1a-40b8-aa54-7182c4bece2f","meta":{"profile":["http://hl7.org/fhir/us/cqfmeasures/StructureDefinition/test-case-cqfm"]},"contained":[{"resourceType":"Parameters","id":"bdf3ffd7-25f7-4871-b25b-a8499ae587a5-parameters","parameter":[{"name":"subject","valueString":"e73d1055-c564-4663-9af0-d3ccabeb49c8"}]}],"extension":[{"url":"http://hl7.org/fhir/us/cqfmeasures/StructureDefinition/cqfm-inputParameters","valueReference":{"reference":"#bdf3ffd7-25f7-4871-b25b-a8499ae587a5-parameters"}},{"url":"http://hl7.org/fhir/us/cqfmeasures/StructureDefinition/cqfm-testCaseDescription","valueMarkdown":"Patient receives CMO during ED. ED ends 60 min before Obs start and Obs ends 60 min before  inpatient start.  Testing HospitalizationWithObservation function\n"}],"modifierExtension":[{"url":"http://hl7.org/fhir/us/cqfmeasures/StructureDefinition/cqfm-isTestCase","valueBoolean":true}],"status":"complete","type":"individual","measure":"https://madie.cms.gov/Measure/CMS71FHIRSTKAnticoagAFFlutter","period":{"start":"2026-01-01","end":"2026-12-31"},"group":[{"population":[{"code":{"coding":[{"system":"http://terminology.hl7.org/CodeSystem/measure-population","code":"initial-population","display":"Initial Population"}]},"count":1},{"code":{"coding":[{"system":"http://terminology.hl7.org/CodeSystem/measure-population","code":"denominator","display":"Denominator"}]},"count":1},{"code":{"coding":[{"system":"http://terminology.hl7.org/CodeSystem/measure-population","code":"denominator-exclusion","display":"Denominator Exclusion"}]},"count":1},{"code":{"coding":[{"system":"http://terminology.hl7.org/CodeSystem/measure-population","code":"numerator","display":"Numerator"}]},"count":0},{"code":{"coding":[{"system":"http://terminology.hl7.org/CodeSystem/measure-population","code":"denominator-exception","display":"Denominator Exception"}]},"count":0}]}]},"request":{"method":"PUT","url":"MeasureReport/a79276df-1f1a-40b8-aa54-7182c4bece2f"}}]}