{"resourceType":"Bundle","id":"tests-f916d085-e8dc-4e8d-97ae-07952c1062b9-bundle","type":"transaction","entry":[{"fullUrl":"https://madie.cms.gov/Patient/f916d085-e8dc-4e8d-97ae-07952c1062b9","resource":{"resourceType":"Patient","id":"f916d085-e8dc-4e8d-97ae-07952c1062b9","meta":{"profile":["http://hl7.org/fhir/us/qicore/StructureDefinition/qicore-patient"]},"text":{"status":"generated","div":"<div xmlns=\"http://www.w3.org/1999/xhtml\"><div class=\"hapiHeaderText\">DischargeACF <b>DENEXPASS </b></div><table class=\"hapiPropertyTable\"><tbody><tr><td>Identifier</td><td>34c56525ad7011dea3dfe275e76167da</td></tr><tr><td>Date of birth</td><td><span>31 July 1969</span></td></tr></tbody></table></div>"},"extension":[{"url":"http://hl7.org/fhir/us/core/StructureDefinition/us-core-race","extension":[{"url":"ombCategory","valueCoding":{"system":"urn:oid:2.16.840.1.113883.6.238","code":"1002-5","display":"American Indian or Alaska Native","userSelected":true}},{"url":"text","valueString":"American Indian or Alaska Native"}]},{"url":"http://hl7.org/fhir/us/core/StructureDefinition/us-core-ethnicity","extension":[{"url":"ombCategory","valueCoding":{"system":"urn:oid:2.16.840.1.113883.6.238","code":"2135-2","display":"Hispanic or Latino","userSelected":true}},{"url":"text","valueString":"Hispanic or Latino"}]}],"identifier":[{"type":{"coding":[{"system":"http://terminology.hl7.org/CodeSystem/v2-0203","code":"MR"}]},"system":"https://bonnie-fhir.healthit.gov/","value":"633c9d020968f8012250fc6a"}],"active":true,"name":[{"use":"usual","family":"DENEXPass","given":["DischargeACF"]}],"gender":"male","birthDate":"1970-07-31"},"request":{"method":"PUT","url":"Patient/f916d085-e8dc-4e8d-97ae-07952c1062b9"}},{"fullUrl":"https://madie.cms.gov/Encounter/1ff7e4ff-553d-4c5f-9b41-252a308c7690","resource":{"resourceType":"Encounter","id":"1ff7e4ff-553d-4c5f-9b41-252a308c7690","meta":{"profile":["http://hl7.org/fhir/us/qicore/StructureDefinition/qicore-encounter"]},"status":"finished","class":{"system":"http://terminology.hl7.org/CodeSystem/v3-ActCode","code":"IMP","display":"inpatient encounter"},"type":[{"coding":[{"system":"http://snomed.info/sct","code":"32485007"}]}],"subject":{"reference":"Patient/f916d085-e8dc-4e8d-97ae-07952c1062b9"},"period":{"start":"2026-11-20T08:00:00.000Z","end":"2026-11-24T08:15:00.000Z"},"length":{"value":4,"unit":"days"},"diagnosis":[{"condition":{"reference":"Condition/ae16c9c3-81d1-49c0-bf54-690e98558d7b"},"use":{"coding":[{"system":"http://terminology.hl7.org/CodeSystem/diagnosis-role","code":"billing","display":"Billing"}]},"rank":1}],"hospitalization":{"dischargeDisposition":{"coding":[{"system":"http://snomed.info/sct","code":"306701001","display":"Discharge To Acute Care Facility"}]}}},"request":{"method":"PUT","url":"Encounter/1ff7e4ff-553d-4c5f-9b41-252a308c7690"}},{"fullUrl":"https://madie.cms.gov/Coverage/a785691b-c3a6-4f28-b2bb-8311bf6fe5d3","resource":{"resourceType":"Coverage","id":"a785691b-c3a6-4f28-b2bb-8311bf6fe5d3","status":"active","beneficiary":{"reference":"Patient/f916d085-e8dc-4e8d-97ae-07952c1062b9"},"period":{"start":"1970-07-31T08:00:00.000Z"},"payor":[{"reference":"Organization/5ad6ea38-07e9-4482-9e1b-c09eee595be9"}]},"request":{"method":"PUT","url":"Coverage/a785691b-c3a6-4f28-b2bb-8311bf6fe5d3"}},{"fullUrl":"https://madie.cms.gov/Procedure/16522856-aaf7-4c39-bd9e-9ff01333cf80","resource":{"resourceType":"Procedure","id":"16522856-aaf7-4c39-bd9e-9ff01333cf80","meta":{"profile":["http://hl7.org/fhir/us/qicore/StructureDefinition/qicore-procedure"]},"extension":[{"url":"http://hl7.org/fhir/us/qicore/StructureDefinition/qicore-recorded","valueDateTime":"2026-11-19T09:35:00-04:00"}],"status":"completed","code":{"coding":[{"system":"http://www.cms.gov/Medicare/Coding/ICD10","code":"02560ZZ"},{"system":"http://snomed.info/sct","code":"175095005"}]},"subject":{"reference":"Patient/f916d085-e8dc-4e8d-97ae-07952c1062b9"},"performedPeriod":{"start":"2026-11-19T08:00:00.000Z","end":"2026-11-20T08:15:00.000Z"}},"request":{"method":"PUT","url":"Procedure/16522856-aaf7-4c39-bd9e-9ff01333cf80"}},{"fullUrl":"https://madie.cms.gov/Condition/ae16c9c3-81d1-49c0-bf54-690e98558d7b","resource":{"resourceType":"Condition","id":"ae16c9c3-81d1-49c0-bf54-690e98558d7b","meta":{"profile":["http://hl7.org/fhir/us/qicore/StructureDefinition/qicore-condition"]},"clinicalStatus":{"coding":[{"system":"http://terminology.hl7.org/CodeSystem/condition-clinical","code":"active"}]},"verificationStatus":{"coding":[{"system":"http://terminology.hl7.org/CodeSystem/condition-ver-status","code":"confirmed"}]},"category":[{"coding":[{"system":"http://terminology.hl7.org/CodeSystem/condition-category","code":"encounter-diagnosis","display":"Encounter Diagnosis"}]}],"code":{"coding":[{"system":"http://snomed.info/sct","version":"2021-09","code":"111297002","display":"Nonparalytic stroke (disorder)","userSelected":true}]},"subject":{"reference":"Patient/f916d085-e8dc-4e8d-97ae-07952c1062b9"},"recordedDate":"2026-10-13T08:00:00.000+00:00"},"request":{"method":"PUT","url":"Condition/ae16c9c3-81d1-49c0-bf54-690e98558d7b"}},{"fullUrl":"https://madie.cms.gov/Organization/2e5cce2b-d8b1-424a-8a40-9756d2fd9c87","resource":{"resourceType":"Organization","id":"5ad6ea38-07e9-4482-9e1b-c09eee595be9","meta":{"profile":["http://hl7.org/fhir/us/qicore/StructureDefinition/qicore-organization"]},"identifier":[{"use":"temp","system":"urn:oid:2.16.840.1.113883.4.4","value":"21-3259825"}],"active":true,"type":[{"coding":[{"system":"http://terminology.hl7.org/CodeSystem/organization-type","code":"pay","display":"Payer"}]}],"name":"Blue Cross Blue Shield of Texas","telecom":[{"system":"phone","value":"(+1) 972-766-6900"}],"address":[{"use":"billing","type":"postal","line":["P.O. Box 660044"],"city":"Dallas","state":"TX","postalCode":"75266-0044","country":"USA"}]},"request":{"method":"PUT","url":"Organization/5ad6ea38-07e9-4482-9e1b-c09eee595be9"}},{"fullUrl":"https://madie.cms.gov/Practitioner/5c0de18b-14a3-448b-8259-8791f9c2ba71","resource":{"resourceType":"Practitioner","id":"5c0de18b-14a3-448b-8259-8791f9c2ba71","identifier":[{"system":"http://hl7.org/fhir/sid/us-npi","value":"123456"}],"name":[{"family":"Evil","prefix":["Dr"]}]},"request":{"method":"PUT","url":"Practitioner/5c0de18b-14a3-448b-8259-8791f9c2ba71"}},{"fullUrl":"https://madie.cms.gov/MeasureReport/47a081b6-be49-45f4-a4fe-154424e417ab","resource":{"resourceType":"MeasureReport","id":"47a081b6-be49-45f4-a4fe-154424e417ab","meta":{"profile":["http://hl7.org/fhir/us/cqfmeasures/StructureDefinition/test-case-cqfm"]},"contained":[{"resourceType":"Parameters","id":"36bdef60-71c9-4a3a-8677-de228342914a-parameters","parameter":[{"name":"subject","valueString":"f916d085-e8dc-4e8d-97ae-07952c1062b9"}]}],"extension":[{"url":"http://hl7.org/fhir/us/cqfmeasures/StructureDefinition/cqfm-inputParameters","valueReference":{"reference":"#36bdef60-71c9-4a3a-8677-de228342914a-parameters"}},{"url":"http://hl7.org/fhir/us/cqfmeasures/StructureDefinition/cqfm-testCaseDescription","valueMarkdown":"Patient is discharged to acute care facility.(ACFA)\n"}],"modifierExtension":[{"url":"http://hl7.org/fhir/us/cqfmeasures/StructureDefinition/cqfm-isTestCase","valueBoolean":true}],"status":"complete","type":"individual","measure":"https://madie.cms.gov/Measure/CMS71FHIRSTKAnticoagAFFlutter","period":{"start":"2026-01-01","end":"2026-12-31"},"group":[{"population":[{"code":{"coding":[{"system":"http://terminology.hl7.org/CodeSystem/measure-population","code":"initial-population","display":"Initial Population"}]},"count":1},{"code":{"coding":[{"system":"http://terminology.hl7.org/CodeSystem/measure-population","code":"denominator","display":"Denominator"}]},"count":1},{"code":{"coding":[{"system":"http://terminology.hl7.org/CodeSystem/measure-population","code":"denominator-exclusion","display":"Denominator Exclusion"}]},"count":1},{"code":{"coding":[{"system":"http://terminology.hl7.org/CodeSystem/measure-population","code":"numerator","display":"Numerator"}]},"count":0},{"code":{"coding":[{"system":"http://terminology.hl7.org/CodeSystem/measure-population","code":"denominator-exception","display":"Denominator Exception"}]},"count":0}]}]},"request":{"method":"PUT","url":"MeasureReport/47a081b6-be49-45f4-a4fe-154424e417ab"}}]}