{"resourceType":"Bundle","id":"tests-2ed389dd-10d2-49b1-966b-f8bada7df530-bundle","type":"transaction","entry":[{"fullUrl":"https://madie.cms.gov/Patient/2ed389dd-10d2-49b1-966b-f8bada7df530","resource":{"resourceType":"Patient","id":"2ed389dd-10d2-49b1-966b-f8bada7df530","meta":{"profile":["http://hl7.org/fhir/us/qicore/StructureDefinition/qicore-patient"]},"text":{"status":"generated","div":"<div xmlns=\"http://www.w3.org/1999/xhtml\"><div class=\"hapiHeaderText\">CMOdurEnc_ED=1hrNoObsBFEnc <b>DENEXPASS </b></div><table class=\"hapiPropertyTable\"><tbody><tr><td>Identifier</td><td>c13349494c162d88448cb3ad5c0d4a05</td></tr><tr><td>Date of birth</td><td><span>18 September 1985</span></td></tr></tbody></table></div>"},"extension":[{"url":"http://hl7.org/fhir/us/core/StructureDefinition/us-core-race","extension":[{"url":"ombCategory","valueCoding":{"system":"urn:oid:2.16.840.1.113883.6.238","code":"1002-5","display":"American Indian or Alaska Native","userSelected":true}},{"url":"text","valueString":"American Indian or Alaska Native"}]},{"url":"http://hl7.org/fhir/us/core/StructureDefinition/us-core-ethnicity","extension":[{"url":"ombCategory","valueCoding":{"system":"urn:oid:2.16.840.1.113883.6.238","code":"2135-2","display":"Hispanic or Latino","userSelected":true}},{"url":"text","valueString":"Hispanic or Latino"}]}],"identifier":[{"type":{"coding":[{"system":"http://terminology.hl7.org/CodeSystem/v2-0203","code":"MR"}]},"system":"https://bonnie-fhir.healthit.gov/","value":"633c9d030968f8012250fc83"}],"active":true,"name":[{"use":"usual","family":"DENEXPass","given":["CMOdurEnc_ED=1hrNoObsBFEnc"]}],"gender":"female","birthDate":"1986-09-18"},"request":{"method":"PUT","url":"Patient/2ed389dd-10d2-49b1-966b-f8bada7df530"}},{"fullUrl":"https://madie.cms.gov/Condition/a3ee71a6-f712-46c5-9a12-641f728007d5","resource":{"resourceType":"Condition","id":"a3ee71a6-f712-46c5-9a12-641f728007d5","meta":{"profile":["http://hl7.org/fhir/us/qicore/StructureDefinition/qicore-condition"]},"clinicalStatus":{"coding":[{"system":"http://terminology.hl7.org/CodeSystem/condition-clinical","code":"inactive"}]},"verificationStatus":{"coding":[{"system":"http://terminology.hl7.org/CodeSystem/condition-ver-status","code":"confirmed"}]},"category":[{"coding":[{"system":"http://terminology.hl7.org/CodeSystem/condition-category","code":"encounter-diagnosis","display":"Encounter Diagnosis"}]}],"code":{"coding":[{"system":"http://hl7.org/fhir/sid/icd-10-cm","code":"I48.20"},{"system":"http://hl7.org/fhir/sid/icd-10-cm","code":"I48.0"},{"system":"http://snomed.info/sct","code":"5370000"}]},"subject":{"reference":"Patient/2ed389dd-10d2-49b1-966b-f8bada7df530"},"onsetDateTime":"2026-10-01T09:00:00.000Z","abatementDateTime":"2026-10-12T00:15:00.000Z"},"request":{"method":"PUT","url":"Condition/a3ee71a6-f712-46c5-9a12-641f728007d5"}},{"fullUrl":"https://madie.cms.gov/Encounter/53b0288d-9d3e-4946-a012-11fc41813550","resource":{"resourceType":"Encounter","id":"53b0288d-9d3e-4946-a012-11fc41813550","meta":{"profile":["http://hl7.org/fhir/us/qicore/StructureDefinition/qicore-encounter"]},"status":"finished","class":{"system":"http://terminology.hl7.org/CodeSystem/v3-ActCode","code":"EMER","display":"emergency"},"type":[{"coding":[{"system":"http://snomed.info/sct","code":"4525004"}]}],"subject":{"reference":"Patient/2ed389dd-10d2-49b1-966b-f8bada7df530"},"period":{"start":"2026-10-01T08:00:00.000Z","end":"2026-10-01T09:00:00.000Z"},"length":{"value":0,"unit":"days"}},"request":{"method":"PUT","url":"Encounter/53b0288d-9d3e-4946-a012-11fc41813550"}},{"fullUrl":"https://madie.cms.gov/Encounter/16537ac8-e77f-46b5-8dbd-15d628f29bd5","resource":{"resourceType":"Encounter","id":"16537ac8-e77f-46b5-8dbd-15d628f29bd5","meta":{"profile":["http://hl7.org/fhir/us/qicore/StructureDefinition/qicore-encounter"]},"status":"finished","class":{"system":"http://terminology.hl7.org/CodeSystem/v3-ActCode","code":"IMP","display":"inpatient encounter"},"type":[{"coding":[{"system":"http://snomed.info/sct","code":"32485007"}]}],"subject":{"reference":"Patient/2ed389dd-10d2-49b1-966b-f8bada7df530"},"period":{"start":"2026-10-01T09:00:00.000Z","end":"2026-10-12T00:15:00.000Z"},"length":{"value":11,"unit":"days"},"diagnosis":[{"condition":{"reference":"Condition/a60d3ac8-2cdc-4b67-9e71-38ae186a4771"},"use":{"coding":[{"system":"http://terminology.hl7.org/CodeSystem/diagnosis-role","code":"billing","display":"Billing"}]},"rank":1}]},"request":{"method":"PUT","url":"Encounter/16537ac8-e77f-46b5-8dbd-15d628f29bd5"}},{"fullUrl":"https://madie.cms.gov/ServiceRequest/f6db024a-c605-4459-af92-7cc5415a1328","resource":{"resourceType":"ServiceRequest","id":"f6db024a-c605-4459-af92-7cc5415a1328","meta":{"profile":["http://hl7.org/fhir/us/qicore/StructureDefinition/qicore-servicerequest"]},"status":"active","intent":"order","code":{"coding":[{"system":"http://snomed.info/sct","code":"133918004"}]},"subject":{"reference":"Patient/2ed389dd-10d2-49b1-966b-f8bada7df530"},"authoredOn":"2026-10-01T09:15:00.000+00:00"},"request":{"method":"PUT","url":"ServiceRequest/f6db024a-c605-4459-af92-7cc5415a1328"}},{"fullUrl":"https://madie.cms.gov/Coverage/7dc617c1-4474-441c-9df9-90f1840c4dc0","resource":{"resourceType":"Coverage","id":"7dc617c1-4474-441c-9df9-90f1840c4dc0","status":"active","beneficiary":{"reference":"Patient/2ed389dd-10d2-49b1-966b-f8bada7df530"},"period":{"start":"1986-09-18T08:00:00.000Z"},"payor":[{"reference":"Organization/a6c3e6fa-301e-4714-9d04-3dde9a7e7c49"}]},"request":{"method":"PUT","url":"Coverage/7dc617c1-4474-441c-9df9-90f1840c4dc0"}},{"fullUrl":"https://madie.cms.gov/Condition/a60d3ac8-2cdc-4b67-9e71-38ae186a4771","resource":{"resourceType":"Condition","id":"a60d3ac8-2cdc-4b67-9e71-38ae186a4771","meta":{"profile":["http://hl7.org/fhir/us/qicore/StructureDefinition/qicore-condition"]},"clinicalStatus":{"coding":[{"system":"http://terminology.hl7.org/CodeSystem/condition-clinical","code":"active"}]},"verificationStatus":{"coding":[{"system":"http://terminology.hl7.org/CodeSystem/condition-ver-status","code":"confirmed"}]},"category":[{"coding":[{"system":"http://terminology.hl7.org/CodeSystem/condition-category","code":"encounter-diagnosis","display":"Encounter Diagnosis"}]}],"code":{"coding":[{"system":"http://snomed.info/sct","version":"2021-09","code":"111297002","display":"Nonparalytic stroke (disorder)","userSelected":true}]},"subject":{"reference":"Patient/2ed389dd-10d2-49b1-966b-f8bada7df530"},"recordedDate":"2026-10-13T08:00:00.000+00:00"},"request":{"method":"PUT","url":"Condition/a60d3ac8-2cdc-4b67-9e71-38ae186a4771"}},{"fullUrl":"https://madie.cms.gov/Organization/85131df5-917f-4521-ad07-ca4455314621","resource":{"resourceType":"Organization","id":"a6c3e6fa-301e-4714-9d04-3dde9a7e7c49","meta":{"profile":["http://hl7.org/fhir/us/qicore/StructureDefinition/qicore-organization"]},"identifier":[{"use":"temp","system":"urn:oid:2.16.840.1.113883.4.4","value":"21-3259825"}],"active":true,"type":[{"coding":[{"system":"http://terminology.hl7.org/CodeSystem/organization-type","code":"pay","display":"Payer"}]}],"name":"Blue Cross Blue Shield of Texas","telecom":[{"system":"phone","value":"(+1) 972-766-6900"}],"address":[{"use":"billing","type":"postal","line":["P.O. Box 660044"],"city":"Dallas","state":"TX","postalCode":"75266-0044","country":"USA"}]},"request":{"method":"PUT","url":"Organization/a6c3e6fa-301e-4714-9d04-3dde9a7e7c49"}},{"fullUrl":"https://madie.cms.gov/Practitioner/23445e9e-7468-4125-8882-fd5e7aae2135","resource":{"resourceType":"Practitioner","id":"23445e9e-7468-4125-8882-fd5e7aae2135","identifier":[{"system":"http://hl7.org/fhir/sid/us-npi","value":"123456"}],"name":[{"family":"Evil","prefix":["Dr"]}]},"request":{"method":"PUT","url":"Practitioner/23445e9e-7468-4125-8882-fd5e7aae2135"}},{"fullUrl":"https://madie.cms.gov/MeasureReport/22349fa5-3697-434f-98f7-26208c7ed048","resource":{"resourceType":"MeasureReport","id":"22349fa5-3697-434f-98f7-26208c7ed048","meta":{"profile":["http://hl7.org/fhir/us/cqfmeasures/StructureDefinition/test-case-cqfm"]},"contained":[{"resourceType":"Parameters","id":"e20e9cf7-16af-41c7-92b2-6d8d7b4e4776-parameters","parameter":[{"name":"subject","valueString":"2ed389dd-10d2-49b1-966b-f8bada7df530"}]}],"extension":[{"url":"http://hl7.org/fhir/us/cqfmeasures/StructureDefinition/cqfm-inputParameters","valueReference":{"reference":"#e20e9cf7-16af-41c7-92b2-6d8d7b4e4776-parameters"}},{"url":"http://hl7.org/fhir/us/cqfmeasures/StructureDefinition/cqfm-testCaseDescription","valueMarkdown":"Patient receives CMO during inpatient encounter. ED starts 60 minutes before inpatient encounter start. No Observation. Testing HospitalizationWithObservation function.\n"}],"modifierExtension":[{"url":"http://hl7.org/fhir/us/cqfmeasures/StructureDefinition/cqfm-isTestCase","valueBoolean":true}],"status":"complete","type":"individual","measure":"https://madie.cms.gov/Measure/CMS71FHIRSTKAnticoagAFFlutter","period":{"start":"2026-01-01","end":"2026-12-31"},"group":[{"population":[{"code":{"coding":[{"system":"http://terminology.hl7.org/CodeSystem/measure-population","code":"initial-population","display":"Initial Population"}]},"count":1},{"code":{"coding":[{"system":"http://terminology.hl7.org/CodeSystem/measure-population","code":"denominator","display":"Denominator"}]},"count":1},{"code":{"coding":[{"system":"http://terminology.hl7.org/CodeSystem/measure-population","code":"denominator-exclusion","display":"Denominator Exclusion"}]},"count":1},{"code":{"coding":[{"system":"http://terminology.hl7.org/CodeSystem/measure-population","code":"numerator","display":"Numerator"}]},"count":0},{"code":{"coding":[{"system":"http://terminology.hl7.org/CodeSystem/measure-population","code":"denominator-exception","display":"Denominator Exception"}]},"count":0}]}]},"request":{"method":"PUT","url":"MeasureReport/22349fa5-3697-434f-98f7-26208c7ed048"}}]}