{"resourceType":"Bundle","id":"tests-f7838ae4-6846-4bc0-a1e9-2002d5f5b357-bundle","type":"transaction","entry":[{"fullUrl":"https://madie.cms.gov/Patient/f7838ae4-6846-4bc0-a1e9-2002d5f5b357","resource":{"resourceType":"Patient","id":"f7838ae4-6846-4bc0-a1e9-2002d5f5b357","meta":{"profile":["http://hl7.org/fhir/us/qicore/StructureDefinition/qicore-patient"]},"text":{"status":"generated","div":"<div xmlns=\"http://www.w3.org/1999/xhtml\"><div class=\"hapiHeaderText\">DischargeHomeHospice <b>DENEXPASS </b></div><table class=\"hapiPropertyTable\"><tbody><tr><td>Identifier</td><td>1a0e2fe3bc737b1663e6e968cef6d8b3</td></tr><tr><td>Date of birth</td><td><span>31 July 1969</span></td></tr></tbody></table></div>"},"extension":[{"url":"http://hl7.org/fhir/us/core/StructureDefinition/us-core-race","extension":[{"url":"ombCategory","valueCoding":{"system":"urn:oid:2.16.840.1.113883.6.238","code":"1002-5","display":"American Indian or Alaska Native","userSelected":true}},{"url":"text","valueString":"American Indian or Alaska Native"}]},{"url":"http://hl7.org/fhir/us/core/StructureDefinition/us-core-ethnicity","extension":[{"url":"ombCategory","valueCoding":{"system":"urn:oid:2.16.840.1.113883.6.238","code":"2135-2","display":"Hispanic or Latino","userSelected":true}},{"url":"text","valueString":"Hispanic or Latino"}]}],"identifier":[{"type":{"coding":[{"system":"http://terminology.hl7.org/CodeSystem/v2-0203","code":"MR"}]},"system":"https://bonnie-fhir.healthit.gov/","value":"633c9d030968f8012250fc7d"}],"active":true,"name":[{"use":"usual","family":"DENEXPass","given":["DischargeHomeHospice"]}],"gender":"male","birthDate":"1970-07-31"},"request":{"method":"PUT","url":"Patient/f7838ae4-6846-4bc0-a1e9-2002d5f5b357"}},{"fullUrl":"https://madie.cms.gov/Encounter/1ffe7e69-f3c2-47a6-8fea-5e90188dbcbd","resource":{"resourceType":"Encounter","id":"1ffe7e69-f3c2-47a6-8fea-5e90188dbcbd","meta":{"profile":["http://hl7.org/fhir/us/qicore/StructureDefinition/qicore-encounter"]},"status":"finished","class":{"system":"http://terminology.hl7.org/CodeSystem/v3-ActCode","code":"IMP","display":"inpatient encounter"},"type":[{"coding":[{"system":"http://snomed.info/sct","code":"32485007"}]}],"subject":{"reference":"Patient/f7838ae4-6846-4bc0-a1e9-2002d5f5b357"},"period":{"start":"2026-11-20T08:00:00.000Z","end":"2026-11-24T08:15:00.000Z"},"length":{"value":4,"unit":"days"},"diagnosis":[{"condition":{"reference":"Condition/b8ff9fb2-ed70-4108-b2df-a197f5e129f1"},"use":{"coding":[{"system":"http://terminology.hl7.org/CodeSystem/diagnosis-role","code":"billing","display":"Billing"}]},"rank":1}],"hospitalization":{"dischargeDisposition":{"coding":[{"system":"http://snomed.info/sct","code":"428361000124107","display":"Discharged to Home for Hospice Care"}]}}},"request":{"method":"PUT","url":"Encounter/1ffe7e69-f3c2-47a6-8fea-5e90188dbcbd"}},{"fullUrl":"https://madie.cms.gov/Coverage/2e705328-cde8-4ffd-bb7d-e4f128bb6cee","resource":{"resourceType":"Coverage","id":"2e705328-cde8-4ffd-bb7d-e4f128bb6cee","status":"active","beneficiary":{"reference":"Patient/f7838ae4-6846-4bc0-a1e9-2002d5f5b357"},"period":{"start":"1970-07-31T08:00:00.000Z"},"payor":[{"reference":"Organization/f7da4368-fb6d-4d73-a75b-f78024cbb18d"}]},"request":{"method":"PUT","url":"Coverage/2e705328-cde8-4ffd-bb7d-e4f128bb6cee"}},{"fullUrl":"https://madie.cms.gov/Procedure/4519b6de-3228-4d4b-bbb6-b98320813a7e","resource":{"resourceType":"Procedure","id":"4519b6de-3228-4d4b-bbb6-b98320813a7e","meta":{"profile":["http://hl7.org/fhir/us/qicore/StructureDefinition/qicore-procedure"]},"extension":[{"url":"http://hl7.org/fhir/us/qicore/StructureDefinition/qicore-recorded","valueDateTime":"2026-11-19T09:35:00-04:00"}],"status":"completed","code":{"coding":[{"system":"http://www.cms.gov/Medicare/Coding/ICD10","code":"02560ZZ"},{"system":"http://snomed.info/sct","code":"175095005"}]},"subject":{"reference":"Patient/f7838ae4-6846-4bc0-a1e9-2002d5f5b357"},"performedPeriod":{"start":"2026-11-19T08:00:00.000Z","end":"2026-11-20T08:15:00.000Z"}},"request":{"method":"PUT","url":"Procedure/4519b6de-3228-4d4b-bbb6-b98320813a7e"}},{"fullUrl":"https://madie.cms.gov/Condition/b8ff9fb2-ed70-4108-b2df-a197f5e129f1","resource":{"resourceType":"Condition","id":"b8ff9fb2-ed70-4108-b2df-a197f5e129f1","meta":{"profile":["http://hl7.org/fhir/us/qicore/StructureDefinition/qicore-condition"]},"clinicalStatus":{"coding":[{"system":"http://terminology.hl7.org/CodeSystem/condition-clinical","code":"active"}]},"verificationStatus":{"coding":[{"system":"http://terminology.hl7.org/CodeSystem/condition-ver-status","code":"confirmed"}]},"category":[{"coding":[{"system":"http://terminology.hl7.org/CodeSystem/condition-category","code":"encounter-diagnosis","display":"Encounter Diagnosis"}]}],"code":{"coding":[{"system":"http://snomed.info/sct","version":"2021-09","code":"111297002","display":"Nonparalytic stroke (disorder)","userSelected":true}]},"subject":{"reference":"Patient/f7838ae4-6846-4bc0-a1e9-2002d5f5b357"},"recordedDate":"2026-10-13T08:00:00.000+00:00"},"request":{"method":"PUT","url":"Condition/b8ff9fb2-ed70-4108-b2df-a197f5e129f1"}},{"fullUrl":"https://madie.cms.gov/Organization/567ca8dc-c532-4c0f-8153-673d14d590bc","resource":{"resourceType":"Organization","id":"f7da4368-fb6d-4d73-a75b-f78024cbb18d","meta":{"profile":["http://hl7.org/fhir/us/qicore/StructureDefinition/qicore-organization"]},"identifier":[{"use":"temp","system":"urn:oid:2.16.840.1.113883.4.4","value":"21-3259825"}],"active":true,"type":[{"coding":[{"system":"http://terminology.hl7.org/CodeSystem/organization-type","code":"pay","display":"Payer"}]}],"name":"Blue Cross Blue Shield of Texas","telecom":[{"system":"phone","value":"(+1) 972-766-6900"}],"address":[{"use":"billing","type":"postal","line":["P.O. Box 660044"],"city":"Dallas","state":"TX","postalCode":"75266-0044","country":"USA"}]},"request":{"method":"PUT","url":"Organization/f7da4368-fb6d-4d73-a75b-f78024cbb18d"}},{"fullUrl":"https://madie.cms.gov/Practitioner/54f30de2-3c0b-439f-b48b-ecc4b196644d","resource":{"resourceType":"Practitioner","id":"54f30de2-3c0b-439f-b48b-ecc4b196644d","identifier":[{"system":"http://hl7.org/fhir/sid/us-npi","value":"123456"}],"name":[{"family":"Evil","prefix":["Dr"]}]},"request":{"method":"PUT","url":"Practitioner/54f30de2-3c0b-439f-b48b-ecc4b196644d"}},{"fullUrl":"https://madie.cms.gov/MeasureReport/4339f60e-c92a-4b22-bd3d-fe837f8dc118","resource":{"resourceType":"MeasureReport","id":"4339f60e-c92a-4b22-bd3d-fe837f8dc118","meta":{"profile":["http://hl7.org/fhir/us/cqfmeasures/StructureDefinition/test-case-cqfm"]},"contained":[{"resourceType":"Parameters","id":"c38e6bf5-b992-40ff-8cce-b2b3248317de-parameters","parameter":[{"name":"subject","valueString":"f7838ae4-6846-4bc0-a1e9-2002d5f5b357"}]}],"extension":[{"url":"http://hl7.org/fhir/us/cqfmeasures/StructureDefinition/cqfm-inputParameters","valueReference":{"reference":"#c38e6bf5-b992-40ff-8cce-b2b3248317de-parameters"}},{"url":"http://hl7.org/fhir/us/cqfmeasures/StructureDefinition/cqfm-testCaseDescription","valueMarkdown":"Discharged to Home/Hospice\n"}],"modifierExtension":[{"url":"http://hl7.org/fhir/us/cqfmeasures/StructureDefinition/cqfm-isTestCase","valueBoolean":true}],"status":"complete","type":"individual","measure":"https://madie.cms.gov/Measure/CMS71FHIRSTKAnticoagAFFlutter","period":{"start":"2026-01-01","end":"2026-12-31"},"group":[{"population":[{"code":{"coding":[{"system":"http://terminology.hl7.org/CodeSystem/measure-population","code":"initial-population","display":"Initial Population"}]},"count":1},{"code":{"coding":[{"system":"http://terminology.hl7.org/CodeSystem/measure-population","code":"denominator","display":"Denominator"}]},"count":1},{"code":{"coding":[{"system":"http://terminology.hl7.org/CodeSystem/measure-population","code":"denominator-exclusion","display":"Denominator Exclusion"}]},"count":1},{"code":{"coding":[{"system":"http://terminology.hl7.org/CodeSystem/measure-population","code":"numerator","display":"Numerator"}]},"count":0},{"code":{"coding":[{"system":"http://terminology.hl7.org/CodeSystem/measure-population","code":"denominator-exception","display":"Denominator Exception"}]},"count":0}]}]},"request":{"method":"PUT","url":"MeasureReport/4339f60e-c92a-4b22-bd3d-fe837f8dc118"}}]}