{"resourceType":"Bundle","id":"tests-723ff153-68bd-455e-a841-4632cfde7193-bundle","type":"transaction","entry":[{"fullUrl":"https://madie.cms.gov/Patient/723ff153-68bd-455e-a841-4632cfde7193","resource":{"resourceType":"Patient","id":"723ff153-68bd-455e-a841-4632cfde7193","meta":{"profile":["http://hl7.org/fhir/us/qicore/StructureDefinition/qicore-patient"]},"text":{"status":"generated","div":"<div xmlns=\"http://www.w3.org/1999/xhtml\"><div class=\"hapiHeaderText\">INREQ3AfterICU <b>NUMERFAIL </b></div><table class=\"hapiPropertyTable\"><tbody><tr><td>Identifier</td><td>2a602c8f4a3fe9ea878f24c5526d40d3</td></tr><tr><td>Date of birth</td><td><span>03 March 1974</span></td></tr></tbody></table></div>"},"extension":[{"url":"http://hl7.org/fhir/us/core/StructureDefinition/us-core-race","extension":[{"url":"ombCategory","valueCoding":{"system":"urn:oid:2.16.840.1.113883.6.238","code":"1002-5","display":"American Indian or Alaska Native","userSelected":true}},{"url":"text","valueString":"American Indian or Alaska Native"}]},{"url":"http://hl7.org/fhir/us/core/StructureDefinition/us-core-ethnicity","extension":[{"url":"ombCategory","valueCoding":{"system":"urn:oid:2.16.840.1.113883.6.238","code":"2135-2","display":"Hispanic or Latino","userSelected":true}},{"url":"text","valueString":"Hispanic or Latino"}]}],"identifier":[{"type":{"coding":[{"system":"http://terminology.hl7.org/CodeSystem/v2-0203","code":"MR"}]},"system":"https://bonnie-fhir.healthit.gov/","value":"612e6ef202c62a011f2f0202"}],"active":true,"name":[{"use":"usual","family":"NUMERFail","given":["INREQ3AfterICU "]}],"gender":"female","birthDate":"1975-03-03"},"request":{"method":"PUT","url":"Patient/723ff153-68bd-455e-a841-4632cfde7193"}},{"fullUrl":"https://madie.cms.gov/Encounter/ceace68f-4c66-42bb-bd5a-22548832451e","resource":{"resourceType":"Encounter","id":"ceace68f-4c66-42bb-bd5a-22548832451e","meta":{"profile":["http://hl7.org/fhir/us/qicore/StructureDefinition/qicore-encounter"]},"status":"finished","class":{"system":"http://terminology.hl7.org/CodeSystem/v3-ActCode","code":"IMP","display":"inpatient encounter"},"type":[{"coding":[{"system":"http://snomed.info/sct","code":"8715000"}]}],"subject":{"reference":"Patient/723ff153-68bd-455e-a841-4632cfde7193"},"period":{"start":"2026-12-04T08:00:00+00:00","end":"2026-12-30T08:15:00+00:00"},"length":{"value":26.0,"unit":"days"},"location":[{"location":{"reference":"Location/ad81f900-2eb8-437a-b98e-f40d91691418"},"period":{"start":"2026-12-06T09:00:00.000+00:00","end":"2026-12-12T08:15:00.000+00:00"}}]},"request":{"method":"PUT","url":"Encounter/ceace68f-4c66-42bb-bd5a-22548832451e"}},{"fullUrl":"https://madie.cms.gov/Coverage/018436ca-ecfd-4f82-b3f0-9cef3aa43994","resource":{"resourceType":"Coverage","id":"018436ca-ecfd-4f82-b3f0-9cef3aa43994","status":"active","beneficiary":{"reference":"Patient/723ff153-68bd-455e-a841-4632cfde7193"},"period":{"start":"1975-03-03T08:00:00+00:00"},"payor":[{"reference":"Organization/5ad6ea38-07e9-4482-9e1b-c09eee595be9"}]},"request":{"method":"PUT","url":"Coverage/018436ca-ecfd-4f82-b3f0-9cef3aa43994"}},{"fullUrl":"https://madie.cms.gov/Observation/7144de17-f98f-4269-a689-edb747b12295","resource":{"resourceType":"Observation","id":"7144de17-f98f-4269-a689-edb747b12295","meta":{"profile":["http://hl7.org/fhir/us/qicore/StructureDefinition/qicore-observation"]},"status":"amended","category":[{"coding":[{"system":"http://terminology.hl7.org/CodeSystem/observation-category","code":"laboratory","display":"Laboratory"}]}],"code":{"coding":[{"system":"http://loinc.org","code":"34714-6"}]},"subject":{"reference":"Patient/723ff153-68bd-455e-a841-4632cfde7193"},"effectivePeriod":{"start":"2026-12-06T11:30:00+00:00"},"valueInteger":3},"request":{"method":"PUT","url":"Observation/7144de17-f98f-4269-a689-edb747b12295"}},{"fullUrl":"https://madie.cms.gov/Location/ad81f900-2eb8-437a-b98e-f40d91691418","resource":{"resourceType":"Location","id":"ad81f900-2eb8-437a-b98e-f40d91691418","meta":{"profile":["http://hl7.org/fhir/us/qicore/StructureDefinition/qicore-location"]},"identifier":[{"use":"usual","system":"http://exampleoflocation.com","value":"B1-S.F2"}],"name":"Medical Surgical East, first floor","type":[{"coding":[{"system":"https://www.cdc.gov/nhsn/cdaportal/terminology/codesystem/hsloc.html","code":"1025-6","display":"Trauma Critical Care","userSelected":true}]}]},"request":{"method":"PUT","url":"Location/ad81f900-2eb8-437a-b98e-f40d91691418"}},{"fullUrl":"https://madie.cms.gov/Organization/f8708562-e421-438c-bc63-c0e9a74f3621","resource":{"resourceType":"Organization","id":"5ad6ea38-07e9-4482-9e1b-c09eee595be9","meta":{"profile":["http://hl7.org/fhir/us/qicore/StructureDefinition/qicore-organization"]},"identifier":[{"use":"temp","system":"urn:oid:2.16.840.1.113883.4.4","value":"21-3259825"}],"active":true,"type":[{"coding":[{"system":"http://terminology.hl7.org/CodeSystem/organization-type","code":"pay","display":"Payer"}]}],"name":"Blue Cross Blue Shield of Texas","telecom":[{"system":"phone","value":"(+1) 972-766-6900"}],"address":[{"use":"billing","type":"postal","line":["P.O. Box 660044"],"city":"Dallas","state":"TX","postalCode":"75266-0044","country":"USA"}]},"request":{"method":"PUT","url":"Organization/5ad6ea38-07e9-4482-9e1b-c09eee595be9"}},{"fullUrl":"https://madie.cms.gov/Practitioner/c4f16e41-048a-4513-9d0c-98c8c1ae8f5b","resource":{"resourceType":"Practitioner","id":"c4f16e41-048a-4513-9d0c-98c8c1ae8f5b","identifier":[{"system":"http://hl7.org/fhir/sid/us-npi","value":"123456"}],"name":[{"family":"Evil","prefix":["Dr"]}]},"request":{"method":"PUT","url":"Practitioner/c4f16e41-048a-4513-9d0c-98c8c1ae8f5b"}},{"fullUrl":"https://madie.cms.gov/MeasureReport/4462baa1-1f59-41d5-bba4-60bcf71de5a0","resource":{"resourceType":"MeasureReport","id":"4462baa1-1f59-41d5-bba4-60bcf71de5a0","meta":{"profile":["http://hl7.org/fhir/us/cqfmeasures/StructureDefinition/test-case-cqfm"]},"contained":[{"resourceType":"Parameters","id":"884a98a3-e64b-4e83-bb7d-73ea58d8a9b8-parameters","parameter":[{"name":"subject","valueString":"723ff153-68bd-455e-a841-4632cfde7193"}]}],"extension":[{"url":"http://hl7.org/fhir/us/cqfmeasures/StructureDefinition/cqfm-inputParameters","valueReference":{"reference":"#884a98a3-e64b-4e83-bb7d-73ea58d8a9b8-parameters"}},{"url":"http://hl7.org/fhir/us/cqfmeasures/StructureDefinition/cqfm-testCaseDescription","valueMarkdown":"FAIL - meets IPP, meets Denominator, INR=3 starts after start ICU\n"}],"modifierExtension":[{"url":"http://hl7.org/fhir/us/cqfmeasures/StructureDefinition/cqfm-isTestCase","valueBoolean":true}],"status":"complete","type":"individual","measure":"https://madie.cms.gov/Measure/CMS190VTEProphylaxisICUFHIR","period":{"start":"2026-01-01","end":"2026-12-31"},"group":[{"population":[{"code":{"coding":[{"system":"http://terminology.hl7.org/CodeSystem/measure-population","code":"initial-population","display":"Initial Population"}]},"count":1},{"code":{"coding":[{"system":"http://terminology.hl7.org/CodeSystem/measure-population","code":"denominator","display":"Denominator"}]},"count":1},{"code":{"coding":[{"system":"http://terminology.hl7.org/CodeSystem/measure-population","code":"denominator-exclusion","display":"Denominator Exclusion"}]},"count":0},{"code":{"coding":[{"system":"http://terminology.hl7.org/CodeSystem/measure-population","code":"numerator","display":"Numerator"}]},"count":0},{"code":{"coding":[{"system":"http://terminology.hl7.org/CodeSystem/measure-population","code":"denominator-exception","display":"Denominator Exception"}]},"count":0}]}]},"request":{"method":"PUT","url":"MeasureReport/4462baa1-1f59-41d5-bba4-60bcf71de5a0"}}]}