{"resourceType":"Bundle","id":"tests-e18e3c0b-6a5d-4977-a65d-1dcfcb731f57-bundle","type":"transaction","entry":[{"fullUrl":"https://madie.cms.gov/Patient/e18e3c0b-6a5d-4977-a65d-1dcfcb731f57","resource":{"resourceType":"Patient","id":"e18e3c0b-6a5d-4977-a65d-1dcfcb731f57","meta":{"profile":["http://hl7.org/fhir/us/qicore/StructureDefinition/qicore-patient"]},"text":{"status":"generated","div":"<div xmlns=\"http://www.w3.org/1999/xhtml\"><div class=\"hapiHeaderText\">GYNSurgeryGT1DayAfterICUStart <b>DENEXFAIL </b></div><table class=\"hapiPropertyTable\"><tbody><tr><td>Identifier</td><td>c86bf4d45e0ace80da93806dc6ebb45b</td></tr><tr><td>Date of birth</td><td><span>03 February 1975</span></td></tr></tbody></table></div>"},"extension":[{"url":"http://hl7.org/fhir/us/core/StructureDefinition/us-core-race","extension":[{"url":"ombCategory","valueCoding":{"system":"urn:oid:2.16.840.1.113883.6.238","code":"1002-5","display":"American Indian or Alaska Native","userSelected":true}},{"url":"text","valueString":"American Indian or Alaska Native"}]},{"url":"http://hl7.org/fhir/us/core/StructureDefinition/us-core-ethnicity","extension":[{"url":"ombCategory","valueCoding":{"system":"urn:oid:2.16.840.1.113883.6.238","code":"2135-2","display":"Hispanic or Latino","userSelected":true}},{"url":"text","valueString":"Hispanic or Latino"}]}],"identifier":[{"type":{"coding":[{"system":"http://terminology.hl7.org/CodeSystem/v2-0203","code":"MR"}]},"system":"https://bonnie-fhir.healthit.gov/","value":"612e6ec302c62a011f2ef7ec"}],"active":true,"name":[{"use":"usual","family":"DENEXFail","given":["GYNSurgeryGT1DayAfterICUStart"]}],"gender":"female","birthDate":"1976-02-03"},"request":{"method":"PUT","url":"Patient/e18e3c0b-6a5d-4977-a65d-1dcfcb731f57"}},{"fullUrl":"https://madie.cms.gov/Encounter/1424e859-f1b0-416f-a259-afd9bdd3963c","resource":{"resourceType":"Encounter","id":"1424e859-f1b0-416f-a259-afd9bdd3963c","meta":{"profile":["http://hl7.org/fhir/us/qicore/StructureDefinition/qicore-encounter"]},"status":"finished","class":{"system":"http://terminology.hl7.org/CodeSystem/v3-ActCode","code":"IMP","display":"inpatient encounter"},"type":[{"coding":[{"system":"http://snomed.info/sct","code":"8715000"}]}],"subject":{"reference":"Patient/e18e3c0b-6a5d-4977-a65d-1dcfcb731f57"},"period":{"start":"2026-12-04T08:00:00+00:00","end":"2026-12-30T08:15:00+00:00"},"length":{"value":26.0,"unit":"days"},"location":[{"location":{"reference":"Location/8157f7e7-68b1-4c85-8737-ebd4f4cee343"},"period":{"start":"2026-12-06T08:00:00.000+00:00","end":"2026-12-08T08:15:00.000+00:00"}}]},"request":{"method":"PUT","url":"Encounter/1424e859-f1b0-416f-a259-afd9bdd3963c"}},{"fullUrl":"https://madie.cms.gov/Coverage/207bcbf8-6a25-44e0-9659-9d75ece63022","resource":{"resourceType":"Coverage","id":"207bcbf8-6a25-44e0-9659-9d75ece63022","status":"active","beneficiary":{"reference":"Patient/e18e3c0b-6a5d-4977-a65d-1dcfcb731f57"},"period":{"start":"1975-03-03T08:00:00+00:00"},"payor":[{"reference":"Organization/890316dc-a4ad-43b4-ba6f-9fb9e6eca282"}]},"request":{"method":"PUT","url":"Coverage/207bcbf8-6a25-44e0-9659-9d75ece63022"}},{"fullUrl":"https://madie.cms.gov/Procedure/798c734d-7036-4233-9031-396029423bae","resource":{"resourceType":"Procedure","id":"798c734d-7036-4233-9031-396029423bae","meta":{"profile":["http://hl7.org/fhir/us/qicore/StructureDefinition/qicore-procedure"]},"extension":[{"url":"http://hl7.org/fhir/us/qicore/StructureDefinition/qicore-recorded","valueDateTime":"2013-12-08T09:35:00-04:00"}],"status":"completed","code":{"coding":[{"system":"http://www.cms.gov/Medicare/Coding/ICD10","code":"0U500ZZ"}]},"subject":{"reference":"Patient/e18e3c0b-6a5d-4977-a65d-1dcfcb731f57"},"performedPeriod":{"start":"2026-12-08T08:15:00+00:00","end":"2026-12-08T11:15:00+00:00"}},"request":{"method":"PUT","url":"Procedure/798c734d-7036-4233-9031-396029423bae"}},{"fullUrl":"https://madie.cms.gov/Location/8157f7e7-68b1-4c85-8737-ebd4f4cee343","resource":{"resourceType":"Location","id":"8157f7e7-68b1-4c85-8737-ebd4f4cee343","meta":{"profile":["http://hl7.org/fhir/us/qicore/StructureDefinition/qicore-location"]},"identifier":[{"use":"usual","system":"http://exampleoflocation.com","value":"B1-S.F2"}],"name":"Medical Surgical East, first floor","type":[{"coding":[{"system":"https://www.cdc.gov/nhsn/cdaportal/terminology/codesystem/hsloc.html","code":"1025-6","display":"Trauma Critical Care","userSelected":true}]}]},"request":{"method":"PUT","url":"Location/8157f7e7-68b1-4c85-8737-ebd4f4cee343"}},{"fullUrl":"https://madie.cms.gov/Organization/d3168518-8da9-42c7-8ab7-f914b0646922","resource":{"resourceType":"Organization","id":"890316dc-a4ad-43b4-ba6f-9fb9e6eca282","meta":{"profile":["http://hl7.org/fhir/us/qicore/StructureDefinition/qicore-organization"]},"identifier":[{"use":"temp","system":"urn:oid:2.16.840.1.113883.4.4","value":"21-3259825"}],"active":true,"type":[{"coding":[{"system":"http://terminology.hl7.org/CodeSystem/organization-type","code":"pay","display":"Payer"}]}],"name":"Blue Cross Blue Shield of Texas","telecom":[{"system":"phone","value":"(+1) 972-766-6900"}],"address":[{"use":"billing","type":"postal","line":["P.O. Box 660044"],"city":"Dallas","state":"TX","postalCode":"75266-0044","country":"USA"}]},"request":{"method":"PUT","url":"Organization/890316dc-a4ad-43b4-ba6f-9fb9e6eca282"}},{"fullUrl":"https://madie.cms.gov/Practitioner/0be08729-e1c6-4bc6-80e8-60b9fb842785","resource":{"resourceType":"Practitioner","id":"0be08729-e1c6-4bc6-80e8-60b9fb842785","identifier":[{"system":"http://hl7.org/fhir/sid/us-npi","value":"123456"}],"name":[{"family":"Evil","prefix":["Dr"]}]},"request":{"method":"PUT","url":"Practitioner/0be08729-e1c6-4bc6-80e8-60b9fb842785"}},{"fullUrl":"https://madie.cms.gov/MeasureReport/b90809e6-461b-46f3-b6c8-bf791a7d5fce","resource":{"resourceType":"MeasureReport","id":"b90809e6-461b-46f3-b6c8-bf791a7d5fce","meta":{"profile":["http://hl7.org/fhir/us/cqfmeasures/StructureDefinition/test-case-cqfm"]},"contained":[{"resourceType":"Parameters","id":"6933c20e-ca8c-45be-8d58-38fda5888e5e-parameters","parameter":[{"name":"subject","valueString":"e18e3c0b-6a5d-4977-a65d-1dcfcb731f57"}]}],"extension":[{"url":"http://hl7.org/fhir/us/cqfmeasures/StructureDefinition/cqfm-inputParameters","valueReference":{"reference":"#6933c20e-ca8c-45be-8d58-38fda5888e5e-parameters"}},{"url":"http://hl7.org/fhir/us/cqfmeasures/StructureDefinition/cqfm-testCaseDescription","valueMarkdown":"gynecological surgery starts > 1 day after start of ICU admission\n"}],"modifierExtension":[{"url":"http://hl7.org/fhir/us/cqfmeasures/StructureDefinition/cqfm-isTestCase","valueBoolean":true}],"status":"complete","type":"individual","measure":"https://madie.cms.gov/Measure/CMS190VTEProphylaxisICUFHIR","period":{"start":"2026-01-01","end":"2026-12-31"},"group":[{"population":[{"code":{"coding":[{"system":"http://terminology.hl7.org/CodeSystem/measure-population","code":"initial-population","display":"Initial Population"}]},"count":1},{"code":{"coding":[{"system":"http://terminology.hl7.org/CodeSystem/measure-population","code":"denominator","display":"Denominator"}]},"count":1},{"code":{"coding":[{"system":"http://terminology.hl7.org/CodeSystem/measure-population","code":"denominator-exclusion","display":"Denominator Exclusion"}]},"count":0},{"code":{"coding":[{"system":"http://terminology.hl7.org/CodeSystem/measure-population","code":"numerator","display":"Numerator"}]},"count":0},{"code":{"coding":[{"system":"http://terminology.hl7.org/CodeSystem/measure-population","code":"denominator-exception","display":"Denominator Exception"}]},"count":0}]}]},"request":{"method":"PUT","url":"MeasureReport/b90809e6-461b-46f3-b6c8-bf791a7d5fce"}}]}