{"resourceType":"Bundle","id":"tests-67779759-3d22-4b31-b504-e04af90edfc0-bundle","type":"transaction","entry":[{"fullUrl":"https://madie.cms.gov/Patient/67779759-3d22-4b31-b504-e04af90edfc0","resource":{"resourceType":"Patient","id":"67779759-3d22-4b31-b504-e04af90edfc0","meta":{"profile":["http://hl7.org/fhir/us/qicore/StructureDefinition/qicore-patient"]},"text":{"status":"generated","div":"<div xmlns=\"http://www.w3.org/1999/xhtml\"><div class=\"hapiHeaderText\">ICUEndOnEncEnd <b>DENOMPASS </b></div><table class=\"hapiPropertyTable\"><tbody><tr><td>Identifier</td><td>d2ffb757f543275338776a1648cb3dc0</td></tr><tr><td>Date of birth</td><td><span>31 January 1979</span></td></tr></tbody></table></div>"},"extension":[{"url":"http://hl7.org/fhir/us/core/StructureDefinition/us-core-race","extension":[{"url":"ombCategory","valueCoding":{"system":"urn:oid:2.16.840.1.113883.6.238","code":"1002-5","display":"American Indian or Alaska Native","userSelected":true}},{"url":"text","valueString":"American Indian or Alaska Native"}]},{"url":"http://hl7.org/fhir/us/core/StructureDefinition/us-core-ethnicity","extension":[{"url":"ombCategory","valueCoding":{"system":"urn:oid:2.16.840.1.113883.6.238","code":"2135-2","display":"Hispanic or Latino","userSelected":true}},{"url":"text","valueString":"Hispanic or Latino"}]}],"identifier":[{"type":{"coding":[{"system":"http://terminology.hl7.org/CodeSystem/v2-0203","code":"MR"}]},"system":"https://bonnie-fhir.healthit.gov/","value":"612e6f1602c62a011f2f0b00"}],"active":true,"name":[{"use":"usual","family":"DENOMPass","given":["ICUEndOnEncEnd"]}],"gender":"male","birthDate":"1980-01-31"},"request":{"method":"PUT","url":"Patient/67779759-3d22-4b31-b504-e04af90edfc0"}},{"fullUrl":"https://madie.cms.gov/Encounter/dc1b012c-b2f0-4a95-86c5-c503b230a0fd","resource":{"resourceType":"Encounter","id":"dc1b012c-b2f0-4a95-86c5-c503b230a0fd","meta":{"profile":["http://hl7.org/fhir/us/qicore/StructureDefinition/qicore-encounter"]},"status":"finished","class":{"system":"http://terminology.hl7.org/CodeSystem/v3-ActCode","code":"IMP","display":"inpatient encounter"},"type":[{"coding":[{"system":"http://snomed.info/sct","code":"8715000"}]}],"subject":{"reference":"Patient/67779759-3d22-4b31-b504-e04af90edfc0"},"period":{"start":"2026-12-01T00:00:00+00:00","end":"2026-12-31T23:59:00+00:00"},"length":{"value":30.0,"unit":"days"},"location":[{"location":{"reference":"Location/88eb97de-d5d7-46df-a5f3-2d5c9d206cdd"},"period":{"start":"2026-12-29T08:00:00.000+00:00","end":"2026-12-31T11:59:00.000+00:00"}}]},"request":{"method":"PUT","url":"Encounter/dc1b012c-b2f0-4a95-86c5-c503b230a0fd"}},{"fullUrl":"https://madie.cms.gov/Coverage/52b795ea-9d3b-439e-a10c-0f24adf39388","resource":{"resourceType":"Coverage","id":"52b795ea-9d3b-439e-a10c-0f24adf39388","status":"active","beneficiary":{"reference":"Patient/67779759-3d22-4b31-b504-e04af90edfc0"},"period":{"start":"1975-03-03T08:00:00+00:00"},"payor":[{"reference":"Organization/607fdef9-3983-4cef-ab1a-95434d29b463"}]},"request":{"method":"PUT","url":"Coverage/52b795ea-9d3b-439e-a10c-0f24adf39388"}},{"fullUrl":"https://madie.cms.gov/Location/88eb97de-d5d7-46df-a5f3-2d5c9d206cdd","resource":{"resourceType":"Location","id":"88eb97de-d5d7-46df-a5f3-2d5c9d206cdd","meta":{"profile":["http://hl7.org/fhir/us/qicore/StructureDefinition/qicore-location"]},"identifier":[{"use":"usual","system":"http://exampleoflocation.com","value":"B1-S.F2"}],"name":"Medical Surgical East, first floor","type":[{"coding":[{"system":"https://www.cdc.gov/nhsn/cdaportal/terminology/codesystem/hsloc.html","code":"1025-6","display":"Trauma Critical Care","userSelected":true}]}]},"request":{"method":"PUT","url":"Location/88eb97de-d5d7-46df-a5f3-2d5c9d206cdd"}},{"fullUrl":"https://madie.cms.gov/Organization/9eddf397-2cb2-4fe7-80a0-f8373eea6292","resource":{"resourceType":"Organization","id":"607fdef9-3983-4cef-ab1a-95434d29b463","meta":{"profile":["http://hl7.org/fhir/us/qicore/StructureDefinition/qicore-organization"]},"identifier":[{"use":"temp","system":"urn:oid:2.16.840.1.113883.4.4","value":"21-3259825"}],"active":true,"type":[{"coding":[{"system":"http://terminology.hl7.org/CodeSystem/organization-type","code":"pay","display":"Payer"}]}],"name":"Blue Cross Blue Shield of Texas","telecom":[{"system":"phone","value":"(+1) 972-766-6900"}],"address":[{"use":"billing","type":"postal","line":["P.O. Box 660044"],"city":"Dallas","state":"TX","postalCode":"75266-0044","country":"USA"}]},"request":{"method":"PUT","url":"Organization/607fdef9-3983-4cef-ab1a-95434d29b463"}},{"fullUrl":"https://madie.cms.gov/Practitioner/8a5aa798-b7ca-4b41-9dfc-a0fb24f78892","resource":{"resourceType":"Practitioner","id":"8a5aa798-b7ca-4b41-9dfc-a0fb24f78892","identifier":[{"system":"http://hl7.org/fhir/sid/us-npi","value":"123456"}],"name":[{"family":"Evil","prefix":["Dr"]}]},"request":{"method":"PUT","url":"Practitioner/8a5aa798-b7ca-4b41-9dfc-a0fb24f78892"}},{"fullUrl":"https://madie.cms.gov/MeasureReport/7fa39aca-592b-4ae0-af21-91c3a3aa4dbb","resource":{"resourceType":"MeasureReport","id":"7fa39aca-592b-4ae0-af21-91c3a3aa4dbb","meta":{"profile":["http://hl7.org/fhir/us/cqfmeasures/StructureDefinition/test-case-cqfm"]},"contained":[{"resourceType":"Parameters","id":"a3ce981e-2fdc-4199-bac6-6d9873e5d6f9-parameters","parameter":[{"name":"subject","valueString":"67779759-3d22-4b31-b504-e04af90edfc0"}]}],"extension":[{"url":"http://hl7.org/fhir/us/cqfmeasures/StructureDefinition/cqfm-inputParameters","valueReference":{"reference":"#a3ce981e-2fdc-4199-bac6-6d9873e5d6f9-parameters"}},{"url":"http://hl7.org/fhir/us/cqfmeasures/StructureDefinition/cqfm-testCaseDescription","valueMarkdown":"ICU ends concurrent with discharge\n"}],"modifierExtension":[{"url":"http://hl7.org/fhir/us/cqfmeasures/StructureDefinition/cqfm-isTestCase","valueBoolean":true}],"status":"complete","type":"individual","measure":"https://madie.cms.gov/Measure/CMS190VTEProphylaxisICUFHIR","period":{"start":"2026-01-01","end":"2026-12-31"},"group":[{"population":[{"code":{"coding":[{"system":"http://terminology.hl7.org/CodeSystem/measure-population","code":"initial-population","display":"Initial Population"}]},"count":1},{"code":{"coding":[{"system":"http://terminology.hl7.org/CodeSystem/measure-population","code":"denominator","display":"Denominator"}]},"count":1},{"code":{"coding":[{"system":"http://terminology.hl7.org/CodeSystem/measure-population","code":"denominator-exclusion","display":"Denominator Exclusion"}]},"count":0},{"code":{"coding":[{"system":"http://terminology.hl7.org/CodeSystem/measure-population","code":"numerator","display":"Numerator"}]},"count":0},{"code":{"coding":[{"system":"http://terminology.hl7.org/CodeSystem/measure-population","code":"denominator-exception","display":"Denominator Exception"}]},"count":0}]}]},"request":{"method":"PUT","url":"MeasureReport/7fa39aca-592b-4ae0-af21-91c3a3aa4dbb"}}]}