{"resourceType":"Bundle","id":"tests-8bc6fd51-97ab-4227-9934-0b232fef8f71-bundle","type":"transaction","entry":[{"fullUrl":"https://madie.cms.gov/Patient/8bc6fd51-97ab-4227-9934-0b232fef8f71","resource":{"resourceType":"Patient","id":"8bc6fd51-97ab-4227-9934-0b232fef8f71","meta":{"profile":["http://hl7.org/fhir/us/qicore/StructureDefinition/qicore-patient"]},"text":{"status":"generated","div":"<div xmlns=\"http://www.w3.org/1999/xhtml\"><div class=\"hapiHeaderText\">CMPerfDuringObsGT1HrBFAdmCMO1DayBFAdm <b>DENEXFAIL </b></div><table class=\"hapiPropertyTable\"><tbody><tr><td>Identifier</td><td>ca18d6e37e170afcef4732571aa1f371744051b417fc365332415a5c544ef910</td></tr><tr><td>Date of birth</td><td><span>03 March 1974</span></td></tr></tbody></table></div>"},"extension":[{"url":"http://hl7.org/fhir/us/core/StructureDefinition/us-core-race","extension":[{"url":"ombCategory","valueCoding":{"system":"urn:oid:2.16.840.1.113883.6.238","code":"1002-5","display":"American Indian or Alaska Native","userSelected":true}},{"url":"text","valueString":"American Indian or Alaska Native"}]},{"url":"http://hl7.org/fhir/us/core/StructureDefinition/us-core-ethnicity","extension":[{"url":"ombCategory","valueCoding":{"system":"urn:oid:2.16.840.1.113883.6.238","code":"2135-2","display":"Hispanic or Latino","userSelected":true}},{"url":"text","valueString":"Hispanic or Latino"}]}],"identifier":[{"type":{"coding":[{"system":"http://terminology.hl7.org/CodeSystem/v2-0203","code":"MR"}]},"system":"https://bonnie-fhir.healthit.gov/","value":"612e6f6b02c62a011f2f1c62"}],"active":true,"name":[{"use":"usual","family":"DENEXFail","given":["CMPerfDuringObsGT1HrBFAdmCMO1DayBFAdm"]}],"gender":"female","birthDate":"1975-03-03"},"request":{"method":"PUT","url":"Patient/8bc6fd51-97ab-4227-9934-0b232fef8f71"}},{"fullUrl":"https://madie.cms.gov/Encounter/2a2903b0-6a8e-4b08-be27-95660fcf41be","resource":{"resourceType":"Encounter","id":"2a2903b0-6a8e-4b08-be27-95660fcf41be","meta":{"profile":["http://hl7.org/fhir/us/qicore/StructureDefinition/qicore-encounter"]},"status":"finished","class":{"system":"http://terminology.hl7.org/CodeSystem/v3-ActCode","code":"EMER","display":"emergency"},"type":[{"coding":[{"system":"http://snomed.info/sct","code":"4525004"}]}],"subject":{"reference":"Patient/8bc6fd51-97ab-4227-9934-0b232fef8f71"},"period":{"start":"2026-12-03T04:00:00+00:00","end":"2026-12-04T05:00:00+00:00"},"length":{"value":1.0,"unit":"days"}},"request":{"method":"PUT","url":"Encounter/2a2903b0-6a8e-4b08-be27-95660fcf41be"}},{"fullUrl":"https://madie.cms.gov/Encounter/c1ff7fa1-03b4-4f46-adb2-da28f645ba4f","resource":{"resourceType":"Encounter","id":"c1ff7fa1-03b4-4f46-adb2-da28f645ba4f","meta":{"profile":["http://hl7.org/fhir/us/qicore/StructureDefinition/qicore-encounter"]},"status":"finished","class":{"system":"http://terminology.hl7.org/CodeSystem/v3-ActCode","code":"IMP","display":"inpatient encounter"},"type":[{"coding":[{"system":"http://snomed.info/sct","code":"8715000"}]}],"subject":{"reference":"Patient/8bc6fd51-97ab-4227-9934-0b232fef8f71"},"period":{"start":"2026-12-04T07:16:00+00:00","end":"2026-12-30T08:15:00+00:00"},"length":{"value":26.0,"unit":"days"},"location":[{"location":{"reference":"Location/5affc77a-4992-4176-95dd-2bee9de9d9c7"},"period":{"start":"2026-12-26T08:00:00.000+00:00","end":"2026-12-28T08:15:00.000+00:00"}}]},"request":{"method":"PUT","url":"Encounter/c1ff7fa1-03b4-4f46-adb2-da28f645ba4f"}},{"fullUrl":"https://madie.cms.gov/Encounter/03519753-8f43-473e-aaa4-2c26a4f520e0","resource":{"resourceType":"Encounter","id":"03519753-8f43-473e-aaa4-2c26a4f520e0","meta":{"profile":["http://hl7.org/fhir/us/qicore/StructureDefinition/qicore-encounter"]},"status":"finished","class":{"system":"http://terminology.hl7.org/CodeSystem/v3-ActCode","code":"OBSENC","display":"observation encounter"},"type":[{"coding":[{"system":"http://snomed.info/sct","code":"448951000124107"}]}],"subject":{"reference":"Patient/8bc6fd51-97ab-4227-9934-0b232fef8f71"},"period":{"start":"2026-12-04T05:15:00+00:00","end":"2026-12-04T06:15:00+00:00"}},"request":{"method":"PUT","url":"Encounter/03519753-8f43-473e-aaa4-2c26a4f520e0"}},{"fullUrl":"https://madie.cms.gov/Procedure/9fdc99dc-baec-454c-becf-2227c35b23c2","resource":{"resourceType":"Procedure","id":"9fdc99dc-baec-454c-becf-2227c35b23c2","meta":{"profile":["http://hl7.org/fhir/us/qicore/StructureDefinition/qicore-procedure"]},"extension":[{"url":"http://hl7.org/fhir/us/qicore/StructureDefinition/qicore-recorded","valueDateTime":"2013-12-03T09:35:00-04:00"}],"status":"completed","code":{"coding":[{"system":"http://snomed.info/sct","code":"133918004"}]},"subject":{"reference":"Patient/8bc6fd51-97ab-4227-9934-0b232fef8f71"},"performedPeriod":{"start":"2026-12-03T06:00:00+00:00"}},"request":{"method":"PUT","url":"Procedure/9fdc99dc-baec-454c-becf-2227c35b23c2"}},{"fullUrl":"https://madie.cms.gov/Coverage/5f5e3ee1-8bab-4992-9db1-b5ce3ce656ad","resource":{"resourceType":"Coverage","id":"5f5e3ee1-8bab-4992-9db1-b5ce3ce656ad","status":"active","beneficiary":{"reference":"Patient/8bc6fd51-97ab-4227-9934-0b232fef8f71"},"period":{"start":"1975-03-03T08:00:00+00:00"},"payor":[{"reference":"Organization/3e899f33-84eb-4634-a770-a5a0bd7a80e7"}]},"request":{"method":"PUT","url":"Coverage/5f5e3ee1-8bab-4992-9db1-b5ce3ce656ad"}},{"fullUrl":"https://madie.cms.gov/Location/5affc77a-4992-4176-95dd-2bee9de9d9c7","resource":{"resourceType":"Location","id":"5affc77a-4992-4176-95dd-2bee9de9d9c7","meta":{"profile":["http://hl7.org/fhir/us/qicore/StructureDefinition/qicore-location"]},"identifier":[{"use":"usual","system":"http://exampleoflocation.com","value":"B1-S.F2"}],"name":"Medical Surgical East, first floor","type":[{"coding":[{"system":"https://www.cdc.gov/nhsn/cdaportal/terminology/codesystem/hsloc.html","code":"1025-6","display":"Trauma Critical Care","userSelected":true}]}]},"request":{"method":"PUT","url":"Location/5affc77a-4992-4176-95dd-2bee9de9d9c7"}},{"fullUrl":"https://madie.cms.gov/Organization/adb90920-3bff-48f9-a9ba-4db56d67ae67","resource":{"resourceType":"Organization","id":"3e899f33-84eb-4634-a770-a5a0bd7a80e7","meta":{"profile":["http://hl7.org/fhir/us/qicore/StructureDefinition/qicore-organization"]},"identifier":[{"use":"temp","system":"urn:oid:2.16.840.1.113883.4.4","value":"21-3259825"}],"active":true,"type":[{"coding":[{"system":"http://terminology.hl7.org/CodeSystem/organization-type","code":"pay","display":"Payer"}]}],"name":"Blue Cross Blue Shield of Texas","telecom":[{"system":"phone","value":"(+1) 972-766-6900"}],"address":[{"use":"billing","type":"postal","line":["P.O. Box 660044"],"city":"Dallas","state":"TX","postalCode":"75266-0044","country":"USA"}]},"request":{"method":"PUT","url":"Organization/3e899f33-84eb-4634-a770-a5a0bd7a80e7"}},{"fullUrl":"https://madie.cms.gov/Practitioner/789a8d84-f936-4096-b9eb-a4be8371112d","resource":{"resourceType":"Practitioner","id":"789a8d84-f936-4096-b9eb-a4be8371112d","identifier":[{"system":"http://hl7.org/fhir/sid/us-npi","value":"123456"}],"name":[{"family":"Evil","prefix":["Dr"]}]},"request":{"method":"PUT","url":"Practitioner/789a8d84-f936-4096-b9eb-a4be8371112d"}},{"fullUrl":"https://madie.cms.gov/MeasureReport/b443b760-a5e0-4372-aed3-3eae1710786e","resource":{"resourceType":"MeasureReport","id":"b443b760-a5e0-4372-aed3-3eae1710786e","meta":{"profile":["http://hl7.org/fhir/us/cqfmeasures/StructureDefinition/test-case-cqfm"]},"contained":[{"resourceType":"Parameters","id":"07927bf3-4dc7-42dc-a99d-e1d2f2e3cd41-parameters","parameter":[{"name":"subject","valueString":"8bc6fd51-97ab-4227-9934-0b232fef8f71"}]}],"extension":[{"url":"http://hl7.org/fhir/us/cqfmeasures/StructureDefinition/cqfm-inputParameters","valueReference":{"reference":"#07927bf3-4dc7-42dc-a99d-e1d2f2e3cd41-parameters"}},{"url":"http://hl7.org/fhir/us/cqfmeasures/StructureDefinition/cqfm-testCaseDescription","valueMarkdown":"meets IPP and Denominator, inpatient visit starts >1 hour after the end of Observation AND Comfort Measures are performed during Obs. This case fails because CMO is one day before Adm date\n"}],"modifierExtension":[{"url":"http://hl7.org/fhir/us/cqfmeasures/StructureDefinition/cqfm-isTestCase","valueBoolean":true}],"status":"complete","type":"individual","measure":"https://madie.cms.gov/Measure/CMS190VTEProphylaxisICUFHIR","period":{"start":"2026-01-01","end":"2026-12-31"},"group":[{"population":[{"code":{"coding":[{"system":"http://terminology.hl7.org/CodeSystem/measure-population","code":"initial-population","display":"Initial Population"}]},"count":1},{"code":{"coding":[{"system":"http://terminology.hl7.org/CodeSystem/measure-population","code":"denominator","display":"Denominator"}]},"count":1},{"code":{"coding":[{"system":"http://terminology.hl7.org/CodeSystem/measure-population","code":"denominator-exclusion","display":"Denominator Exclusion"}]},"count":0},{"code":{"coding":[{"system":"http://terminology.hl7.org/CodeSystem/measure-population","code":"numerator","display":"Numerator"}]},"count":0},{"code":{"coding":[{"system":"http://terminology.hl7.org/CodeSystem/measure-population","code":"denominator-exception","display":"Denominator Exception"}]},"count":0}]}]},"request":{"method":"PUT","url":"MeasureReport/b443b760-a5e0-4372-aed3-3eae1710786e"}}]}