{"resourceType":"Bundle","id":"tests-9ac19ff5-34ba-47bc-babe-3073ddd972a7-bundle","type":"transaction","entry":[{"fullUrl":"https://madie.cms.gov/Patient/9ac19ff5-34ba-47bc-babe-3073ddd972a7","resource":{"resourceType":"Patient","id":"9ac19ff5-34ba-47bc-babe-3073ddd972a7","meta":{"profile":["http://hl7.org/fhir/us/qicore/StructureDefinition/qicore-patient"]},"text":{"status":"generated","div":"<div xmlns=\"http://www.w3.org/1999/xhtml\"><div class=\"hapiHeaderText\">HipReplNotPrin <b>DENEXFAIL </b></div><table class=\"hapiPropertyTable\"><tbody><tr><td>Identifier</td><td>927546d7b5f5a2cf7c76d1f1c4b3dffe</td></tr><tr><td>Date of birth</td><td><span>03 March 1974</span></td></tr></tbody></table></div>"},"extension":[{"url":"http://hl7.org/fhir/us/core/StructureDefinition/us-core-race","extension":[{"url":"ombCategory","valueCoding":{"system":"urn:oid:2.16.840.1.113883.6.238","code":"1002-5","display":"American Indian or Alaska Native","userSelected":true}},{"url":"text","valueString":"American Indian or Alaska Native"}]},{"url":"http://hl7.org/fhir/us/core/StructureDefinition/us-core-ethnicity","extension":[{"url":"ombCategory","valueCoding":{"system":"urn:oid:2.16.840.1.113883.6.238","code":"2135-2","display":"Hispanic or Latino","userSelected":true}},{"url":"text","valueString":"Hispanic or Latino"}]}],"identifier":[{"type":{"coding":[{"system":"http://terminology.hl7.org/CodeSystem/v2-0203","code":"MR"}]},"system":"https://bonnie-fhir.healthit.gov/","value":"612e6e9702c62a011f2eefa5"}],"active":true,"name":[{"use":"usual","family":"DENEXFail","given":["HipReplNotPrin"]}],"gender":"female","birthDate":"1975-03-03"},"request":{"method":"PUT","url":"Patient/9ac19ff5-34ba-47bc-babe-3073ddd972a7"}},{"fullUrl":"https://madie.cms.gov/Encounter/e6fb7d27-aa5f-4aea-a211-48e1b8f85cf2","resource":{"resourceType":"Encounter","id":"e6fb7d27-aa5f-4aea-a211-48e1b8f85cf2","meta":{"profile":["http://hl7.org/fhir/us/qicore/StructureDefinition/qicore-encounter"]},"status":"finished","class":{"system":"http://terminology.hl7.org/CodeSystem/v3-ActCode","code":"IMP","display":"inpatient encounter"},"type":[{"coding":[{"system":"http://snomed.info/sct","code":"8715000"}]}],"subject":{"reference":"Patient/9ac19ff5-34ba-47bc-babe-3073ddd972a7"},"period":{"start":"2026-12-04T08:00:00+00:00","end":"2026-12-30T08:15:00+00:00"},"length":{"value":26.0,"unit":"days"},"location":[{"location":{"reference":"Location/0d037409-887e-4a2f-8ae9-9b093028585c"},"period":{"start":"2026-12-06T08:00:00.000+00:00","end":"2026-12-08T08:15:00.000+00:00"}}]},"request":{"method":"PUT","url":"Encounter/e6fb7d27-aa5f-4aea-a211-48e1b8f85cf2"}},{"fullUrl":"https://madie.cms.gov/Coverage/c61b0f46-6599-45a1-9aba-e7e66a0a8f5b","resource":{"resourceType":"Coverage","id":"c61b0f46-6599-45a1-9aba-e7e66a0a8f5b","status":"active","beneficiary":{"reference":"Patient/9ac19ff5-34ba-47bc-babe-3073ddd972a7"},"period":{"start":"1975-03-03T08:00:00+00:00"},"payor":[{"reference":"Organization/3e899f33-84eb-4634-a770-a5a0bd7a80e7"}]},"request":{"method":"PUT","url":"Coverage/c61b0f46-6599-45a1-9aba-e7e66a0a8f5b"}},{"fullUrl":"https://madie.cms.gov/Procedure/42e5ed3f-9401-4803-99c2-62af6d5f67b1","resource":{"resourceType":"Procedure","id":"42e5ed3f-9401-4803-99c2-62af6d5f67b1","meta":{"profile":["http://hl7.org/fhir/us/qicore/StructureDefinition/qicore-procedure"]},"extension":[{"url":"http://hl7.org/fhir/us/qicore/StructureDefinition/qicore-recorded","valueDateTime":"2013-12-06T09:35:00-04:00"}],"status":"completed","code":{"coding":[{"system":"http://snomed.info/sct","code":"7989006"}]},"subject":{"reference":"Patient/9ac19ff5-34ba-47bc-babe-3073ddd972a7"},"performedPeriod":{"start":"2026-12-06T08:15:00+00:00","end":"2026-12-06T11:15:00+00:00"}},"request":{"method":"PUT","url":"Procedure/42e5ed3f-9401-4803-99c2-62af6d5f67b1"}},{"fullUrl":"https://madie.cms.gov/Location/0d037409-887e-4a2f-8ae9-9b093028585c","resource":{"resourceType":"Location","id":"0d037409-887e-4a2f-8ae9-9b093028585c","meta":{"profile":["http://hl7.org/fhir/us/qicore/StructureDefinition/qicore-location"]},"identifier":[{"use":"usual","system":"http://exampleoflocation.com","value":"B1-S.F2"}],"name":"Medical Surgical East, first floor","type":[{"coding":[{"system":"https://www.cdc.gov/nhsn/cdaportal/terminology/codesystem/hsloc.html","code":"1025-6","display":"Trauma Critical Care","userSelected":true}]}]},"request":{"method":"PUT","url":"Location/0d037409-887e-4a2f-8ae9-9b093028585c"}},{"fullUrl":"https://madie.cms.gov/Organization/202cb8da-6f14-480d-a9da-d2920eb93b5e","resource":{"resourceType":"Organization","id":"3e899f33-84eb-4634-a770-a5a0bd7a80e7","meta":{"profile":["http://hl7.org/fhir/us/qicore/StructureDefinition/qicore-organization"]},"identifier":[{"use":"temp","system":"urn:oid:2.16.840.1.113883.4.4","value":"21-3259825"}],"active":true,"type":[{"coding":[{"system":"http://terminology.hl7.org/CodeSystem/organization-type","code":"pay","display":"Payer"}]}],"name":"Blue Cross Blue Shield of Texas","telecom":[{"system":"phone","value":"(+1) 972-766-6900"}],"address":[{"use":"billing","type":"postal","line":["P.O. Box 660044"],"city":"Dallas","state":"TX","postalCode":"75266-0044","country":"USA"}]},"request":{"method":"PUT","url":"Organization/3e899f33-84eb-4634-a770-a5a0bd7a80e7"}},{"fullUrl":"https://madie.cms.gov/Practitioner/c61afd06-ed34-4020-a355-e51493596775","resource":{"resourceType":"Practitioner","id":"c61afd06-ed34-4020-a355-e51493596775","identifier":[{"system":"http://hl7.org/fhir/sid/us-npi","value":"123456"}],"name":[{"family":"Evil","prefix":["Dr"]}]},"request":{"method":"PUT","url":"Practitioner/c61afd06-ed34-4020-a355-e51493596775"}},{"fullUrl":"https://madie.cms.gov/MeasureReport/065c0d28-7f21-489c-999b-322bff73221d","resource":{"resourceType":"MeasureReport","id":"065c0d28-7f21-489c-999b-322bff73221d","meta":{"profile":["http://hl7.org/fhir/us/cqfmeasures/StructureDefinition/test-case-cqfm"]},"contained":[{"resourceType":"Parameters","id":"7abac4b6-705c-429b-b60c-7aec992b40de-parameters","parameter":[{"name":"subject","valueString":"9ac19ff5-34ba-47bc-babe-3073ddd972a7"}]}],"extension":[{"url":"http://hl7.org/fhir/us/cqfmeasures/StructureDefinition/cqfm-inputParameters","valueReference":{"reference":"#7abac4b6-705c-429b-b60c-7aec992b40de-parameters"}},{"url":"http://hl7.org/fhir/us/cqfmeasures/StructureDefinition/cqfm-testCaseDescription","valueMarkdown":"Hip replacement not principal\n"}],"modifierExtension":[{"url":"http://hl7.org/fhir/us/cqfmeasures/StructureDefinition/cqfm-isTestCase","valueBoolean":true}],"status":"complete","type":"individual","measure":"https://madie.cms.gov/Measure/CMS190VTEProphylaxisICUFHIR","period":{"start":"2026-01-01","end":"2026-12-31"},"group":[{"population":[{"code":{"coding":[{"system":"http://terminology.hl7.org/CodeSystem/measure-population","code":"initial-population","display":"Initial Population"}]},"count":1},{"code":{"coding":[{"system":"http://terminology.hl7.org/CodeSystem/measure-population","code":"denominator","display":"Denominator"}]},"count":1},{"code":{"coding":[{"system":"http://terminology.hl7.org/CodeSystem/measure-population","code":"denominator-exclusion","display":"Denominator Exclusion"}]},"count":0},{"code":{"coding":[{"system":"http://terminology.hl7.org/CodeSystem/measure-population","code":"numerator","display":"Numerator"}]},"count":0},{"code":{"coding":[{"system":"http://terminology.hl7.org/CodeSystem/measure-population","code":"denominator-exception","display":"Denominator Exception"}]},"count":0}]}]},"request":{"method":"PUT","url":"MeasureReport/065c0d28-7f21-489c-999b-322bff73221d"}}]}