{"resourceType":"Bundle","id":"tests-52586dcc-cfef-46c3-988c-75e6c25dea03-bundle","type":"transaction","entry":[{"fullUrl":"https://madie.cms.gov/Patient/52586dcc-cfef-46c3-988c-75e6c25dea03","resource":{"resourceType":"Patient","id":"52586dcc-cfef-46c3-988c-75e6c25dea03","meta":{"profile":["http://hl7.org/fhir/us/qicore/StructureDefinition/qicore-patient"]},"text":{"status":"generated","div":"<div xmlns=\"http://www.w3.org/1999/xhtml\"><div class=\"hapiHeaderText\">INR4DayOfICU <b>NUMERPASS </b></div><table class=\"hapiPropertyTable\"><tbody><tr><td>Identifier</td><td>fca47da882d926b4d35fe7546e16b627</td></tr><tr><td>Date of birth</td><td><span>03 March 1974</span></td></tr></tbody></table></div>"},"extension":[{"url":"http://hl7.org/fhir/us/core/StructureDefinition/us-core-race","extension":[{"url":"ombCategory","valueCoding":{"system":"urn:oid:2.16.840.1.113883.6.238","code":"1002-5","display":"American Indian or Alaska Native","userSelected":true}},{"url":"text","valueString":"American Indian or Alaska Native"}]},{"url":"http://hl7.org/fhir/us/core/StructureDefinition/us-core-ethnicity","extension":[{"url":"ombCategory","valueCoding":{"system":"urn:oid:2.16.840.1.113883.6.238","code":"2135-2","display":"Hispanic or Latino","userSelected":true}},{"url":"text","valueString":"Hispanic or Latino"}]}],"identifier":[{"type":{"coding":[{"system":"http://terminology.hl7.org/CodeSystem/v2-0203","code":"MR"}]},"system":"https://bonnie-fhir.healthit.gov/","value":"612e6eea02c62a011f2f0095"}],"active":true,"name":[{"use":"usual","family":"NUMERPass","given":["INR4DayOfICU"]}],"gender":"female","birthDate":"1975-03-03"},"request":{"method":"PUT","url":"Patient/52586dcc-cfef-46c3-988c-75e6c25dea03"}},{"fullUrl":"https://madie.cms.gov/Encounter/4b59e6c7-73c6-4acd-804a-159c4531b30c","resource":{"resourceType":"Encounter","id":"4b59e6c7-73c6-4acd-804a-159c4531b30c","meta":{"profile":["http://hl7.org/fhir/us/qicore/StructureDefinition/qicore-encounter"]},"status":"finished","class":{"system":"http://terminology.hl7.org/CodeSystem/v3-ActCode","code":"IMP","display":"inpatient encounter"},"type":[{"coding":[{"system":"http://snomed.info/sct","code":"8715000"}]}],"subject":{"reference":"Patient/52586dcc-cfef-46c3-988c-75e6c25dea03"},"period":{"start":"2026-12-04T08:00:00+00:00","end":"2026-12-30T08:15:00+00:00"},"length":{"value":26.0,"unit":"days"},"location":[{"location":{"reference":"Location/2d261bab-d744-4d40-b32d-1eb8f4e59e46"},"period":{"start":"2026-12-06T09:00:00+00:00","end":"2026-12-12T08:15:00+00:00"}}]},"request":{"method":"PUT","url":"Encounter/4b59e6c7-73c6-4acd-804a-159c4531b30c"}},{"fullUrl":"https://madie.cms.gov/Coverage/3ca9ac88-1b9f-4b7f-9980-3110bea85ad9","resource":{"resourceType":"Coverage","id":"3ca9ac88-1b9f-4b7f-9980-3110bea85ad9","status":"active","beneficiary":{"reference":"Patient/52586dcc-cfef-46c3-988c-75e6c25dea03"},"period":{"start":"1975-03-03T08:00:00+00:00"},"payor":[{"reference":"Organization/e75793c9-fdf6-463a-8c1d-4ee44320dc25"}]},"request":{"method":"PUT","url":"Coverage/3ca9ac88-1b9f-4b7f-9980-3110bea85ad9"}},{"fullUrl":"https://madie.cms.gov/Observation/4eca53db-f32f-4c32-81e9-85f9ae46cf4d","resource":{"resourceType":"Observation","id":"4eca53db-f32f-4c32-81e9-85f9ae46cf4d","meta":{"profile":["http://hl7.org/fhir/us/core/StructureDefinition/us-core-observation-lab"]},"status":"final","category":[{"coding":[{"system":"http://terminology.hl7.org/CodeSystem/observation-category","code":"laboratory","display":"Laboratory"}]}],"code":{"coding":[{"system":"http://loinc.org","code":"34714-6"}]},"subject":{"reference":"Patient/52586dcc-cfef-46c3-988c-75e6c25dea03"},"issued":"2026-12-06T11:30:00+00:00","valueQuantity":{"value":4.0,"unit":"{INR}"}},"request":{"method":"PUT","url":"Observation/4eca53db-f32f-4c32-81e9-85f9ae46cf4d"}},{"fullUrl":"https://madie.cms.gov/Location/2d261bab-d744-4d40-b32d-1eb8f4e59e46","resource":{"resourceType":"Location","id":"2d261bab-d744-4d40-b32d-1eb8f4e59e46","meta":{"profile":["http://hl7.org/fhir/us/qicore/StructureDefinition/qicore-location"]},"identifier":[{"use":"usual","system":"http://exampleoflocation.com","value":"B1-S.F2"}],"name":"Medical Surgical East, first floor","type":[{"coding":[{"system":"https://www.cdc.gov/nhsn/cdaportal/terminology/codesystem/hsloc.html","code":"1025-6","display":"Trauma Critical Care","userSelected":true}]}]},"request":{"method":"PUT","url":"Location/2d261bab-d744-4d40-b32d-1eb8f4e59e46"}},{"fullUrl":"https://madie.cms.gov/Organization/e19a4b36-bcc3-412d-896f-b05808a671a5","resource":{"resourceType":"Organization","id":"e75793c9-fdf6-463a-8c1d-4ee44320dc25","meta":{"profile":["http://hl7.org/fhir/us/qicore/StructureDefinition/qicore-organization"]},"identifier":[{"use":"temp","system":"urn:oid:2.16.840.1.113883.4.4","value":"21-3259825"}],"active":true,"type":[{"coding":[{"system":"http://terminology.hl7.org/CodeSystem/organization-type","code":"pay","display":"Payer"}]}],"name":"Blue Cross Blue Shield of Texas","telecom":[{"system":"phone","value":"(+1) 972-766-6900"}],"address":[{"use":"billing","type":"postal","line":["P.O. Box 660044"],"city":"Dallas","state":"TX","postalCode":"75266-0044","country":"USA"}]},"request":{"method":"PUT","url":"Organization/e75793c9-fdf6-463a-8c1d-4ee44320dc25"}},{"fullUrl":"https://madie.cms.gov/Practitioner/06f6254f-ba4a-46ea-a3fe-7a9abee539d0","resource":{"resourceType":"Practitioner","id":"06f6254f-ba4a-46ea-a3fe-7a9abee539d0","identifier":[{"system":"http://hl7.org/fhir/sid/us-npi","value":"123456"}],"name":[{"family":"Evil","prefix":["Dr"]}]},"request":{"method":"PUT","url":"Practitioner/06f6254f-ba4a-46ea-a3fe-7a9abee539d0"}},{"fullUrl":"https://madie.cms.gov/MeasureReport/7e7db7bd-0e94-415a-b2be-911136055d53","resource":{"resourceType":"MeasureReport","id":"7e7db7bd-0e94-415a-b2be-911136055d53","meta":{"profile":["http://hl7.org/fhir/us/cqfmeasures/StructureDefinition/test-case-cqfm"]},"contained":[{"resourceType":"Parameters","id":"dfefbc9d-4408-45a4-b29f-a6a94f245491-parameters","parameter":[{"name":"subject","valueString":"52586dcc-cfef-46c3-988c-75e6c25dea03"}]}],"extension":[{"url":"http://hl7.org/fhir/us/cqfmeasures/StructureDefinition/cqfm-inputParameters","valueReference":{"reference":"#dfefbc9d-4408-45a4-b29f-a6a94f245491-parameters"}},{"url":"http://hl7.org/fhir/us/cqfmeasures/StructureDefinition/cqfm-testCaseDescription","valueMarkdown":"meets IPP, meets Denominator, INR>3 starts after start ICU\n"}],"modifierExtension":[{"url":"http://hl7.org/fhir/us/cqfmeasures/StructureDefinition/cqfm-isTestCase","valueBoolean":true}],"status":"complete","type":"individual","measure":"https://madie.cms.gov/Measure/CMS190VTEProphylaxisICUFHIR","period":{"start":"2026-01-01","end":"2026-12-31"},"group":[{"population":[{"code":{"coding":[{"system":"http://terminology.hl7.org/CodeSystem/measure-population","code":"initial-population","display":"Initial Population"}]},"count":1},{"code":{"coding":[{"system":"http://terminology.hl7.org/CodeSystem/measure-population","code":"denominator","display":"Denominator"}]},"count":1},{"code":{"coding":[{"system":"http://terminology.hl7.org/CodeSystem/measure-population","code":"denominator-exclusion","display":"Denominator Exclusion"}]},"count":0},{"code":{"coding":[{"system":"http://terminology.hl7.org/CodeSystem/measure-population","code":"numerator","display":"Numerator"}]},"count":1},{"code":{"coding":[{"system":"http://terminology.hl7.org/CodeSystem/measure-population","code":"denominator-exception","display":"Denominator Exception"}]},"count":0}]}]},"request":{"method":"PUT","url":"MeasureReport/7e7db7bd-0e94-415a-b2be-911136055d53"}}]}