{"resourceType":"Bundle","id":"tests-67df96df-45ff-4387-bc4d-04055a95483f-bundle","type":"transaction","entry":[{"fullUrl":"https://madie.cms.gov/Patient/67df96df-45ff-4387-bc4d-04055a95483f","resource":{"resourceType":"Patient","id":"67df96df-45ff-4387-bc4d-04055a95483f","meta":{"profile":["http://hl7.org/fhir/us/qicore/StructureDefinition/qicore-patient"]},"text":{"status":"generated","div":"<div xmlns=\"http://www.w3.org/1999/xhtml\"><div class=\"hapiHeaderText\">TestMultipleOccur1inDen1inNum <b>NUMERPASS </b></div><table class=\"hapiPropertyTable\"><tbody><tr><td>Identifier</td><td>9a2b10a8b5b2082e23f2748100ecbdeaeee7f4e84632ea8fa273e55b42847316</td></tr><tr><td>Date of birth</td><td><span>03 March 1974</span></td></tr></tbody></table></div>"},"extension":[{"url":"http://hl7.org/fhir/us/core/StructureDefinition/us-core-race","extension":[{"url":"ombCategory","valueCoding":{"system":"urn:oid:2.16.840.1.113883.6.238","code":"1002-5","display":"American Indian or Alaska Native","userSelected":true}},{"url":"text","valueString":"American Indian or Alaska Native"}]},{"url":"http://hl7.org/fhir/us/core/StructureDefinition/us-core-ethnicity","extension":[{"url":"ombCategory","valueCoding":{"system":"urn:oid:2.16.840.1.113883.6.238","code":"2135-2","display":"Hispanic or Latino","userSelected":true}},{"url":"text","valueString":"Hispanic or Latino"}]}],"identifier":[{"type":{"coding":[{"system":"http://terminology.hl7.org/CodeSystem/v2-0203","code":"MR"}]},"system":"https://bonnie-fhir.healthit.gov/","value":"612e6f6d02c62a011f2f1cad"}],"active":true,"name":[{"use":"usual","family":"NUMERPass","given":["TestMultipleOccur1inDen1inNum"]}],"gender":"female","birthDate":"1975-03-03"},"request":{"method":"PUT","url":"Patient/67df96df-45ff-4387-bc4d-04055a95483f"}},{"fullUrl":"https://madie.cms.gov/Encounter/c13dcf84-dda5-4274-9877-dfca7d729c10","resource":{"resourceType":"Encounter","id":"c13dcf84-dda5-4274-9877-dfca7d729c10","meta":{"profile":["http://hl7.org/fhir/us/qicore/StructureDefinition/qicore-encounter"]},"status":"finished","class":{"system":"http://terminology.hl7.org/CodeSystem/v3-ActCode","code":"IMP","display":"inpatient encounter"},"type":[{"coding":[{"system":"http://snomed.info/sct","code":"183452005"}]}],"subject":{"reference":"Patient/67df96df-45ff-4387-bc4d-04055a95483f"},"period":{"start":"2026-03-22T08:00:00+00:00","end":"2026-03-22T08:15:00+00:00"},"length":{"value":0.0,"unit":"days"}},"request":{"method":"PUT","url":"Encounter/c13dcf84-dda5-4274-9877-dfca7d729c10"}},{"fullUrl":"https://madie.cms.gov/Encounter/532c73cc-5c2e-402f-a051-d3b2fe10b883","resource":{"resourceType":"Encounter","id":"532c73cc-5c2e-402f-a051-d3b2fe10b883","meta":{"profile":["http://hl7.org/fhir/us/qicore/StructureDefinition/qicore-encounter"]},"status":"finished","class":{"system":"http://terminology.hl7.org/CodeSystem/v3-ActCode","code":"EMER","display":"emergency"},"type":[{"coding":[{"system":"http://snomed.info/sct","code":"4525004"}]}],"subject":{"reference":"Patient/67df96df-45ff-4387-bc4d-04055a95483f"},"period":{"start":"2026-12-06T02:00:00+00:00","end":"2026-12-06T08:15:00+00:00"},"length":{"value":0.0,"unit":"days"}},"request":{"method":"PUT","url":"Encounter/532c73cc-5c2e-402f-a051-d3b2fe10b883"}},{"fullUrl":"https://madie.cms.gov/Encounter/f4a7b172-0ccd-42ae-a006-a43235332a5c","resource":{"resourceType":"Encounter","id":"f4a7b172-0ccd-42ae-a006-a43235332a5c","meta":{"profile":["http://hl7.org/fhir/us/qicore/StructureDefinition/qicore-encounter"]},"status":"finished","class":{"system":"http://terminology.hl7.org/CodeSystem/v3-ActCode","code":"IMP","display":"inpatient encounter"},"type":[{"coding":[{"system":"http://snomed.info/sct","code":"8715000"}]}],"subject":{"reference":"Patient/67df96df-45ff-4387-bc4d-04055a95483f"},"period":{"start":"2026-12-06T08:45:00+00:00","end":"2026-12-30T08:15:00+00:00"},"length":{"value":24.0,"unit":"days"},"location":[{"location":{"reference":"Location/5a948954-2d64-4734-9819-72a289a6de30"},"period":{"start":"2026-12-06T09:00:00.000+00:00","end":"2026-12-12T08:15:00.000+00:00"}}]},"request":{"method":"PUT","url":"Encounter/f4a7b172-0ccd-42ae-a006-a43235332a5c"}},{"fullUrl":"https://madie.cms.gov/Coverage/69175922-8fe8-4aa4-9764-58c4cb117d0d","resource":{"resourceType":"Coverage","id":"69175922-8fe8-4aa4-9764-58c4cb117d0d","status":"active","beneficiary":{"reference":"Patient/67df96df-45ff-4387-bc4d-04055a95483f"},"period":{"start":"1975-03-03T08:00:00+00:00"},"payor":[{"reference":"Organization/e75793c9-fdf6-463a-8c1d-4ee44320dc25"}]},"request":{"method":"PUT","url":"Coverage/69175922-8fe8-4aa4-9764-58c4cb117d0d"}},{"fullUrl":"https://madie.cms.gov/MedicationAdministration/6406c017-b788-4d62-800e-2c7d033a3afb","resource":{"resourceType":"MedicationAdministration","id":"6406c017-b788-4d62-800e-2c7d033a3afb","meta":{"profile":["http://hl7.org/fhir/us/qicore/StructureDefinition/qicore-medicationadministration"]},"status":"completed","medicationCodeableConcept":{"coding":[{"system":"http://www.nlm.nih.gov/research/umls/rxnorm","code":"308351"}]},"subject":{"reference":"Patient/67df96df-45ff-4387-bc4d-04055a95483f"},"effectivePeriod":{"start":"2026-12-06T06:30:00+00:00"}},"request":{"method":"PUT","url":"MedicationAdministration/6406c017-b788-4d62-800e-2c7d033a3afb"}},{"fullUrl":"https://madie.cms.gov/Location/5a948954-2d64-4734-9819-72a289a6de30","resource":{"resourceType":"Location","id":"5a948954-2d64-4734-9819-72a289a6de30","meta":{"profile":["http://hl7.org/fhir/us/qicore/StructureDefinition/qicore-location"]},"identifier":[{"use":"usual","system":"http://exampleoflocation.com","value":"B1-S.F2"}],"name":"Medical Surgical East, first floor","type":[{"coding":[{"system":"https://www.cdc.gov/nhsn/cdaportal/terminology/codesystem/hsloc.html","code":"1025-6","display":"Trauma Critical Care","userSelected":true}]}]},"request":{"method":"PUT","url":"Location/5a948954-2d64-4734-9819-72a289a6de30"}},{"fullUrl":"https://madie.cms.gov/Organization/73df561b-8a11-48ab-b498-69abdefa9af9","resource":{"resourceType":"Organization","id":"e75793c9-fdf6-463a-8c1d-4ee44320dc25","meta":{"profile":["http://hl7.org/fhir/us/qicore/StructureDefinition/qicore-organization"]},"identifier":[{"use":"temp","system":"urn:oid:2.16.840.1.113883.4.4","value":"21-3259825"}],"active":true,"type":[{"coding":[{"system":"http://terminology.hl7.org/CodeSystem/organization-type","code":"pay","display":"Payer"}]}],"name":"Blue Cross Blue Shield of Texas","telecom":[{"system":"phone","value":"(+1) 972-766-6900"}],"address":[{"use":"billing","type":"postal","line":["P.O. Box 660044"],"city":"Dallas","state":"TX","postalCode":"75266-0044","country":"USA"}]},"request":{"method":"PUT","url":"Organization/e75793c9-fdf6-463a-8c1d-4ee44320dc25"}},{"fullUrl":"https://madie.cms.gov/Practitioner/6ec3ac55-e0fb-4813-af11-1950f29a4345","resource":{"resourceType":"Practitioner","id":"6ec3ac55-e0fb-4813-af11-1950f29a4345","identifier":[{"system":"http://hl7.org/fhir/sid/us-npi","value":"123456"}],"name":[{"family":"Evil","prefix":["Dr"]}]},"request":{"method":"PUT","url":"Practitioner/6ec3ac55-e0fb-4813-af11-1950f29a4345"}},{"fullUrl":"https://madie.cms.gov/MeasureReport/a9b095f0-56a7-441b-9c14-465c3187a4ce","resource":{"resourceType":"MeasureReport","id":"a9b095f0-56a7-441b-9c14-465c3187a4ce","meta":{"profile":["http://hl7.org/fhir/us/cqfmeasures/StructureDefinition/test-case-cqfm"]},"contained":[{"resourceType":"Parameters","id":"57503e71-2d01-49cb-9073-2220671e25fc-parameters","parameter":[{"name":"subject","valueString":"67df96df-45ff-4387-bc4d-04055a95483f"}]}],"extension":[{"url":"http://hl7.org/fhir/us/cqfmeasures/StructureDefinition/cqfm-inputParameters","valueReference":{"reference":"#57503e71-2d01-49cb-9073-2220671e25fc-parameters"}},{"url":"http://hl7.org/fhir/us/cqfmeasures/StructureDefinition/cqfm-testCaseDescription","valueMarkdown":" Patient has 2 encounters, first encounter has NO ICU, but second encounter  meets IPP, meets Denominator, medication administered:Thrombin during ED, ED endTime less than 1 hour before Start of ICU\n"}],"modifierExtension":[{"url":"http://hl7.org/fhir/us/cqfmeasures/StructureDefinition/cqfm-isTestCase","valueBoolean":true}],"status":"complete","type":"individual","measure":"https://madie.cms.gov/Measure/CMS190VTEProphylaxisICUFHIR","period":{"start":"2026-01-01","end":"2026-12-31"},"group":[{"population":[{"code":{"coding":[{"system":"http://terminology.hl7.org/CodeSystem/measure-population","code":"initial-population","display":"Initial Population"}]},"count":2},{"code":{"coding":[{"system":"http://terminology.hl7.org/CodeSystem/measure-population","code":"denominator","display":"Denominator"}]},"count":1},{"code":{"coding":[{"system":"http://terminology.hl7.org/CodeSystem/measure-population","code":"denominator-exclusion","display":"Denominator Exclusion"}]},"count":0},{"code":{"coding":[{"system":"http://terminology.hl7.org/CodeSystem/measure-population","code":"numerator","display":"Numerator"}]},"count":1},{"code":{"coding":[{"system":"http://terminology.hl7.org/CodeSystem/measure-population","code":"denominator-exception","display":"Denominator Exception"}]},"count":0}]}]},"request":{"method":"PUT","url":"MeasureReport/a9b095f0-56a7-441b-9c14-465c3187a4ce"}}]}