{"resourceType":"Bundle","id":"tests-17d5aec6-089f-4b23-bfaf-71f7f4c7e4c5-bundle","type":"transaction","entry":[{"fullUrl":"https://madie.cms.gov/Patient/17d5aec6-089f-4b23-bfaf-71f7f4c7e4c5","resource":{"resourceType":"Patient","id":"17d5aec6-089f-4b23-bfaf-71f7f4c7e4c5","meta":{"profile":["http://hl7.org/fhir/us/qicore/StructureDefinition/qicore-patient"]},"text":{"status":"generated","div":"<div xmlns=\"http://www.w3.org/1999/xhtml\"><div class=\"hapiHeaderText\">ThrombinDayOfICU_2ICUs <b>NUMERPASS </b></div><table class=\"hapiPropertyTable\"><tbody><tr><td>Identifier</td><td>43ef95d6b3f73d13035a41554ca78585</td></tr><tr><td>Date of birth</td><td><span>03 March 1974</span></td></tr></tbody></table></div>"},"extension":[{"url":"http://hl7.org/fhir/us/core/StructureDefinition/us-core-race","extension":[{"url":"ombCategory","valueCoding":{"system":"urn:oid:2.16.840.1.113883.6.238","code":"1002-5","display":"American Indian or Alaska Native","userSelected":true}},{"url":"text","valueString":"American Indian or Alaska Native"}]},{"url":"http://hl7.org/fhir/us/core/StructureDefinition/us-core-ethnicity","extension":[{"url":"ombCategory","valueCoding":{"system":"urn:oid:2.16.840.1.113883.6.238","code":"2135-2","display":"Hispanic or Latino","userSelected":true}},{"url":"text","valueString":"Hispanic or Latino"}]}],"identifier":[{"type":{"coding":[{"system":"http://terminology.hl7.org/CodeSystem/v2-0203","code":"MR"}]},"system":"https://bonnie-fhir.healthit.gov/","value":"612e6ee902c62a011f2f0062"}],"active":true,"name":[{"use":"usual","family":"NUMERPass","given":["ThrombinDayOfICU2ICUs"]}],"gender":"female","birthDate":"1975-03-03"},"request":{"method":"PUT","url":"Patient/17d5aec6-089f-4b23-bfaf-71f7f4c7e4c5"}},{"fullUrl":"https://madie.cms.gov/Encounter/755b9196-2f0e-45c6-8dc2-3fd6c9eb3a29","resource":{"resourceType":"Encounter","id":"755b9196-2f0e-45c6-8dc2-3fd6c9eb3a29","meta":{"profile":["http://hl7.org/fhir/us/qicore/StructureDefinition/qicore-encounter"]},"status":"finished","class":{"system":"http://terminology.hl7.org/CodeSystem/v3-ActCode","code":"EMER","display":"emergency"},"type":[{"coding":[{"system":"http://snomed.info/sct","code":"4525004"}]}],"subject":{"reference":"Patient/17d5aec6-089f-4b23-bfaf-71f7f4c7e4c5"},"period":{"start":"2026-12-02T08:00:00+00:00","end":"2026-12-04T07:15:00+00:00"},"length":{"value":2.0,"unit":"days"}},"request":{"method":"PUT","url":"Encounter/755b9196-2f0e-45c6-8dc2-3fd6c9eb3a29"}},{"fullUrl":"https://madie.cms.gov/Encounter/eb8d1c7f-3bbd-4ec8-a40f-fb4ac7c94262","resource":{"resourceType":"Encounter","id":"eb8d1c7f-3bbd-4ec8-a40f-fb4ac7c94262","meta":{"profile":["http://hl7.org/fhir/us/qicore/StructureDefinition/qicore-encounter"]},"status":"finished","class":{"system":"http://terminology.hl7.org/CodeSystem/v3-ActCode","code":"IMP","display":"inpatient encounter"},"type":[{"coding":[{"system":"http://snomed.info/sct","code":"8715000"}]}],"subject":{"reference":"Patient/17d5aec6-089f-4b23-bfaf-71f7f4c7e4c5"},"period":{"start":"2026-12-04T08:00:00+00:00","end":"2026-12-30T08:15:00+00:00"},"length":{"value":26.0,"unit":"days"},"location":[{"location":{"reference":"Location/intensive-care-unit-cc82"},"period":{"start":"2026-12-02T11:00:00.000+00:00","end":"2026-12-03T08:15:00.000+00:00"}},{"location":{"reference":"Location/8496cbcb-95c8-42d2-98d9-8130a8c8530b"},"period":{"start":"2026-12-06T08:00:00.000+00:00","end":"2026-12-12T08:15:00.000+00:00"}}]},"request":{"method":"PUT","url":"Encounter/eb8d1c7f-3bbd-4ec8-a40f-fb4ac7c94262"}},{"fullUrl":"https://madie.cms.gov/Coverage/15bb51da-2933-4a73-92d0-149f028ff312","resource":{"resourceType":"Coverage","id":"15bb51da-2933-4a73-92d0-149f028ff312","status":"active","beneficiary":{"reference":"Patient/17d5aec6-089f-4b23-bfaf-71f7f4c7e4c5"},"period":{"start":"1975-03-03T08:00:00+00:00"},"payor":[{"reference":"Organization/e75793c9-fdf6-463a-8c1d-4ee44320dc25"}]},"request":{"method":"PUT","url":"Coverage/15bb51da-2933-4a73-92d0-149f028ff312"}},{"fullUrl":"https://madie.cms.gov/MedicationAdministration/61b26df7-c77c-4eb8-9b81-d1051f625319","resource":{"resourceType":"MedicationAdministration","id":"61b26df7-c77c-4eb8-9b81-d1051f625319","meta":{"profile":["http://hl7.org/fhir/us/qicore/StructureDefinition/qicore-medicationadministration"]},"status":"completed","medicationCodeableConcept":{"coding":[{"system":"http://www.nlm.nih.gov/research/umls/rxnorm","code":"308351"}]},"subject":{"reference":"Patient/17d5aec6-089f-4b23-bfaf-71f7f4c7e4c5"},"effectivePeriod":{"start":"2026-12-06T11:30:00+00:00","end":"2026-12-06T11:45:00+00:00"}},"request":{"method":"PUT","url":"MedicationAdministration/61b26df7-c77c-4eb8-9b81-d1051f625319"}},{"fullUrl":"https://madie.cms.gov/Procedure/024ac268-50ef-4fb5-bae5-7da337ce6c18","resource":{"resourceType":"Procedure","id":"024ac268-50ef-4fb5-bae5-7da337ce6c18","meta":{"profile":["http://hl7.org/fhir/us/qicore/StructureDefinition/qicore-procedure"]},"extension":[{"url":"http://hl7.org/fhir/us/qicore/StructureDefinition/qicore-recorded","valueDateTime":"2013-12-04T09:35:00-04:00"}],"status":"completed","code":{"coding":[{"system":"http://snomed.info/sct","code":"18946005"}]},"subject":{"reference":"Patient/17d5aec6-089f-4b23-bfaf-71f7f4c7e4c5"},"performedPeriod":{"start":"2026-12-04T11:00:00+00:00","end":"2026-12-06T11:15:00+00:00"}},"request":{"method":"PUT","url":"Procedure/024ac268-50ef-4fb5-bae5-7da337ce6c18"}},{"fullUrl":"https://madie.cms.gov/Location/8496cbcb-95c8-42d2-98d9-8130a8c8530b","resource":{"resourceType":"Location","id":"8496cbcb-95c8-42d2-98d9-8130a8c8530b","meta":{"profile":["http://hl7.org/fhir/us/qicore/StructureDefinition/qicore-location"]},"identifier":[{"use":"usual","system":"http://exampleoflocation.com","value":"B1-S.F2"}],"name":"Medical Surgical East, first floor","type":[{"coding":[{"system":"https://www.cdc.gov/nhsn/cdaportal/terminology/codesystem/hsloc.html","code":"1025-6","display":"Trauma Critical Care","userSelected":true}]}]},"request":{"method":"PUT","url":"Location/8496cbcb-95c8-42d2-98d9-8130a8c8530b"}},{"fullUrl":"https://madie.cms.gov/Organization/11e1346c-79e8-41b3-a952-5a9c86f48f44","resource":{"resourceType":"Organization","id":"e75793c9-fdf6-463a-8c1d-4ee44320dc25","meta":{"profile":["http://hl7.org/fhir/us/qicore/StructureDefinition/qicore-organization"]},"identifier":[{"use":"temp","system":"urn:oid:2.16.840.1.113883.4.4","value":"21-3259825"}],"active":true,"type":[{"coding":[{"system":"http://terminology.hl7.org/CodeSystem/organization-type","code":"pay","display":"Payer"}]}],"name":"Blue Cross Blue Shield of Texas","telecom":[{"system":"phone","value":"(+1) 972-766-6900"}],"address":[{"use":"billing","type":"postal","line":["P.O. Box 660044"],"city":"Dallas","state":"TX","postalCode":"75266-0044","country":"USA"}]},"request":{"method":"PUT","url":"Organization/e75793c9-fdf6-463a-8c1d-4ee44320dc25"}},{"fullUrl":"https://madie.cms.gov/Practitioner/fefa9c13-e421-4920-ad20-eabcfb959882","resource":{"resourceType":"Practitioner","id":"fefa9c13-e421-4920-ad20-eabcfb959882","identifier":[{"system":"http://hl7.org/fhir/sid/us-npi","value":"123456"}],"name":[{"family":"Evil","prefix":["Dr"]}]},"request":{"method":"PUT","url":"Practitioner/fefa9c13-e421-4920-ad20-eabcfb959882"}},{"fullUrl":"https://madie.cms.gov/MeasureReport/de255585-0df3-4a17-afb9-e0a81c8fc889","resource":{"resourceType":"MeasureReport","id":"de255585-0df3-4a17-afb9-e0a81c8fc889","meta":{"profile":["http://hl7.org/fhir/us/cqfmeasures/StructureDefinition/test-case-cqfm"]},"contained":[{"resourceType":"Parameters","id":"15089a6e-1ad9-4eb7-a8f8-8b25616b7657-parameters","parameter":[{"name":"subject","valueString":"17d5aec6-089f-4b23-bfaf-71f7f4c7e4c5"}]}],"extension":[{"url":"http://hl7.org/fhir/us/cqfmeasures/StructureDefinition/cqfm-inputParameters","valueReference":{"reference":"#15089a6e-1ad9-4eb7-a8f8-8b25616b7657-parameters"}},{"url":"http://hl7.org/fhir/us/cqfmeasures/StructureDefinition/cqfm-testCaseDescription","valueMarkdown":"2 ICU, one is in ED. meets IPP, meets Denominator, medication administered:Thrombin, Thrombin end<=1day after start of First ICU Admission during Inpatient.\n"}],"modifierExtension":[{"url":"http://hl7.org/fhir/us/cqfmeasures/StructureDefinition/cqfm-isTestCase","valueBoolean":true}],"status":"complete","type":"individual","measure":"https://madie.cms.gov/Measure/CMS190VTEProphylaxisICUFHIR","period":{"start":"2026-01-01","end":"2026-12-31"},"group":[{"population":[{"code":{"coding":[{"system":"http://terminology.hl7.org/CodeSystem/measure-population","code":"initial-population","display":"Initial Population"}]},"count":1},{"code":{"coding":[{"system":"http://terminology.hl7.org/CodeSystem/measure-population","code":"denominator","display":"Denominator"}]},"count":1},{"code":{"coding":[{"system":"http://terminology.hl7.org/CodeSystem/measure-population","code":"denominator-exclusion","display":"Denominator Exclusion"}]},"count":0},{"code":{"coding":[{"system":"http://terminology.hl7.org/CodeSystem/measure-population","code":"numerator","display":"Numerator"}]},"count":1},{"code":{"coding":[{"system":"http://terminology.hl7.org/CodeSystem/measure-population","code":"denominator-exception","display":"Denominator Exception"}]},"count":0}]}]},"request":{"method":"PUT","url":"MeasureReport/de255585-0df3-4a17-afb9-e0a81c8fc889"}}]}