{"resourceType":"Bundle","id":"tests-fc59a209-22d4-4881-aa12-9a19fd91c083-bundle","type":"transaction","entry":[{"fullUrl":"https://madie.cms.gov/Patient/fc59a209-22d4-4881-aa12-9a19fd91c083","resource":{"resourceType":"Patient","id":"fc59a209-22d4-4881-aa12-9a19fd91c083","meta":{"profile":["http://hl7.org/fhir/us/qicore/StructureDefinition/qicore-patient"]},"text":{"status":"generated","div":"<div xmlns=\"http://www.w3.org/1999/xhtml\"><div class=\"hapiHeaderText\">CMOPerfOnAnesEndRvlntDT <b>DENEXPASS </b></div><table class=\"hapiPropertyTable\"><tbody><tr><td>Identifier</td><td>9d8ab3fcb5edc14843f80cd97de46a5e</td></tr><tr><td>Date of birth</td><td><span>16 July 1974</span></td></tr></tbody></table></div>"},"extension":[{"url":"http://hl7.org/fhir/us/core/StructureDefinition/us-core-race","extension":[{"url":"ombCategory","valueCoding":{"system":"urn:oid:2.16.840.1.113883.6.238","code":"1002-5","display":"American Indian or Alaska Native","userSelected":true}},{"url":"text","valueString":"American Indian or Alaska Native"}]},{"url":"http://hl7.org/fhir/us/core/StructureDefinition/us-core-ethnicity","extension":[{"url":"ombCategory","valueCoding":{"system":"urn:oid:2.16.840.1.113883.6.238","code":"2135-2","display":"Hispanic or Latino","userSelected":true}},{"url":"text","valueString":"Hispanic or Latino"}]}],"identifier":[{"type":{"coding":[{"system":"http://terminology.hl7.org/CodeSystem/v2-0203","code":"MR"}]},"system":"https://bonnie-fhir.healthit.gov/","value":"612e6e8002c62a011f2ee9d4"}],"active":true,"name":[{"use":"usual","family":"DENEXPass","given":["CMOPerfOnAnesEndRvlntDT"]}],"gender":"female","birthDate":"1975-07-16"},"request":{"method":"PUT","url":"Patient/fc59a209-22d4-4881-aa12-9a19fd91c083"}},{"fullUrl":"https://madie.cms.gov/Encounter/57e73d8e-aae7-4bef-8b19-18a8ef2ae19e","resource":{"resourceType":"Encounter","id":"57e73d8e-aae7-4bef-8b19-18a8ef2ae19e","meta":{"profile":["http://hl7.org/fhir/us/qicore/StructureDefinition/qicore-encounter"]},"status":"finished","class":{"system":"http://terminology.hl7.org/CodeSystem/v3-ActCode","code":"IMP","display":"inpatient encounter"},"type":[{"coding":[{"system":"http://snomed.info/sct","code":"8715000"}]}],"subject":{"reference":"Patient/fc59a209-22d4-4881-aa12-9a19fd91c083"},"period":{"start":"2026-12-04T08:00:00+00:00","end":"2026-12-30T08:15:00+00:00"},"length":{"value":26.0,"unit":"days"},"location":[{"location":{"reference":"Location/e8a96265-a9fa-42a7-be6d-60d5becf3ed6"},"period":{"start":"2026-12-06T08:00:00.000+00:00","end":"2026-12-08T08:15:00.000+00:00"}}]},"request":{"method":"PUT","url":"Encounter/57e73d8e-aae7-4bef-8b19-18a8ef2ae19e"}},{"fullUrl":"https://madie.cms.gov/Procedure/67bb75e4-b749-490f-8f83-933719d0bbe8","resource":{"resourceType":"Procedure","id":"67bb75e4-b749-490f-8f83-933719d0bbe8","meta":{"profile":["http://hl7.org/fhir/us/qicore/StructureDefinition/qicore-procedure"]},"extension":[{"url":"http://hl7.org/fhir/us/qicore/StructureDefinition/qicore-recorded","valueDateTime":"2013-11-02T09:35:00-04:00"}],"status":"completed","code":{"coding":[{"system":"http://snomed.info/sct","code":"133918004"}]},"subject":{"reference":"Patient/fc59a209-22d4-4881-aa12-9a19fd91c083"},"performedDateTime":"2026-12-07T11:15:00+00:00"},"request":{"method":"PUT","url":"Procedure/67bb75e4-b749-490f-8f83-933719d0bbe8"}},{"fullUrl":"https://madie.cms.gov/Coverage/8e85d25b-0ba3-48b9-9bd8-cdf90c909ccf","resource":{"resourceType":"Coverage","id":"8e85d25b-0ba3-48b9-9bd8-cdf90c909ccf","status":"active","beneficiary":{"reference":"Patient/fc59a209-22d4-4881-aa12-9a19fd91c083"},"period":{"start":"1975-03-03T08:00:00+00:00"},"payor":[{"reference":"Organization/18ca435c-cae6-4c34-8033-af717477f9fc"}]},"request":{"method":"PUT","url":"Coverage/8e85d25b-0ba3-48b9-9bd8-cdf90c909ccf"}},{"fullUrl":"https://madie.cms.gov/Procedure/6987e73d-1982-4a61-ad87-fc85222dc145","resource":{"resourceType":"Procedure","id":"6987e73d-1982-4a61-ad87-fc85222dc145","status":"completed","code":{"coding":[{"system":"http://snomed.info/sct","code":"18946005"}]},"subject":{"reference":"Patient/fc59a209-22d4-4881-aa12-9a19fd91c083"},"performedPeriod":{"start":"2026-12-06T11:00:00+00:00","end":"2026-12-07T11:15:00+00:00"}},"request":{"method":"PUT","url":"Procedure/6987e73d-1982-4a61-ad87-fc85222dc145"}},{"fullUrl":"https://madie.cms.gov/Location/e8a96265-a9fa-42a7-be6d-60d5becf3ed6","resource":{"resourceType":"Location","id":"e8a96265-a9fa-42a7-be6d-60d5becf3ed6","meta":{"profile":["http://hl7.org/fhir/us/qicore/StructureDefinition/qicore-location"]},"identifier":[{"use":"usual","system":"http://exampleoflocation.com","value":"B1-S.F2"}],"name":"Medical Surgical East, first floor","type":[{"coding":[{"system":"https://www.cdc.gov/nhsn/cdaportal/terminology/codesystem/hsloc.html","code":"1025-6","display":"Trauma Critical Care","userSelected":true}]}]},"request":{"method":"PUT","url":"Location/e8a96265-a9fa-42a7-be6d-60d5becf3ed6"}},{"fullUrl":"https://madie.cms.gov/Organization/4d4ee6a1-1bed-408a-a246-0712d84d667c","resource":{"resourceType":"Organization","id":"18ca435c-cae6-4c34-8033-af717477f9fc","meta":{"profile":["http://hl7.org/fhir/us/qicore/StructureDefinition/qicore-organization"]},"identifier":[{"use":"temp","system":"urn:oid:2.16.840.1.113883.4.4","value":"21-3259825"}],"active":true,"type":[{"coding":[{"system":"http://terminology.hl7.org/CodeSystem/organization-type","code":"pay","display":"Payer"}]}],"name":"Blue Cross Blue Shield of Texas","telecom":[{"system":"phone","value":"(+1) 972-766-6900"}],"address":[{"use":"billing","type":"postal","line":["P.O. Box 660044"],"city":"Dallas","state":"TX","postalCode":"75266-0044","country":"USA"}]},"request":{"method":"PUT","url":"Organization/18ca435c-cae6-4c34-8033-af717477f9fc"}},{"fullUrl":"https://madie.cms.gov/Practitioner/e15e78bd-d2df-41d8-9318-c720d8e19673","resource":{"resourceType":"Practitioner","id":"e15e78bd-d2df-41d8-9318-c720d8e19673","identifier":[{"system":"http://hl7.org/fhir/sid/us-npi","value":"123456"}],"name":[{"family":"Evil","prefix":["Dr"]}]},"request":{"method":"PUT","url":"Practitioner/e15e78bd-d2df-41d8-9318-c720d8e19673"}},{"fullUrl":"https://madie.cms.gov/MeasureReport/43e78842-3450-4f77-bc2b-4eea587657c8","resource":{"resourceType":"MeasureReport","id":"43e78842-3450-4f77-bc2b-4eea587657c8","meta":{"profile":["http://hl7.org/fhir/us/cqfmeasures/StructureDefinition/test-case-cqfm"]},"contained":[{"resourceType":"Parameters","id":"f9280c87-96cc-455d-849e-1e1695aceba0-parameters","parameter":[{"name":"subject","valueString":"fc59a209-22d4-4881-aa12-9a19fd91c083"}]}],"extension":[{"url":"http://hl7.org/fhir/us/cqfmeasures/StructureDefinition/cqfm-inputParameters","valueReference":{"reference":"#f9280c87-96cc-455d-849e-1e1695aceba0-parameters"}},{"url":"http://hl7.org/fhir/us/cqfmeasures/StructureDefinition/cqfm-testCaseDescription","valueMarkdown":"comfort measures starts concurrent with end of neuraxial anesthesia\n"}],"modifierExtension":[{"url":"http://hl7.org/fhir/us/cqfmeasures/StructureDefinition/cqfm-isTestCase","valueBoolean":true}],"status":"complete","type":"individual","measure":"https://madie.cms.gov/Measure/CMS190VTEProphylaxisICUFHIR","period":{"start":"2026-01-01","end":"2026-12-31"},"group":[{"population":[{"code":{"coding":[{"system":"http://terminology.hl7.org/CodeSystem/measure-population","code":"initial-population","display":"Initial Population"}]},"count":1},{"code":{"coding":[{"system":"http://terminology.hl7.org/CodeSystem/measure-population","code":"denominator","display":"Denominator"}]},"count":1},{"code":{"coding":[{"system":"http://terminology.hl7.org/CodeSystem/measure-population","code":"denominator-exclusion","display":"Denominator Exclusion"}]},"count":1},{"code":{"coding":[{"system":"http://terminology.hl7.org/CodeSystem/measure-population","code":"numerator","display":"Numerator"}]},"count":0},{"code":{"coding":[{"system":"http://terminology.hl7.org/CodeSystem/measure-population","code":"denominator-exception","display":"Denominator Exception"}]},"count":0}]}]},"request":{"method":"PUT","url":"MeasureReport/43e78842-3450-4f77-bc2b-4eea587657c8"}}]}