{"resourceType":"Bundle","id":"tests-632831b0-1ebf-47b5-b439-3a124cd77c37-bundle","type":"transaction","entry":[{"fullUrl":"https://madie.cms.gov/Patient/632831b0-1ebf-47b5-b439-3a124cd77c37","resource":{"resourceType":"Patient","id":"632831b0-1ebf-47b5-b439-3a124cd77c37","meta":{"profile":["http://hl7.org/fhir/us/qicore/StructureDefinition/qicore-patient"]},"text":{"status":"generated","div":"<div xmlns=\"http://www.w3.org/1999/xhtml\"><div class=\"hapiHeaderText\">PtRefDAVFPDayOfICU <b>NUMERPASS </b></div><table class=\"hapiPropertyTable\"><tbody><tr><td>Identifier</td><td>5f7ad5e9fc357bf072546722e2c19e60</td></tr><tr><td>Date of birth</td><td><span>02 January 1974</span></td></tr></tbody></table></div>"},"extension":[{"url":"http://hl7.org/fhir/us/core/StructureDefinition/us-core-race","extension":[{"url":"ombCategory","valueCoding":{"system":"urn:oid:2.16.840.1.113883.6.238","code":"1002-5","display":"American Indian or Alaska Native","userSelected":true}},{"url":"text","valueString":"American Indian or Alaska Native"}]},{"url":"http://hl7.org/fhir/us/core/StructureDefinition/us-core-ethnicity","extension":[{"url":"ombCategory","valueCoding":{"system":"urn:oid:2.16.840.1.113883.6.238","code":"2135-2","display":"Hispanic or Latino","userSelected":true}},{"url":"text","valueString":"Hispanic or Latino"}]}],"identifier":[{"type":{"coding":[{"system":"http://terminology.hl7.org/CodeSystem/v2-0203","code":"MR"}]},"system":"https://bonnie-fhir.healthit.gov/","value":"612e6ab302c62a011f2eafaf"}],"active":true,"name":[{"use":"usual","family":"NUMERPass","given":["PtRefDAVFPDayOfICU"]}],"gender":"male","birthDate":"1975-01-02"},"request":{"method":"PUT","url":"Patient/632831b0-1ebf-47b5-b439-3a124cd77c37"}},{"fullUrl":"https://madie.cms.gov/Encounter/e3d28ac1-d147-4b36-9db0-98cc4fc869ab","resource":{"resourceType":"Encounter","id":"e3d28ac1-d147-4b36-9db0-98cc4fc869ab","meta":{"profile":["http://hl7.org/fhir/us/qicore/StructureDefinition/qicore-encounter"]},"status":"finished","class":{"system":"http://terminology.hl7.org/CodeSystem/v3-ActCode","code":"EMER","display":"emergency"},"type":[{"coding":[{"system":"http://snomed.info/sct","code":"4525004"}]}],"subject":{"reference":"Patient/632831b0-1ebf-47b5-b439-3a124cd77c37"},"period":{"start":"2026-10-31T05:00:00+00:00","end":"2026-11-01T07:15:00+00:00"},"length":{"value":1,"unit":"days"}},"request":{"method":"PUT","url":"Encounter/e3d28ac1-d147-4b36-9db0-98cc4fc869ab"}},{"fullUrl":"https://madie.cms.gov/Encounter/f78ece72-cd79-44ce-be2f-128fec8ebfdc","resource":{"resourceType":"Encounter","id":"f78ece72-cd79-44ce-be2f-128fec8ebfdc","meta":{"profile":["http://hl7.org/fhir/us/qicore/StructureDefinition/qicore-encounter"]},"status":"finished","class":{"system":"http://terminology.hl7.org/CodeSystem/v3-ActCode","code":"IMP","display":"inpatient encounter"},"type":[{"coding":[{"system":"http://snomed.info/sct","code":"8715000"}]}],"subject":{"reference":"Patient/632831b0-1ebf-47b5-b439-3a124cd77c37"},"period":{"start":"2026-11-01T08:00:00+00:00","end":"2026-11-26T08:15:00+00:00"},"length":{"value":25,"unit":"days"},"location":[{"location":{"reference":"Location/124b60f7-1ba7-4027-af4d-4a6c6df66d56"},"period":{"start":"2026-11-01T09:00:00.000+00:00","end":"2026-11-02T08:15:00.000+00:00"}}]},"request":{"method":"PUT","url":"Encounter/f78ece72-cd79-44ce-be2f-128fec8ebfdc"}},{"fullUrl":"https://madie.cms.gov/Coverage/b542aab9-5b19-4035-a93a-b1f9bba0b537","resource":{"resourceType":"Coverage","id":"b542aab9-5b19-4035-a93a-b1f9bba0b537","status":"active","beneficiary":{"reference":"Patient/632831b0-1ebf-47b5-b439-3a124cd77c37"},"period":{"start":"1975-01-02T08:00:00+00:00"},"payor":[{"reference":"Organization/f7da4368-fb6d-4d73-a75b-f78024cbb18d"}]},"request":{"method":"PUT","url":"Coverage/b542aab9-5b19-4035-a93a-b1f9bba0b537"}},{"fullUrl":"https://madie.cms.gov/Procedure/2dc1e5c7-7998-4b12-b9a9-26fe5a5c4e3b","resource":{"resourceType":"Procedure","id":"2dc1e5c7-7998-4b12-b9a9-26fe5a5c4e3b","meta":{"profile":["http://hl7.org/fhir/us/qicore/StructureDefinition/qicore-procedurenotdone"]},"extension":[{"url":"http://hl7.org/fhir/us/qicore/StructureDefinition/qicore-recorded","valueDateTime":"2026-11-01T09:35:00-04:00"}],"status":"not-done","statusReason":{"coding":[{"system":"http://snomed.info/sct","code":"443390004","display":"Refusal of treatment by patient (situation)","userSelected":true}]},"code":{"coding":[{"system":"http://snomed.info/sct","version":"2025-03","code":"442410008","display":"Application of venous foot pump (procedure)","userSelected":true}]},"subject":{"reference":"Patient/632831b0-1ebf-47b5-b439-3a124cd77c37"},"_performedDateTime":{"extension":[{"url":"http://hl7.org/fhir/StructureDefinition/data-absent-reason","valueCode":"not-performed"}]}},"request":{"method":"PUT","url":"Procedure/2dc1e5c7-7998-4b12-b9a9-26fe5a5c4e3b"}},{"fullUrl":"https://madie.cms.gov/Location/124b60f7-1ba7-4027-af4d-4a6c6df66d56","resource":{"resourceType":"Location","id":"124b60f7-1ba7-4027-af4d-4a6c6df66d56","meta":{"profile":["http://hl7.org/fhir/us/qicore/StructureDefinition/qicore-location"]},"identifier":[{"use":"usual","system":"http://exampleoflocation.com","value":"B1-S.F2"}],"name":"Medical Surgical East, first floor","type":[{"coding":[{"system":"https://www.cdc.gov/nhsn/cdaportal/terminology/codesystem/hsloc.html","code":"1025-6","display":"Trauma Critical Care","userSelected":true}]}]},"request":{"method":"PUT","url":"Location/124b60f7-1ba7-4027-af4d-4a6c6df66d56"}},{"fullUrl":"https://madie.cms.gov/Organization/70b8e9ca-ff0b-4e8e-be8f-b69811dd50e0","resource":{"resourceType":"Organization","id":"f7da4368-fb6d-4d73-a75b-f78024cbb18d","meta":{"profile":["http://hl7.org/fhir/us/qicore/StructureDefinition/qicore-organization"]},"identifier":[{"use":"temp","system":"urn:oid:2.16.840.1.113883.4.4","value":"21-3259825"}],"active":true,"type":[{"coding":[{"system":"http://terminology.hl7.org/CodeSystem/organization-type","code":"pay","display":"Payer"}]}],"name":"Blue Cross Blue Shield of Texas","telecom":[{"system":"phone","value":"(+1) 972-766-6900"}],"address":[{"use":"billing","type":"postal","line":["P.O. Box 660044"],"city":"Dallas","state":"TX","postalCode":"75266-0044","country":"USA"}]},"request":{"method":"PUT","url":"Organization/f7da4368-fb6d-4d73-a75b-f78024cbb18d"}},{"fullUrl":"https://madie.cms.gov/Practitioner/ad219493-6294-4c33-b1b5-60799fdecb93","resource":{"resourceType":"Practitioner","id":"ad219493-6294-4c33-b1b5-60799fdecb93","identifier":[{"system":"http://hl7.org/fhir/sid/us-npi","value":"123456"}],"name":[{"family":"Evil","prefix":["Dr"]}]},"request":{"method":"PUT","url":"Practitioner/ad219493-6294-4c33-b1b5-60799fdecb93"}},{"fullUrl":"https://madie.cms.gov/MeasureReport/1ad44263-79c6-4eae-8364-37ecc36d1957","resource":{"resourceType":"MeasureReport","id":"1ad44263-79c6-4eae-8364-37ecc36d1957","meta":{"profile":["http://hl7.org/fhir/us/cqfmeasures/StructureDefinition/test-case-cqfm"]},"contained":[{"resourceType":"Parameters","id":"27b18a2c-ef4d-43e0-98b1-2d48046d434a-parameters","parameter":[{"name":"subject","valueString":"632831b0-1ebf-47b5-b439-3a124cd77c37"}]}],"extension":[{"url":"http://hl7.org/fhir/us/cqfmeasures/StructureDefinition/cqfm-inputParameters","valueReference":{"reference":"#27b18a2c-ef4d-43e0-98b1-2d48046d434a-parameters"}},{"url":"http://hl7.org/fhir/us/cqfmeasures/StructureDefinition/cqfm-testCaseDescription","valueMarkdown":"vfp adm not done due to patient refusal on the day of ICU\n"}],"modifierExtension":[{"url":"http://hl7.org/fhir/us/cqfmeasures/StructureDefinition/cqfm-isTestCase","valueBoolean":true}],"status":"complete","type":"individual","measure":"https://madie.cms.gov/Measure/CMS190VTEProphylaxisICUFHIR","period":{"start":"2026-01-01","end":"2026-12-31"},"group":[{"population":[{"code":{"coding":[{"system":"http://terminology.hl7.org/CodeSystem/measure-population","code":"initial-population","display":"Initial Population"}]},"count":1},{"code":{"coding":[{"system":"http://terminology.hl7.org/CodeSystem/measure-population","code":"denominator","display":"Denominator"}]},"count":1},{"code":{"coding":[{"system":"http://terminology.hl7.org/CodeSystem/measure-population","code":"denominator-exclusion","display":"Denominator Exclusion"}]},"count":0},{"code":{"coding":[{"system":"http://terminology.hl7.org/CodeSystem/measure-population","code":"numerator","display":"Numerator"}]},"count":1},{"code":{"coding":[{"system":"http://terminology.hl7.org/CodeSystem/measure-population","code":"denominator-exception","display":"Denominator Exception"}]},"count":0}]}]},"request":{"method":"PUT","url":"MeasureReport/1ad44263-79c6-4eae-8364-37ecc36d1957"}}]}