{"resourceType":"Bundle","id":"tests-88c18b5b-b5af-45a1-91c4-8b585bf6e86a-bundle","type":"transaction","entry":[{"fullUrl":"https://madie.cms.gov/Patient/88c18b5b-b5af-45a1-91c4-8b585bf6e86a","resource":{"resourceType":"Patient","id":"88c18b5b-b5af-45a1-91c4-8b585bf6e86a","meta":{"profile":["http://hl7.org/fhir/us/qicore/StructureDefinition/qicore-patient"]},"text":{"status":"generated","div":"<div xmlns=\"http://www.w3.org/1999/xhtml\"><div class=\"hapiHeaderText\">INREQ3DayAfterAnes <b>NUMERFAIL </b></div><table class=\"hapiPropertyTable\"><tbody><tr><td>Identifier</td><td>945bb3b161067acb3bc9e908f6fb2325</td></tr><tr><td>Date of birth</td><td><span>03 March 1974</span></td></tr></tbody></table></div>"},"extension":[{"url":"http://hl7.org/fhir/us/core/StructureDefinition/us-core-race","extension":[{"url":"ombCategory","valueCoding":{"system":"urn:oid:2.16.840.1.113883.6.238","code":"1002-5","display":"American Indian or Alaska Native","userSelected":true}},{"url":"text","valueString":"American Indian or Alaska Native"}]},{"url":"http://hl7.org/fhir/us/core/StructureDefinition/us-core-ethnicity","extension":[{"url":"ombCategory","valueCoding":{"system":"urn:oid:2.16.840.1.113883.6.238","code":"2135-2","display":"Hispanic or Latino","userSelected":true}},{"url":"text","valueString":"Hispanic or Latino"}]}],"identifier":[{"type":{"coding":[{"system":"http://terminology.hl7.org/CodeSystem/v2-0203","code":"MR"}]},"system":"https://bonnie-fhir.healthit.gov/","value":"612e6eed02c62a011f2f0109"}],"active":true,"name":[{"use":"usual","family":"NUMERFail","given":["INREQ3DayAfterAnes"]}],"gender":"female","birthDate":"1975-03-03"},"request":{"method":"PUT","url":"Patient/88c18b5b-b5af-45a1-91c4-8b585bf6e86a"}},{"fullUrl":"https://madie.cms.gov/Encounter/f4fb5bb5-08bb-4b8c-8a68-af90683fb97b","resource":{"resourceType":"Encounter","id":"f4fb5bb5-08bb-4b8c-8a68-af90683fb97b","meta":{"profile":["http://hl7.org/fhir/us/qicore/StructureDefinition/qicore-encounter"]},"status":"finished","class":{"system":"http://terminology.hl7.org/CodeSystem/v3-ActCode","code":"IMP","display":"inpatient encounter"},"type":[{"coding":[{"system":"http://snomed.info/sct","code":"8715000"}]}],"subject":{"reference":"Patient/88c18b5b-b5af-45a1-91c4-8b585bf6e86a"},"period":{"start":"2026-12-04T08:00:00+00:00","end":"2026-12-30T08:15:00+00:00"},"length":{"value":26.0,"unit":"days"},"location":[{"location":{"reference":"Location/1a1bc70c-699f-4572-8349-b1c2bfec9638"},"period":{"start":"2026-12-06T09:00:00.000+00:00","end":"2026-12-12T08:15:00.000+00:00"}}]},"request":{"method":"PUT","url":"Encounter/f4fb5bb5-08bb-4b8c-8a68-af90683fb97b"}},{"fullUrl":"https://madie.cms.gov/Coverage/b8364bfe-2b05-478c-bcf0-033fa5fded44","resource":{"resourceType":"Coverage","id":"b8364bfe-2b05-478c-bcf0-033fa5fded44","status":"active","beneficiary":{"reference":"Patient/88c18b5b-b5af-45a1-91c4-8b585bf6e86a"},"period":{"start":"1975-03-03T08:00:00+00:00"},"payor":[{"reference":"Organization/18ca435c-cae6-4c34-8033-af717477f9fc"}]},"request":{"method":"PUT","url":"Coverage/b8364bfe-2b05-478c-bcf0-033fa5fded44"}},{"fullUrl":"https://madie.cms.gov/Observation/337d2251-7825-4451-8e28-26be3631fae2","resource":{"resourceType":"Observation","id":"337d2251-7825-4451-8e28-26be3631fae2","meta":{"profile":["http://hl7.org/fhir/us/qicore/StructureDefinition/qicore-observation"]},"status":"corrected","category":[{"coding":[{"system":"http://terminology.hl7.org/CodeSystem/observation-category","code":"laboratory","display":"Laboratory"}]}],"code":{"coding":[{"system":"http://loinc.org","code":"34714-6"}]},"subject":{"reference":"Patient/88c18b5b-b5af-45a1-91c4-8b585bf6e86a"},"effectivePeriod":{"start":"2026-12-08T11:30:00+00:00"},"valueInteger":3},"request":{"method":"PUT","url":"Observation/337d2251-7825-4451-8e28-26be3631fae2"}},{"fullUrl":"https://madie.cms.gov/Procedure/058b8df0-1d07-4550-a355-5564e935df36","resource":{"resourceType":"Procedure","id":"058b8df0-1d07-4550-a355-5564e935df36","meta":{"profile":["http://hl7.org/fhir/us/qicore/StructureDefinition/qicore-procedure"]},"extension":[{"url":"http://hl7.org/fhir/us/qicore/StructureDefinition/qicore-recorded","valueDateTime":"2013-12-08T09:35:00-04:00"}],"status":"completed","code":{"coding":[{"system":"http://snomed.info/sct","code":"18946005"}]},"subject":{"reference":"Patient/88c18b5b-b5af-45a1-91c4-8b585bf6e86a"},"performedPeriod":{"start":"2026-12-07T10:00:00+00:00","end":"2026-12-07T10:30:00+00:00"}},"request":{"method":"PUT","url":"Procedure/058b8df0-1d07-4550-a355-5564e935df36"}},{"fullUrl":"https://madie.cms.gov/Location/1a1bc70c-699f-4572-8349-b1c2bfec9638","resource":{"resourceType":"Location","id":"1a1bc70c-699f-4572-8349-b1c2bfec9638","meta":{"profile":["http://hl7.org/fhir/us/qicore/StructureDefinition/qicore-location"]},"identifier":[{"use":"usual","system":"http://exampleoflocation.com","value":"B1-S.F2"}],"name":"Medical Surgical East, first floor","type":[{"coding":[{"system":"https://www.cdc.gov/nhsn/cdaportal/terminology/codesystem/hsloc.html","code":"1025-6","display":"Trauma Critical Care","userSelected":true}]}]},"request":{"method":"PUT","url":"Location/1a1bc70c-699f-4572-8349-b1c2bfec9638"}},{"fullUrl":"https://madie.cms.gov/Organization/6f2583bd-131a-4032-8c61-46f8082d17a0","resource":{"resourceType":"Organization","id":"18ca435c-cae6-4c34-8033-af717477f9fc","meta":{"profile":["http://hl7.org/fhir/us/qicore/StructureDefinition/qicore-organization"]},"identifier":[{"use":"temp","system":"urn:oid:2.16.840.1.113883.4.4","value":"21-3259825"}],"active":true,"type":[{"coding":[{"system":"http://terminology.hl7.org/CodeSystem/organization-type","code":"pay","display":"Payer"}]}],"name":"Blue Cross Blue Shield of Texas","telecom":[{"system":"phone","value":"(+1) 972-766-6900"}],"address":[{"use":"billing","type":"postal","line":["P.O. Box 660044"],"city":"Dallas","state":"TX","postalCode":"75266-0044","country":"USA"}]},"request":{"method":"PUT","url":"Organization/18ca435c-cae6-4c34-8033-af717477f9fc"}},{"fullUrl":"https://madie.cms.gov/Practitioner/cc1ca5c3-59ca-4b47-9dab-a3d071a1baaf","resource":{"resourceType":"Practitioner","id":"cc1ca5c3-59ca-4b47-9dab-a3d071a1baaf","identifier":[{"system":"http://hl7.org/fhir/sid/us-npi","value":"123456"}],"name":[{"family":"Evil","prefix":["Dr"]}]},"request":{"method":"PUT","url":"Practitioner/cc1ca5c3-59ca-4b47-9dab-a3d071a1baaf"}},{"fullUrl":"https://madie.cms.gov/MeasureReport/403cd8ff-71a7-4b0f-9d1a-e0b424f449b0","resource":{"resourceType":"MeasureReport","id":"403cd8ff-71a7-4b0f-9d1a-e0b424f449b0","meta":{"profile":["http://hl7.org/fhir/us/cqfmeasures/StructureDefinition/test-case-cqfm"]},"contained":[{"resourceType":"Parameters","id":"e5e614c9-af0e-4533-a2f7-3ebbbb77a2b2-parameters","parameter":[{"name":"subject","valueString":"88c18b5b-b5af-45a1-91c4-8b585bf6e86a"}]}],"extension":[{"url":"http://hl7.org/fhir/us/cqfmeasures/StructureDefinition/cqfm-inputParameters","valueReference":{"reference":"#e5e614c9-af0e-4533-a2f7-3ebbbb77a2b2-parameters"}},{"url":"http://hl7.org/fhir/us/cqfmeasures/StructureDefinition/cqfm-testCaseDescription","valueMarkdown":"FAIL - meets IPP, meets Denominator, INR=3 starts day after Anesthesia ends, Anes ends after start of ICU\n"}],"modifierExtension":[{"url":"http://hl7.org/fhir/us/cqfmeasures/StructureDefinition/cqfm-isTestCase","valueBoolean":true}],"status":"complete","type":"individual","measure":"https://madie.cms.gov/Measure/CMS190VTEProphylaxisICUFHIR","period":{"start":"2026-01-01","end":"2026-12-31"},"group":[{"population":[{"code":{"coding":[{"system":"http://terminology.hl7.org/CodeSystem/measure-population","code":"initial-population","display":"Initial Population"}]},"count":1},{"code":{"coding":[{"system":"http://terminology.hl7.org/CodeSystem/measure-population","code":"denominator","display":"Denominator"}]},"count":1},{"code":{"coding":[{"system":"http://terminology.hl7.org/CodeSystem/measure-population","code":"denominator-exclusion","display":"Denominator Exclusion"}]},"count":0},{"code":{"coding":[{"system":"http://terminology.hl7.org/CodeSystem/measure-population","code":"numerator","display":"Numerator"}]},"count":0},{"code":{"coding":[{"system":"http://terminology.hl7.org/CodeSystem/measure-population","code":"denominator-exception","display":"Denominator Exception"}]},"count":0}]}]},"request":{"method":"PUT","url":"MeasureReport/403cd8ff-71a7-4b0f-9d1a-e0b424f449b0"}}]}