{"resourceType":"Bundle","id":"tests-6e9594c6-7336-4735-b402-0bd0a1d10c6d-bundle","type":"transaction","entry":[{"fullUrl":"https://madie.cms.gov/Patient/6e9594c6-7336-4735-b402-0bd0a1d10c6d","resource":{"resourceType":"Patient","id":"6e9594c6-7336-4735-b402-0bd0a1d10c6d","meta":{"profile":["http://hl7.org/fhir/us/qicore/StructureDefinition/qicore-patient"]},"text":{"status":"generated","div":"<div xmlns=\"http://www.w3.org/1999/xhtml\"><div class=\"hapiHeaderText\">MAUHepOnAnesEndOnICUStart <b>NUMERPASS </b></div><table class=\"hapiPropertyTable\"><tbody><tr><td>Identifier</td><td>18da224ba07858aaf8efb0009ede783e</td></tr><tr><td>Date of birth</td><td><span>03 March 1974</span></td></tr></tbody></table></div>"},"extension":[{"url":"http://hl7.org/fhir/us/core/StructureDefinition/us-core-race","extension":[{"url":"ombCategory","valueCoding":{"system":"urn:oid:2.16.840.1.113883.6.238","code":"1002-5","display":"American Indian or Alaska Native","userSelected":true}},{"url":"text","valueString":"American Indian or Alaska Native"}]},{"url":"http://hl7.org/fhir/us/core/StructureDefinition/us-core-ethnicity","extension":[{"url":"ombCategory","valueCoding":{"system":"urn:oid:2.16.840.1.113883.6.238","code":"2135-2","display":"Hispanic or Latino","userSelected":true}},{"url":"text","valueString":"Hispanic or Latino"}]}],"identifier":[{"type":{"coding":[{"system":"http://terminology.hl7.org/CodeSystem/v2-0203","code":"MR"}]},"system":"https://bonnie-fhir.healthit.gov/","value":"612e6f4e02c62a011f2f15ae"}],"active":true,"name":[{"use":"usual","family":"NUMERPass","given":["MAUHepOnAnesEndOnICUStart"]}],"gender":"female","birthDate":"1975-03-03"},"request":{"method":"PUT","url":"Patient/6e9594c6-7336-4735-b402-0bd0a1d10c6d"}},{"fullUrl":"https://madie.cms.gov/Encounter/4a655070-faed-4837-9fa1-4613196f3126","resource":{"resourceType":"Encounter","id":"4a655070-faed-4837-9fa1-4613196f3126","meta":{"profile":["http://hl7.org/fhir/us/qicore/StructureDefinition/qicore-encounter"]},"status":"finished","class":{"system":"http://terminology.hl7.org/CodeSystem/v3-ActCode","code":"IMP","display":"inpatient encounter"},"type":[{"coding":[{"system":"http://snomed.info/sct","code":"8715000"}]}],"subject":{"reference":"Patient/6e9594c6-7336-4735-b402-0bd0a1d10c6d"},"period":{"start":"2026-12-04T08:00:00+00:00","end":"2026-12-30T08:15:00+00:00"},"length":{"value":26.0,"unit":"days"},"location":[{"location":{"reference":"Location/dc76be5f-84bc-4ecc-8755-0fcf16788f15"},"period":{"start":"2026-12-06T08:00:00.000+00:00","end":"2026-12-12T08:15:00.000+00:00"}}]},"request":{"method":"PUT","url":"Encounter/4a655070-faed-4837-9fa1-4613196f3126"}},{"fullUrl":"https://madie.cms.gov/Coverage/05baaf58-8d9e-4e5d-bfc4-1b35e051c8a4","resource":{"resourceType":"Coverage","id":"05baaf58-8d9e-4e5d-bfc4-1b35e051c8a4","status":"active","beneficiary":{"reference":"Patient/6e9594c6-7336-4735-b402-0bd0a1d10c6d"},"period":{"start":"1975-03-03T08:00:00+00:00"},"payor":[{"reference":"Organization/db141f66-a1cc-407b-9e95-adac27adee14"}]},"request":{"method":"PUT","url":"Coverage/05baaf58-8d9e-4e5d-bfc4-1b35e051c8a4"}},{"fullUrl":"https://madie.cms.gov/MedicationAdministration/3554eabb-c778-4b17-a280-624a596b6456","resource":{"resourceType":"MedicationAdministration","id":"3554eabb-c778-4b17-a280-624a596b6456","meta":{"profile":["http://hl7.org/fhir/us/qicore/StructureDefinition/qicore-medicationadministration"]},"status":"completed","medicationCodeableConcept":{"coding":[{"system":"http://www.nlm.nih.gov/research/umls/rxnorm","code":"1361607"}]},"subject":{"reference":"Patient/6e9594c6-7336-4735-b402-0bd0a1d10c6d"},"effectivePeriod":{"start":"2026-12-06T08:00:00+00:00","end":"2026-12-12T08:15:00+00:00"},"dosage":{"route":{"coding":[{"system":"http://snomed.info/sct","code":"418114005","display":"Intravenous route"}]},"dose":{"value":500,"unit":"ml","system":"http://unitsofmeasure.org","code":"ml"}}},"request":{"method":"PUT","url":"MedicationAdministration/3554eabb-c778-4b17-a280-624a596b6456"}},{"fullUrl":"https://madie.cms.gov/Procedure/a7eb8241-054c-424f-bb61-070365057a19","resource":{"resourceType":"Procedure","id":"a7eb8241-054c-424f-bb61-070365057a19","meta":{"profile":["http://hl7.org/fhir/us/qicore/StructureDefinition/qicore-procedure"]},"extension":[{"url":"http://hl7.org/fhir/us/qicore/StructureDefinition/qicore-recorded","valueDateTime":"2013-12-06T09:35:00-04:00"}],"status":"completed","code":{"coding":[{"system":"http://snomed.info/sct","code":"18946005"}]},"subject":{"reference":"Patient/6e9594c6-7336-4735-b402-0bd0a1d10c6d"},"performedPeriod":{"start":"2026-12-06T08:00:00+00:00","end":"2026-12-06T09:00:00+00:00"}},"request":{"method":"PUT","url":"Procedure/a7eb8241-054c-424f-bb61-070365057a19"}},{"fullUrl":"https://madie.cms.gov/Location/dc76be5f-84bc-4ecc-8755-0fcf16788f15","resource":{"resourceType":"Location","id":"dc76be5f-84bc-4ecc-8755-0fcf16788f15","meta":{"profile":["http://hl7.org/fhir/us/qicore/StructureDefinition/qicore-location"]},"identifier":[{"use":"usual","system":"http://exampleoflocation.com","value":"B1-S.F2"}],"name":"Medical Surgical East, first floor","type":[{"coding":[{"system":"https://www.cdc.gov/nhsn/cdaportal/terminology/codesystem/hsloc.html","code":"1025-6","display":"Trauma Critical Care","userSelected":true}]}]},"request":{"method":"PUT","url":"Location/dc76be5f-84bc-4ecc-8755-0fcf16788f15"}},{"fullUrl":"https://madie.cms.gov/Organization/50b9c2e0-9ac5-44cf-9097-8f15b44796b8","resource":{"resourceType":"Organization","id":"db141f66-a1cc-407b-9e95-adac27adee14","meta":{"profile":["http://hl7.org/fhir/us/qicore/StructureDefinition/qicore-organization"]},"identifier":[{"use":"temp","system":"urn:oid:2.16.840.1.113883.4.4","value":"21-3259825"}],"active":true,"type":[{"coding":[{"system":"http://terminology.hl7.org/CodeSystem/organization-type","code":"pay","display":"Payer"}]}],"name":"Blue Cross Blue Shield of Texas","telecom":[{"system":"phone","value":"(+1) 972-766-6900"}],"address":[{"use":"billing","type":"postal","line":["P.O. Box 660044"],"city":"Dallas","state":"TX","postalCode":"75266-0044","country":"USA"}]},"request":{"method":"PUT","url":"Organization/db141f66-a1cc-407b-9e95-adac27adee14"}},{"fullUrl":"https://madie.cms.gov/Practitioner/54c9ee66-81d3-42f1-847f-3fd0c2ba9499","resource":{"resourceType":"Practitioner","id":"54c9ee66-81d3-42f1-847f-3fd0c2ba9499","identifier":[{"system":"http://hl7.org/fhir/sid/us-npi","value":"123456"}],"name":[{"family":"Evil","prefix":["Dr"]}]},"request":{"method":"PUT","url":"Practitioner/54c9ee66-81d3-42f1-847f-3fd0c2ba9499"}},{"fullUrl":"https://madie.cms.gov/MeasureReport/a586936f-9654-4409-91f0-a9fd5dfdff82","resource":{"resourceType":"MeasureReport","id":"a586936f-9654-4409-91f0-a9fd5dfdff82","meta":{"profile":["http://hl7.org/fhir/us/cqfmeasures/StructureDefinition/test-case-cqfm"]},"contained":[{"resourceType":"Parameters","id":"5ce06382-0f6e-4c3d-abd7-767cd7b0f7e5-parameters","parameter":[{"name":"subject","valueString":"6e9594c6-7336-4735-b402-0bd0a1d10c6d"}]}],"extension":[{"url":"http://hl7.org/fhir/us/cqfmeasures/StructureDefinition/cqfm-inputParameters","valueReference":{"reference":"#5ce06382-0f6e-4c3d-abd7-767cd7b0f7e5-parameters"}},{"url":"http://hl7.org/fhir/us/cqfmeasures/StructureDefinition/cqfm-testCaseDescription","valueMarkdown":"meets IPP, meets Denominator, medication administered:Unfractionated Heparin Route:IV starts concurrent with Anesthesia ends, Anes ends concurrent with start of ICU\n"}],"modifierExtension":[{"url":"http://hl7.org/fhir/us/cqfmeasures/StructureDefinition/cqfm-isTestCase","valueBoolean":true}],"status":"complete","type":"individual","measure":"https://madie.cms.gov/Measure/CMS190VTEProphylaxisICUFHIR","period":{"start":"2026-01-01","end":"2026-12-31"},"group":[{"population":[{"code":{"coding":[{"system":"http://terminology.hl7.org/CodeSystem/measure-population","code":"initial-population","display":"Initial Population"}]},"count":1},{"code":{"coding":[{"system":"http://terminology.hl7.org/CodeSystem/measure-population","code":"denominator","display":"Denominator"}]},"count":1},{"code":{"coding":[{"system":"http://terminology.hl7.org/CodeSystem/measure-population","code":"denominator-exclusion","display":"Denominator Exclusion"}]},"count":0},{"code":{"coding":[{"system":"http://terminology.hl7.org/CodeSystem/measure-population","code":"numerator","display":"Numerator"}]},"count":1},{"code":{"coding":[{"system":"http://terminology.hl7.org/CodeSystem/measure-population","code":"denominator-exception","display":"Denominator Exception"}]},"count":0}]}]},"request":{"method":"PUT","url":"MeasureReport/a586936f-9654-4409-91f0-a9fd5dfdff82"}}]}