{"resourceType":"Bundle","id":"tests-b9c40fdd-af88-483a-b987-a00753c70eb9-bundle","type":"transaction","entry":[{"fullUrl":"https://madie.cms.gov/Patient/b9c40fdd-af88-483a-b987-a00753c70eb9","resource":{"resourceType":"Patient","id":"b9c40fdd-af88-483a-b987-a00753c70eb9","meta":{"profile":["http://hl7.org/fhir/us/qicore/StructureDefinition/qicore-patient"]},"text":{"status":"generated","div":"<div xmlns=\"http://www.w3.org/1999/xhtml\"><div class=\"hapiHeaderText\">RiskAssessDuringED <b>NUMERPASS </b></div><table class=\"hapiPropertyTable\"><tbody><tr><td>Identifier</td><td>a3219b39ecf0f23fe4e7afd2937b490a</td></tr><tr><td>Date of birth</td><td><span>03 March 1974</span></td></tr></tbody></table></div>"},"extension":[{"url":"http://hl7.org/fhir/us/core/StructureDefinition/us-core-race","extension":[{"url":"ombCategory","valueCoding":{"system":"urn:oid:2.16.840.1.113883.6.238","code":"1002-5","display":"American Indian or Alaska Native","userSelected":true}},{"url":"text","valueString":"American Indian or Alaska Native"}]},{"url":"http://hl7.org/fhir/us/core/StructureDefinition/us-core-ethnicity","extension":[{"url":"ombCategory","valueCoding":{"system":"urn:oid:2.16.840.1.113883.6.238","code":"2135-2","display":"Hispanic or Latino","userSelected":true}},{"url":"text","valueString":"Hispanic or Latino"}]}],"identifier":[{"type":{"coding":[{"system":"http://terminology.hl7.org/CodeSystem/v2-0203","code":"MR"}]},"system":"https://bonnie-fhir.healthit.gov/","value":"612e6ef002c62a011f2f018b"}],"active":true,"name":[{"use":"usual","family":"NUMERPass","given":["RiskAssessDuringED"]}],"gender":"female","birthDate":"1975-03-03"},"request":{"method":"PUT","url":"Patient/b9c40fdd-af88-483a-b987-a00753c70eb9"}},{"fullUrl":"https://madie.cms.gov/Encounter/b4e5affc-14fc-4d45-9bb3-8166bbd442c1","resource":{"resourceType":"Encounter","id":"b4e5affc-14fc-4d45-9bb3-8166bbd442c1","meta":{"profile":["http://hl7.org/fhir/us/qicore/StructureDefinition/qicore-encounter"]},"status":"finished","class":{"system":"http://terminology.hl7.org/CodeSystem/v3-ActCode","code":"EMER","display":"emergency"},"type":[{"coding":[{"system":"http://snomed.info/sct","code":"4525004"}]}],"subject":{"reference":"Patient/b9c40fdd-af88-483a-b987-a00753c70eb9"},"period":{"start":"2026-12-06T02:00:00+00:00","end":"2026-12-06T08:15:00+00:00"},"length":{"value":0.0,"unit":"days"}},"request":{"method":"PUT","url":"Encounter/b4e5affc-14fc-4d45-9bb3-8166bbd442c1"}},{"fullUrl":"https://madie.cms.gov/Encounter/24c09f81-6e8b-4cca-b139-cf8e86f92507","resource":{"resourceType":"Encounter","id":"24c09f81-6e8b-4cca-b139-cf8e86f92507","meta":{"profile":["http://hl7.org/fhir/us/qicore/StructureDefinition/qicore-encounter"]},"status":"finished","class":{"system":"http://terminology.hl7.org/CodeSystem/v3-ActCode","code":"IMP","display":"inpatient encounter"},"type":[{"coding":[{"system":"http://snomed.info/sct","code":"8715000"}]}],"subject":{"reference":"Patient/b9c40fdd-af88-483a-b987-a00753c70eb9"},"period":{"start":"2026-12-06T08:45:00+00:00","end":"2026-12-30T08:15:00+00:00"},"length":{"value":24.0,"unit":"days"},"location":[{"location":{"reference":"Location/cc041d79-7455-4dd9-a465-c1bae8ff38f5"},"period":{"start":"2026-12-06T09:00:00.000+00:00","end":"2026-12-12T08:15:00.000+00:00"}}]},"request":{"method":"PUT","url":"Encounter/24c09f81-6e8b-4cca-b139-cf8e86f92507"}},{"fullUrl":"https://madie.cms.gov/Observation/a41b78cc-0f75-4ad8-98f5-4bae56e40d03","resource":{"resourceType":"Observation","id":"a41b78cc-0f75-4ad8-98f5-4bae56e40d03","meta":{"profile":["http://hl7.org/fhir/us/qicore/StructureDefinition/qicore-observation"]},"status":"final","category":[{"coding":[{"system":"http://terminology.hl7.org/CodeSystem/observation-category","code":"exam","display":"exam"}]}],"code":{"coding":[{"system":"http://loinc.org","code":"72136-5"}]},"subject":{"reference":"Patient/b9c40fdd-af88-483a-b987-a00753c70eb9"},"effectiveDateTime":"2026-12-06T06:30:00+00:00","valueCodeableConcept":{"coding":[{"system":"http://snomed.info/sct","code":"260362008","display":"Low Risk"}]}},"request":{"method":"PUT","url":"Observation/a41b78cc-0f75-4ad8-98f5-4bae56e40d03"}},{"fullUrl":"https://madie.cms.gov/Coverage/54543841-0986-4460-bcb0-a0959d22efad","resource":{"resourceType":"Coverage","id":"54543841-0986-4460-bcb0-a0959d22efad","status":"active","beneficiary":{"reference":"Patient/b9c40fdd-af88-483a-b987-a00753c70eb9"},"period":{"start":"1975-03-03T08:00:00+00:00"},"payor":[{"reference":"Organization/3778262e-e084-4bb5-9a47-1a144735f786"}]},"request":{"method":"PUT","url":"Coverage/54543841-0986-4460-bcb0-a0959d22efad"}},{"fullUrl":"https://madie.cms.gov/Location/cc041d79-7455-4dd9-a465-c1bae8ff38f5","resource":{"resourceType":"Location","id":"cc041d79-7455-4dd9-a465-c1bae8ff38f5","meta":{"profile":["http://hl7.org/fhir/us/qicore/StructureDefinition/qicore-location"]},"identifier":[{"use":"usual","system":"http://exampleoflocation.com","value":"B1-S.F2"}],"name":"Medical Surgical East, first floor","type":[{"coding":[{"system":"https://www.cdc.gov/nhsn/cdaportal/terminology/codesystem/hsloc.html","code":"1025-6","display":"Trauma Critical Care","userSelected":true}]}]},"request":{"method":"PUT","url":"Location/cc041d79-7455-4dd9-a465-c1bae8ff38f5"}},{"fullUrl":"https://madie.cms.gov/Organization/20e03e4f-1d09-48ee-b771-95e584b67a1e","resource":{"resourceType":"Organization","id":"3778262e-e084-4bb5-9a47-1a144735f786","meta":{"profile":["http://hl7.org/fhir/us/qicore/StructureDefinition/qicore-organization"]},"identifier":[{"use":"temp","system":"urn:oid:2.16.840.1.113883.4.4","value":"21-3259825"}],"active":true,"type":[{"coding":[{"system":"http://terminology.hl7.org/CodeSystem/organization-type","code":"pay","display":"Payer"}]}],"name":"Blue Cross Blue Shield of Texas","telecom":[{"system":"phone","value":"(+1) 972-766-6900"}],"address":[{"use":"billing","type":"postal","line":["P.O. Box 660044"],"city":"Dallas","state":"TX","postalCode":"75266-0044","country":"USA"}]},"request":{"method":"PUT","url":"Organization/3778262e-e084-4bb5-9a47-1a144735f786"}},{"fullUrl":"https://madie.cms.gov/Practitioner/a37394a4-b197-4091-9ec1-9ae7c7eb85b2","resource":{"resourceType":"Practitioner","id":"a37394a4-b197-4091-9ec1-9ae7c7eb85b2","identifier":[{"system":"http://hl7.org/fhir/sid/us-npi","value":"123456"}],"name":[{"family":"Evil","prefix":["Dr"]}]},"request":{"method":"PUT","url":"Practitioner/a37394a4-b197-4091-9ec1-9ae7c7eb85b2"}},{"fullUrl":"https://madie.cms.gov/MeasureReport/dd8c2faa-6776-4afc-a0cc-ab0d64036301","resource":{"resourceType":"MeasureReport","id":"dd8c2faa-6776-4afc-a0cc-ab0d64036301","meta":{"profile":["http://hl7.org/fhir/us/cqfmeasures/StructureDefinition/test-case-cqfm"]},"contained":[{"resourceType":"Parameters","id":"fa191ad5-ca63-4673-9c7f-21abd5800e87-parameters","parameter":[{"name":"subject","valueString":"b9c40fdd-af88-483a-b987-a00753c70eb9"}]}],"extension":[{"url":"http://hl7.org/fhir/us/cqfmeasures/StructureDefinition/cqfm-inputParameters","valueReference":{"reference":"#fa191ad5-ca63-4673-9c7f-21abd5800e87-parameters"}},{"url":"http://hl7.org/fhir/us/cqfmeasures/StructureDefinition/cqfm-testCaseDescription","valueMarkdown":"meets IPP, meets Denominator, RCA VTErisk during ED, ED endTime less than 1 hour before Start of ICU\n"}],"modifierExtension":[{"url":"http://hl7.org/fhir/us/cqfmeasures/StructureDefinition/cqfm-isTestCase","valueBoolean":true}],"status":"complete","type":"individual","measure":"https://madie.cms.gov/Measure/CMS190VTEProphylaxisICUFHIR","period":{"start":"2026-01-01","end":"2026-12-31"},"group":[{"population":[{"code":{"coding":[{"system":"http://terminology.hl7.org/CodeSystem/measure-population","code":"initial-population","display":"Initial Population"}]},"count":1},{"code":{"coding":[{"system":"http://terminology.hl7.org/CodeSystem/measure-population","code":"denominator","display":"Denominator"}]},"count":1},{"code":{"coding":[{"system":"http://terminology.hl7.org/CodeSystem/measure-population","code":"denominator-exclusion","display":"Denominator Exclusion"}]},"count":0},{"code":{"coding":[{"system":"http://terminology.hl7.org/CodeSystem/measure-population","code":"numerator","display":"Numerator"}]},"count":1},{"code":{"coding":[{"system":"http://terminology.hl7.org/CodeSystem/measure-population","code":"denominator-exception","display":"Denominator Exception"}]},"count":0}]}]},"request":{"method":"PUT","url":"MeasureReport/dd8c2faa-6776-4afc-a0cc-ab0d64036301"}}]}