{"resourceType":"Bundle","id":"tests-d5d8e66a-01da-462b-95b6-e47b16285b1f-bundle","type":"transaction","entry":[{"fullUrl":"https://madie.cms.gov/Patient/d5d8e66a-01da-462b-95b6-e47b16285b1f","resource":{"resourceType":"Patient","id":"d5d8e66a-01da-462b-95b6-e47b16285b1f","meta":{"profile":["http://hl7.org/fhir/us/qicore/StructureDefinition/qicore-patient"]},"text":{"status":"generated","div":"<div xmlns=\"http://www.w3.org/1999/xhtml\"><div class=\"hapiHeaderText\">CMPerfDurObsGT1HrBFSameDayAdm <b>DENEXPASS </b></div><table class=\"hapiPropertyTable\"><tbody><tr><td>Identifier</td><td>47c228581be8a6c28bc27fdd30fd9e3402e1823bb2e7ff7c219a929014346dba</td></tr><tr><td>Date of birth</td><td><span>03 January 1979</span></td></tr></tbody></table></div>"},"extension":[{"url":"http://hl7.org/fhir/us/core/StructureDefinition/us-core-race","extension":[{"url":"ombCategory","valueCoding":{"system":"urn:oid:2.16.840.1.113883.6.238","code":"1002-5","display":"American Indian or Alaska Native","userSelected":true}},{"url":"text","valueString":"American Indian or Alaska Native"}]},{"url":"http://hl7.org/fhir/us/core/StructureDefinition/us-core-ethnicity","extension":[{"url":"ombCategory","valueCoding":{"system":"urn:oid:2.16.840.1.113883.6.238","code":"2135-2","display":"Hispanic or Latino","userSelected":true}},{"url":"text","valueString":"Hispanic or Latino"}]}],"identifier":[{"type":{"coding":[{"system":"http://terminology.hl7.org/CodeSystem/v2-0203","code":"MR"}]},"system":"https://bonnie-fhir.healthit.gov/","value":"612e6f6902c62a011f2f1bee"}],"active":true,"name":[{"use":"usual","family":"DENEXPass","given":["CMPerfDurObsGT1HrBFSameDayAdm"]}],"gender":"female","birthDate":"1980-01-03"},"request":{"method":"PUT","url":"Patient/d5d8e66a-01da-462b-95b6-e47b16285b1f"}},{"fullUrl":"https://madie.cms.gov/Encounter/16b6282e-8f31-4b65-8b13-920259134ba8","resource":{"resourceType":"Encounter","id":"16b6282e-8f31-4b65-8b13-920259134ba8","meta":{"profile":["http://hl7.org/fhir/us/qicore/StructureDefinition/qicore-encounter"]},"status":"finished","class":{"system":"http://terminology.hl7.org/CodeSystem/v3-ActCode","code":"EMER","display":"emergency"},"type":[{"coding":[{"system":"http://snomed.info/sct","code":"4525004"}]}],"subject":{"reference":"Patient/d5d8e66a-01da-462b-95b6-e47b16285b1f"},"period":{"start":"2026-12-04T04:00:00+00:00","end":"2026-12-04T05:00:00+00:00"},"length":{"value":0.0,"unit":"days"}},"request":{"method":"PUT","url":"Encounter/16b6282e-8f31-4b65-8b13-920259134ba8"}},{"fullUrl":"https://madie.cms.gov/Encounter/1943122f-800a-4798-8487-4b16dfb38a6e","resource":{"resourceType":"Encounter","id":"1943122f-800a-4798-8487-4b16dfb38a6e","meta":{"profile":["http://hl7.org/fhir/us/qicore/StructureDefinition/qicore-encounter"]},"status":"finished","class":{"system":"http://terminology.hl7.org/CodeSystem/v3-ActCode","code":"IMP","display":"inpatient encounter"},"type":[{"coding":[{"system":"http://snomed.info/sct","code":"8715000"}]}],"subject":{"reference":"Patient/d5d8e66a-01da-462b-95b6-e47b16285b1f"},"period":{"start":"2026-12-04T08:00:00+00:00","end":"2026-12-30T08:15:00+00:00"},"length":{"value":26.0,"unit":"days"},"location":[{"location":{"reference":"Location/676c00ed-853d-483e-b8bc-0183a8b8294f"},"period":{"start":"2026-12-26T08:00:00.000+00:00","end":"2026-12-28T08:15:00.000+00:00"}}]},"request":{"method":"PUT","url":"Encounter/1943122f-800a-4798-8487-4b16dfb38a6e"}},{"fullUrl":"https://madie.cms.gov/Encounter/e7528592-a8e5-4bcf-8c33-e9a7c796bae3","resource":{"resourceType":"Encounter","id":"e7528592-a8e5-4bcf-8c33-e9a7c796bae3","meta":{"profile":["http://hl7.org/fhir/us/qicore/StructureDefinition/qicore-encounter"]},"status":"finished","class":{"system":"http://terminology.hl7.org/CodeSystem/v3-ActCode","code":"OBSENC","display":"observation encounter"},"type":[{"coding":[{"system":"http://snomed.info/sct","code":"448951000124107"}]}],"subject":{"reference":"Patient/d5d8e66a-01da-462b-95b6-e47b16285b1f"},"period":{"start":"2026-12-04T05:15:00+00:00","end":"2026-12-04T06:15:00+00:00"}},"request":{"method":"PUT","url":"Encounter/e7528592-a8e5-4bcf-8c33-e9a7c796bae3"}},{"fullUrl":"https://madie.cms.gov/Procedure/67adc7e6-862e-4e21-8ab1-de09ec18ad63","resource":{"resourceType":"Procedure","id":"67adc7e6-862e-4e21-8ab1-de09ec18ad63","meta":{"profile":["http://hl7.org/fhir/us/qicore/StructureDefinition/qicore-procedure"]},"extension":[{"url":"http://hl7.org/fhir/us/qicore/StructureDefinition/qicore-recorded","valueDateTime":"2026-12-04T06:00:00+00:00"}],"status":"completed","code":{"coding":[{"system":"http://snomed.info/sct","code":"133918004","display":"Comfort measures (regime/therapy)"}]},"subject":{"reference":"Patient/d5d8e66a-01da-462b-95b6-e47b16285b1f"},"performedPeriod":{"start":"2026-12-04T06:00:00+00:00"}},"request":{"method":"PUT","url":"Procedure/67adc7e6-862e-4e21-8ab1-de09ec18ad63"}},{"fullUrl":"https://madie.cms.gov/Coverage/47866889-8f48-4b09-8cd4-efa95c00da1f","resource":{"resourceType":"Coverage","id":"47866889-8f48-4b09-8cd4-efa95c00da1f","status":"active","beneficiary":{"reference":"Patient/d5d8e66a-01da-462b-95b6-e47b16285b1f"},"period":{"start":"1975-03-03T08:00:00+00:00"},"payor":[{"reference":"Organization/e75793c9-fdf6-463a-8c1d-4ee44320dc25"}]},"request":{"method":"PUT","url":"Coverage/47866889-8f48-4b09-8cd4-efa95c00da1f"}},{"fullUrl":"https://madie.cms.gov/Location/676c00ed-853d-483e-b8bc-0183a8b8294f","resource":{"resourceType":"Location","id":"676c00ed-853d-483e-b8bc-0183a8b8294f","meta":{"profile":["http://hl7.org/fhir/us/qicore/StructureDefinition/qicore-location"]},"identifier":[{"use":"usual","system":"http://exampleoflocation.com","value":"B1-S.F2"}],"name":"Medical Surgical East, first floor","type":[{"coding":[{"system":"https://www.cdc.gov/nhsn/cdaportal/terminology/codesystem/hsloc.html","version":"2020","code":"1025-6","display":"Trauma Critical Care","userSelected":true}]}]},"request":{"method":"PUT","url":"Location/676c00ed-853d-483e-b8bc-0183a8b8294f"}},{"fullUrl":"https://madie.cms.gov/Organization/cad925ba-c927-494d-aa91-977631ee37cb","resource":{"resourceType":"Organization","id":"e75793c9-fdf6-463a-8c1d-4ee44320dc25","meta":{"profile":["http://hl7.org/fhir/us/qicore/StructureDefinition/qicore-organization"]},"identifier":[{"use":"temp","system":"urn:oid:2.16.840.1.113883.4.4","value":"21-3259825"}],"active":true,"type":[{"coding":[{"system":"http://terminology.hl7.org/CodeSystem/organization-type","code":"pay","display":"Payer"}]}],"name":"Blue Cross Blue Shield of Texas","telecom":[{"system":"phone","value":"(+1) 972-766-6900"}],"address":[{"use":"billing","type":"postal","line":["P.O. Box 660044"],"city":"Dallas","state":"TX","postalCode":"75266-0044","country":"USA"}]},"request":{"method":"PUT","url":"Organization/e75793c9-fdf6-463a-8c1d-4ee44320dc25"}},{"fullUrl":"https://madie.cms.gov/Practitioner/1ccf2774-730d-465b-a4a2-73992e16ad91","resource":{"resourceType":"Practitioner","id":"1ccf2774-730d-465b-a4a2-73992e16ad91","identifier":[{"system":"http://hl7.org/fhir/sid/us-npi","value":"123456"}],"name":[{"family":"Evil","prefix":["Dr"]}]},"request":{"method":"PUT","url":"Practitioner/1ccf2774-730d-465b-a4a2-73992e16ad91"}},{"fullUrl":"https://madie.cms.gov/MeasureReport/7bc59f78-eef3-4c63-a2aa-d8837d949e7b","resource":{"resourceType":"MeasureReport","id":"7bc59f78-eef3-4c63-a2aa-d8837d949e7b","meta":{"profile":["http://hl7.org/fhir/us/cqfmeasures/StructureDefinition/test-case-cqfm"]},"contained":[{"resourceType":"Parameters","id":"37099fd7-9101-4e68-9bca-112fa36fcbb1-parameters","parameter":[{"name":"subject","valueString":"d5d8e66a-01da-462b-95b6-e47b16285b1f"}]}],"extension":[{"url":"http://hl7.org/fhir/us/cqfmeasures/StructureDefinition/cqfm-inputParameters","valueReference":{"reference":"#37099fd7-9101-4e68-9bca-112fa36fcbb1-parameters"}},{"url":"http://hl7.org/fhir/us/cqfmeasures/StructureDefinition/cqfm-testCaseDescription","valueMarkdown":"meets IPP and Denominator, inpatient visit starts >1 hour after the end of Observation AND Comfort Measures are performed during Obs. This case still pass because CMO is on the same day of Adm date\n"}],"modifierExtension":[{"url":"http://hl7.org/fhir/us/cqfmeasures/StructureDefinition/cqfm-isTestCase","valueBoolean":true}],"status":"complete","type":"individual","measure":"https://madie.cms.gov/Measure/CMS190VTEProphylaxisICUFHIR","period":{"start":"2026-01-01","end":"2026-12-31"},"group":[{"population":[{"code":{"coding":[{"system":"http://terminology.hl7.org/CodeSystem/measure-population","code":"initial-population","display":"Initial Population"}]},"count":1},{"code":{"coding":[{"system":"http://terminology.hl7.org/CodeSystem/measure-population","code":"denominator","display":"Denominator"}]},"count":1},{"code":{"coding":[{"system":"http://terminology.hl7.org/CodeSystem/measure-population","code":"denominator-exclusion","display":"Denominator Exclusion"}]},"count":1},{"code":{"coding":[{"system":"http://terminology.hl7.org/CodeSystem/measure-population","code":"numerator","display":"Numerator"}]},"count":0},{"code":{"coding":[{"system":"http://terminology.hl7.org/CodeSystem/measure-population","code":"denominator-exception","display":"Denominator Exception"}]},"count":0}]}]},"request":{"method":"PUT","url":"MeasureReport/7bc59f78-eef3-4c63-a2aa-d8837d949e7b"}}]}