{"resourceType":"Bundle","id":"tests-6f2d7289-6559-4e18-95be-7d52e61e161b-bundle","type":"transaction","entry":[{"fullUrl":"https://madie.cms.gov/Patient/6f2d7289-6559-4e18-95be-7d52e61e161b","resource":{"resourceType":"Patient","id":"6f2d7289-6559-4e18-95be-7d52e61e161b","meta":{"profile":["http://hl7.org/fhir/us/qicore/StructureDefinition/qicore-patient"]},"text":{"status":"generated","div":"<div xmlns=\"http://www.w3.org/1999/xhtml\"><div class=\"hapiHeaderText\">EncEndsAfterMP <b>IPFAIL </b></div><table class=\"hapiPropertyTable\"><tbody><tr><td>Identifier</td><td>b1d28eead06b6f01d6aa6061622efda1</td></tr><tr><td>Date of birth</td><td><span>03 March 1974</span></td></tr></tbody></table></div>"},"extension":[{"url":"http://hl7.org/fhir/us/core/StructureDefinition/us-core-race","extension":[{"url":"ombCategory","valueCoding":{"system":"urn:oid:2.16.840.1.113883.6.238","code":"1002-5","display":"American Indian or Alaska Native","userSelected":true}},{"url":"text","valueString":"American Indian or Alaska Native"}]},{"url":"http://hl7.org/fhir/us/core/StructureDefinition/us-core-ethnicity","extension":[{"url":"ombCategory","valueCoding":{"system":"urn:oid:2.16.840.1.113883.6.238","code":"2135-2","display":"Hispanic or Latino","userSelected":true}},{"url":"text","valueString":"Hispanic or Latino"}]}],"identifier":[{"type":{"coding":[{"system":"http://terminology.hl7.org/CodeSystem/v2-0203","code":"MR"}]},"system":"https://bonnie-fhir.healthit.gov/","value":"612e6f3b02c62a011f2f11ba"}],"active":true,"name":[{"use":"usual","family":"IPFail","given":["EncEndsAfterMP"]}],"gender":"female","birthDate":"1975-03-03"},"request":{"method":"PUT","url":"Patient/6f2d7289-6559-4e18-95be-7d52e61e161b"}},{"fullUrl":"https://madie.cms.gov/Encounter/f77083d4-8e80-47de-ab81-80496b7f2dca","resource":{"resourceType":"Encounter","id":"f77083d4-8e80-47de-ab81-80496b7f2dca","meta":{"profile":["http://hl7.org/fhir/us/qicore/StructureDefinition/qicore-encounter"]},"status":"finished","class":{"system":"http://terminology.hl7.org/CodeSystem/v3-ActCode","code":"IMP","display":"inpatient encounter"},"type":[{"coding":[{"system":"http://snomed.info/sct","code":"8715000"}]}],"subject":{"reference":"Patient/6f2d7289-6559-4e18-95be-7d52e61e161b"},"period":{"start":"2026-12-25T08:00:00+00:00","end":"2027-01-01T08:15:00+00:00"},"length":{"value":7.0,"unit":"days"},"location":[{"location":{"reference":"Location/43d51da5-dd19-4ffd-979d-a64e5ab7b6f1"},"period":{"start":"2026-12-26T08:00:00.000+00:00","end":"2026-12-28T08:15:00.000+00:00"}}]},"request":{"method":"PUT","url":"Encounter/f77083d4-8e80-47de-ab81-80496b7f2dca"}},{"fullUrl":"https://madie.cms.gov/Coverage/cea28813-3630-4614-af15-95ffe86aaf2a","resource":{"resourceType":"Coverage","id":"cea28813-3630-4614-af15-95ffe86aaf2a","status":"active","beneficiary":{"reference":"Patient/6f2d7289-6559-4e18-95be-7d52e61e161b"},"period":{"start":"1975-03-03T08:00:00+00:00"},"payor":[{"reference":"Organization/e75793c9-fdf6-463a-8c1d-4ee44320dc25"}]},"request":{"method":"PUT","url":"Coverage/cea28813-3630-4614-af15-95ffe86aaf2a"}},{"fullUrl":"https://madie.cms.gov/Condition/519780fa-913a-4a4d-a1c1-638463c9a88a","resource":{"resourceType":"Condition","id":"519780fa-913a-4a4d-a1c1-638463c9a88a","meta":{"profile":["http://hl7.org/fhir/us/qicore/StructureDefinition/qicore-condition"]},"category":[{"coding":[{"system":"http://terminology.hl7.org/CodeSystem/condition-category","code":"problem-list-item","display":"Problem List Item"}]}],"code":{"coding":[{"system":"http://hl7.org/fhir/sid/icd-10-cm","code":"I26.09"},{"system":"http://hl7.org/fhir/sid/icd-9-cm","code":"415.11"},{"system":"http://snomed.info/sct","code":"132251000119101"}]},"subject":{"reference":"Patient/6f2d7289-6559-4e18-95be-7d52e61e161b"},"onsetPeriod":{"start":"2026-10-04T08:00:00+00:00","end":"2026-10-05T08:15:00+00:00"}},"request":{"method":"PUT","url":"Condition/519780fa-913a-4a4d-a1c1-638463c9a88a"}},{"fullUrl":"https://madie.cms.gov/Location/43d51da5-dd19-4ffd-979d-a64e5ab7b6f1","resource":{"resourceType":"Location","id":"43d51da5-dd19-4ffd-979d-a64e5ab7b6f1","meta":{"profile":["http://hl7.org/fhir/us/qicore/StructureDefinition/qicore-location"]},"identifier":[{"use":"usual","system":"http://exampleoflocation.com","value":"B1-S.F2"}],"name":"Medical Surgical East, first floor","type":[{"coding":[{"system":"https://www.cdc.gov/nhsn/cdaportal/terminology/codesystem/hsloc.html","code":"1025-6","display":"Trauma Critical Care","userSelected":true}]}]},"request":{"method":"PUT","url":"Location/43d51da5-dd19-4ffd-979d-a64e5ab7b6f1"}},{"fullUrl":"https://madie.cms.gov/Organization/f860d22c-95b9-4e42-a4dd-bb585f0234ca","resource":{"resourceType":"Organization","id":"e75793c9-fdf6-463a-8c1d-4ee44320dc25","meta":{"profile":["http://hl7.org/fhir/us/qicore/StructureDefinition/qicore-organization"]},"identifier":[{"use":"temp","system":"urn:oid:2.16.840.1.113883.4.4","value":"21-3259825"}],"active":true,"type":[{"coding":[{"system":"http://terminology.hl7.org/CodeSystem/organization-type","code":"pay","display":"Payer"}]}],"name":"Blue Cross Blue Shield of Texas","telecom":[{"system":"phone","value":"(+1) 972-766-6900"}],"address":[{"use":"billing","type":"postal","line":["P.O. Box 660044"],"city":"Dallas","state":"TX","postalCode":"75266-0044","country":"USA"}]},"request":{"method":"PUT","url":"Organization/e75793c9-fdf6-463a-8c1d-4ee44320dc25"}},{"fullUrl":"https://madie.cms.gov/Practitioner/1f4706cc-3bc5-4ff1-b637-87c3e5d6c9eb","resource":{"resourceType":"Practitioner","id":"1f4706cc-3bc5-4ff1-b637-87c3e5d6c9eb","identifier":[{"system":"http://hl7.org/fhir/sid/us-npi","value":"123456"}],"name":[{"family":"Evil","prefix":["Dr"]}]},"request":{"method":"PUT","url":"Practitioner/1f4706cc-3bc5-4ff1-b637-87c3e5d6c9eb"}},{"fullUrl":"https://madie.cms.gov/MeasureReport/33c22f6e-d2ac-4f54-88c8-35b4dc6ac0cd","resource":{"resourceType":"MeasureReport","id":"33c22f6e-d2ac-4f54-88c8-35b4dc6ac0cd","meta":{"profile":["http://hl7.org/fhir/us/cqfmeasures/StructureDefinition/test-case-cqfm"]},"contained":[{"resourceType":"Parameters","id":"0d8a8837-7ab6-4928-92a7-267ce331b60d-parameters","parameter":[{"name":"subject","valueString":"6f2d7289-6559-4e18-95be-7d52e61e161b"}]}],"extension":[{"url":"http://hl7.org/fhir/us/cqfmeasures/StructureDefinition/cqfm-inputParameters","valueReference":{"reference":"#0d8a8837-7ab6-4928-92a7-267ce331b60d-parameters"}},{"url":"http://hl7.org/fhir/us/cqfmeasures/StructureDefinition/cqfm-testCaseDescription","valueMarkdown":"EncEndsAfterMP\n"}],"modifierExtension":[{"url":"http://hl7.org/fhir/us/cqfmeasures/StructureDefinition/cqfm-isTestCase","valueBoolean":true}],"status":"complete","type":"individual","measure":"https://madie.cms.gov/Measure/CMS190VTEProphylaxisICUFHIR","period":{"start":"2026-01-01","end":"2026-12-31"},"group":[{"population":[{"code":{"coding":[{"system":"http://terminology.hl7.org/CodeSystem/measure-population","code":"initial-population","display":"Initial Population"}]},"count":0},{"code":{"coding":[{"system":"http://terminology.hl7.org/CodeSystem/measure-population","code":"denominator","display":"Denominator"}]},"count":0},{"code":{"coding":[{"system":"http://terminology.hl7.org/CodeSystem/measure-population","code":"denominator-exclusion","display":"Denominator Exclusion"}]},"count":0},{"code":{"coding":[{"system":"http://terminology.hl7.org/CodeSystem/measure-population","code":"numerator","display":"Numerator"}]},"count":0},{"code":{"coding":[{"system":"http://terminology.hl7.org/CodeSystem/measure-population","code":"denominator-exception","display":"Denominator Exception"}]},"count":0}]}]},"request":{"method":"PUT","url":"MeasureReport/33c22f6e-d2ac-4f54-88c8-35b4dc6ac0cd"}}]}