{"resourceType":"Bundle","id":"tests-06b5bb95-e5d2-42aa-ab7c-6bfa4ae302c6-bundle","type":"transaction","entry":[{"fullUrl":"https://madie.cms.gov/Patient/06b5bb95-e5d2-42aa-ab7c-6bfa4ae302c6","resource":{"resourceType":"Patient","id":"06b5bb95-e5d2-42aa-ab7c-6bfa4ae302c6","meta":{"profile":["http://hl7.org/fhir/us/qicore/StructureDefinition/qicore-patient"]},"text":{"status":"generated","div":"<div xmlns=\"http://www.w3.org/1999/xhtml\"><div class=\"hapiHeaderText\">HipFxEndDayofBFICUAdmTm <b>DENEXPASS </b></div><table class=\"hapiPropertyTable\"><tbody><tr><td>Identifier</td><td>c86bf4d45e0ace80da93806dc6ebb45b</td></tr><tr><td>Date of birth</td><td><span>03 March 1974</span></td></tr></tbody></table></div>"},"extension":[{"url":"http://hl7.org/fhir/us/core/StructureDefinition/us-core-race","extension":[{"url":"ombCategory","valueCoding":{"system":"urn:oid:2.16.840.1.113883.6.238","code":"1002-5","display":"American Indian or Alaska Native","userSelected":true}},{"url":"text","valueString":"American Indian or Alaska Native"}]},{"url":"http://hl7.org/fhir/us/core/StructureDefinition/us-core-ethnicity","extension":[{"url":"ombCategory","valueCoding":{"system":"urn:oid:2.16.840.1.113883.6.238","code":"2135-2","display":"Hispanic or Latino","userSelected":true}},{"url":"text","valueString":"Hispanic or Latino"}]}],"identifier":[{"type":{"coding":[{"system":"http://terminology.hl7.org/CodeSystem/v2-0203","code":"MR"}]},"system":"https://bonnie-fhir.healthit.gov/","value":"612e6f7402c62a011f2f1eb0"}],"active":true,"name":[{"use":"usual","family":"DENEXPass","given":["HipFxEndDayofBFICUAdmTm"]}],"gender":"female","birthDate":"1975-03-03"},"request":{"method":"PUT","url":"Patient/06b5bb95-e5d2-42aa-ab7c-6bfa4ae302c6"}},{"fullUrl":"https://madie.cms.gov/Encounter/87e445b2-d89a-40ce-9677-35636cea3854","resource":{"resourceType":"Encounter","id":"87e445b2-d89a-40ce-9677-35636cea3854","meta":{"profile":["http://hl7.org/fhir/us/qicore/StructureDefinition/qicore-encounter"]},"extension":[{"url":"http://hl7.org/fhir/us/qicore/StructureDefinition/qicore-encounter-procedure","extension":[{"url":"type","valueCodeableConcept":{"coding":[{"system":"http://www.cms.gov/Medicare/Coding/ICD10","code":"0SQ90ZZ"}]}},{"url":"rank","valuePositiveInt":1},{"url":"procedure","valueReference":{"reference":"Procedure/6ed11d8e-4f9b-455e-90b2-290746e5dec3"}}]}],"status":"finished","class":{"system":"http://terminology.hl7.org/CodeSystem/v3-ActCode","code":"IMP","display":"inpatient encounter"},"type":[{"coding":[{"system":"http://snomed.info/sct","code":"8715000"}]}],"subject":{"reference":"Patient/06b5bb95-e5d2-42aa-ab7c-6bfa4ae302c6"},"period":{"start":"2026-12-04T08:00:00+00:00","end":"2026-12-30T08:15:00+00:00"},"length":{"value":26.0,"unit":"days"},"location":[{"location":{"reference":"Location/96791c93-6137-41cd-b62d-eae847f9da08"},"period":{"start":"2026-12-06T08:00:00.000+00:00","end":"2026-12-08T08:15:00.000+00:00"}}]},"request":{"method":"PUT","url":"Encounter/87e445b2-d89a-40ce-9677-35636cea3854"}},{"fullUrl":"https://madie.cms.gov/Coverage/5f46e8ca-8a1a-4f08-97b0-1860be04bf1e","resource":{"resourceType":"Coverage","id":"5f46e8ca-8a1a-4f08-97b0-1860be04bf1e","status":"active","beneficiary":{"reference":"Patient/06b5bb95-e5d2-42aa-ab7c-6bfa4ae302c6"},"period":{"start":"1975-03-03T08:00:00+00:00"},"payor":[{"reference":"Organization/db141f66-a1cc-407b-9e95-adac27adee14"}]},"request":{"method":"PUT","url":"Coverage/5f46e8ca-8a1a-4f08-97b0-1860be04bf1e"}},{"fullUrl":"https://madie.cms.gov/Procedure/6ed11d8e-4f9b-455e-90b2-290746e5dec3","resource":{"resourceType":"Procedure","id":"6ed11d8e-4f9b-455e-90b2-290746e5dec3","meta":{"profile":["http://hl7.org/fhir/us/qicore/StructureDefinition/qicore-procedure"]},"extension":[{"url":"http://hl7.org/fhir/us/qicore/StructureDefinition/qicore-recorded","valueDateTime":"2013-12-04T09:35:00-04:00"}],"status":"completed","code":{"coding":[{"system":"http://www.cms.gov/Medicare/Coding/ICD10","code":"0SQ90ZZ"}]},"subject":{"reference":"Patient/06b5bb95-e5d2-42aa-ab7c-6bfa4ae302c6"},"performedPeriod":{"start":"2026-12-06T06:00:00+00:00","end":"2026-12-06T07:15:00+00:00"}},"request":{"method":"PUT","url":"Procedure/6ed11d8e-4f9b-455e-90b2-290746e5dec3"}},{"fullUrl":"https://madie.cms.gov/Location/96791c93-6137-41cd-b62d-eae847f9da08","resource":{"resourceType":"Location","id":"96791c93-6137-41cd-b62d-eae847f9da08","meta":{"profile":["http://hl7.org/fhir/us/qicore/StructureDefinition/qicore-location"]},"identifier":[{"use":"usual","system":"http://exampleoflocation.com","value":"B1-S.F2"}],"name":"Medical Surgical East, first floor","type":[{"coding":[{"system":"https://www.cdc.gov/nhsn/cdaportal/terminology/codesystem/hsloc.html","code":"1025-6","display":"Trauma Critical Care","userSelected":true}]}]},"request":{"method":"PUT","url":"Location/96791c93-6137-41cd-b62d-eae847f9da08"}},{"fullUrl":"https://madie.cms.gov/Organization/0203e649-24ce-4b83-b466-506dd076f515","resource":{"resourceType":"Organization","id":"db141f66-a1cc-407b-9e95-adac27adee14","meta":{"profile":["http://hl7.org/fhir/us/qicore/StructureDefinition/qicore-organization"]},"identifier":[{"use":"temp","system":"urn:oid:2.16.840.1.113883.4.4","value":"21-3259825"}],"active":true,"type":[{"coding":[{"system":"http://terminology.hl7.org/CodeSystem/organization-type","code":"pay","display":"Payer"}]}],"name":"Blue Cross Blue Shield of Texas","telecom":[{"system":"phone","value":"(+1) 972-766-6900"}],"address":[{"use":"billing","type":"postal","line":["P.O. Box 660044"],"city":"Dallas","state":"TX","postalCode":"75266-0044","country":"USA"}]},"request":{"method":"PUT","url":"Organization/db141f66-a1cc-407b-9e95-adac27adee14"}},{"fullUrl":"https://madie.cms.gov/Practitioner/2a900150-f944-43ae-96d6-099e90d59594","resource":{"resourceType":"Practitioner","id":"2a900150-f944-43ae-96d6-099e90d59594","identifier":[{"system":"http://hl7.org/fhir/sid/us-npi","value":"123456"}],"name":[{"family":"Evil","prefix":["Dr"]}]},"request":{"method":"PUT","url":"Practitioner/2a900150-f944-43ae-96d6-099e90d59594"}},{"fullUrl":"https://madie.cms.gov/MeasureReport/058b083f-dbfc-4268-9719-9022a2138bef","resource":{"resourceType":"MeasureReport","id":"058b083f-dbfc-4268-9719-9022a2138bef","meta":{"profile":["http://hl7.org/fhir/us/cqfmeasures/StructureDefinition/test-case-cqfm"]},"contained":[{"resourceType":"Parameters","id":"df581101-dfb0-48cc-a4e2-bd3e8a7f5178-parameters","parameter":[{"name":"subject","valueString":"06b5bb95-e5d2-42aa-ab7c-6bfa4ae302c6"}]}],"extension":[{"url":"http://hl7.org/fhir/us/cqfmeasures/StructureDefinition/cqfm-inputParameters","valueReference":{"reference":"#df581101-dfb0-48cc-a4e2-bd3e8a7f5178-parameters"}},{"url":"http://hl7.org/fhir/us/cqfmeasures/StructureDefinition/cqfm-testCaseDescription","valueMarkdown":"Hip Fx surgery end same calendar Day of start of ICU admission.But the time is before ICU Adm time.The case still passing due to Function of \"CalendarDayOfOrDayAfter\"\n"}],"modifierExtension":[{"url":"http://hl7.org/fhir/us/cqfmeasures/StructureDefinition/cqfm-isTestCase","valueBoolean":true}],"status":"complete","type":"individual","measure":"https://madie.cms.gov/Measure/CMS190VTEProphylaxisICUFHIR","period":{"start":"2026-01-01","end":"2026-12-31"},"group":[{"population":[{"code":{"coding":[{"system":"http://terminology.hl7.org/CodeSystem/measure-population","code":"initial-population","display":"Initial Population"}]},"count":1},{"code":{"coding":[{"system":"http://terminology.hl7.org/CodeSystem/measure-population","code":"denominator","display":"Denominator"}]},"count":1},{"code":{"coding":[{"system":"http://terminology.hl7.org/CodeSystem/measure-population","code":"denominator-exclusion","display":"Denominator Exclusion"}]},"count":1},{"code":{"coding":[{"system":"http://terminology.hl7.org/CodeSystem/measure-population","code":"numerator","display":"Numerator"}]},"count":0},{"code":{"coding":[{"system":"http://terminology.hl7.org/CodeSystem/measure-population","code":"denominator-exception","display":"Denominator Exception"}]},"count":0}]}]},"request":{"method":"PUT","url":"MeasureReport/058b083f-dbfc-4268-9719-9022a2138bef"}}]}