{"resourceType":"Bundle","id":"tests-2692f4bd-5abf-4565-873e-7cced05eaece-bundle","type":"transaction","entry":[{"fullUrl":"https://madie.cms.gov/Patient/2692f4bd-5abf-4565-873e-7cced05eaece","resource":{"resourceType":"Patient","id":"2692f4bd-5abf-4565-873e-7cced05eaece","meta":{"profile":["http://hl7.org/fhir/us/qicore/StructureDefinition/qicore-patient"]},"text":{"status":"generated","div":"<div xmlns=\"http://www.w3.org/1999/xhtml\"><div class=\"hapiHeaderText\">MedReasonMOLDUHepDOVFP1DayAfICU <b>NUMERPASS </b></div><table class=\"hapiPropertyTable\"><tbody><tr><td>Identifier</td><td>cdd1ec13b77c1be95c04b9f3b51d6649</td></tr><tr><td>Date of birth</td><td><span>02 January 1974</span></td></tr></tbody></table></div>"},"extension":[{"url":"http://hl7.org/fhir/us/core/StructureDefinition/us-core-race","extension":[{"url":"ombCategory","valueCoding":{"system":"urn:oid:2.16.840.1.113883.6.238","code":"1002-5","display":"American Indian or Alaska Native","userSelected":true}},{"url":"text","valueString":"American Indian or Alaska Native"}]},{"url":"http://hl7.org/fhir/us/core/StructureDefinition/us-core-ethnicity","extension":[{"url":"ombCategory","valueCoding":{"system":"urn:oid:2.16.840.1.113883.6.238","code":"2135-2","display":"Hispanic or Latino","userSelected":true}},{"url":"text","valueString":"Hispanic or Latino"}]}],"identifier":[{"type":{"coding":[{"system":"http://terminology.hl7.org/CodeSystem/v2-0203","code":"MR"}]},"system":"https://bonnie-fhir.healthit.gov/","value":"612e6a8402c62a011f2ea3c7"}],"active":true,"name":[{"use":"usual","family":"NUMERPass","given":["MedReasonMOLDUHepDOVFP1DayAfICU"]}],"gender":"male","birthDate":"1975-01-02"},"request":{"method":"PUT","url":"Patient/2692f4bd-5abf-4565-873e-7cced05eaece"}},{"fullUrl":"https://madie.cms.gov/Encounter/e0acdb7b-9733-4d59-b6da-aadb2b3c82f2","resource":{"resourceType":"Encounter","id":"e0acdb7b-9733-4d59-b6da-aadb2b3c82f2","meta":{"profile":["http://hl7.org/fhir/us/qicore/StructureDefinition/qicore-encounter"]},"status":"finished","class":{"system":"http://terminology.hl7.org/CodeSystem/v3-ActCode","code":"IMP","display":"inpatient encounter"},"type":[{"coding":[{"system":"http://snomed.info/sct","code":"8715000"}]}],"subject":{"reference":"Patient/2692f4bd-5abf-4565-873e-7cced05eaece"},"period":{"start":"2026-11-01T08:00:00+00:00","end":"2026-11-26T08:15:00+00:00"},"length":{"value":25.0,"unit":"days"},"location":[{"location":{"reference":"Location/8b55c778-b9f7-419e-827c-6a0bb30d7308"},"period":{"start":"2026-11-03T09:00:00.000+00:00","end":"2026-11-05T08:15:00.000+00:00"}}]},"request":{"method":"PUT","url":"Encounter/e0acdb7b-9733-4d59-b6da-aadb2b3c82f2"}},{"fullUrl":"https://madie.cms.gov/Coverage/5330eeef-ea76-467a-9fda-f033ee0a5baa","resource":{"resourceType":"Coverage","id":"5330eeef-ea76-467a-9fda-f033ee0a5baa","status":"active","beneficiary":{"reference":"Patient/2692f4bd-5abf-4565-873e-7cced05eaece"},"period":{"start":"1975-01-02T08:00:00+00:00"},"payor":[{"reference":"Organization/890316dc-a4ad-43b4-ba6f-9fb9e6eca282"}]},"request":{"method":"PUT","url":"Coverage/5330eeef-ea76-467a-9fda-f033ee0a5baa"}},{"fullUrl":"https://madie.cms.gov/MedicationRequest/89dc8562-4f49-4bc5-b5df-b9ad10ec9803","resource":{"resourceType":"MedicationRequest","id":"89dc8562-4f49-4bc5-b5df-b9ad10ec9803","meta":{"profile":["http://hl7.org/fhir/us/qicore/StructureDefinition/qicore-mednotrequested"]},"status":"completed","intent":"order","category":[{"coding":[{"system":"http://terminology.hl7.org/CodeSystem/medicationrequest-category","code":"community"}]}],"doNotPerform":true,"medicationCodeableConcept":{"coding":[{"system":"http://www.nlm.nih.gov/research/umls/rxnorm","code":"1361574"}]},"subject":{"reference":"Patient/2692f4bd-5abf-4565-873e-7cced05eaece"},"authoredOn":"2026-11-04T09:00:00+00:00","requester":{"reference":"Practitioner/123456"},"reasonCode":[{"coding":[{"system":"http://snomed.info/sct","code":"183932001","display":"Procedure contraindicated (situation)","userSelected":true}]}],"dosageInstruction":[{"timing":{"repeat":{"boundsPeriod":{"start":"2026-11-04T09:00:00+00:00"}}}}]},"request":{"method":"PUT","url":"MedicationRequest/89dc8562-4f49-4bc5-b5df-b9ad10ec9803"}},{"fullUrl":"https://madie.cms.gov/ServiceRequest/950121d6-be3f-4f84-aa57-99b7b4e7dddc","resource":{"resourceType":"ServiceRequest","id":"950121d6-be3f-4f84-aa57-99b7b4e7dddc","meta":{"profile":["http://hl7.org/fhir/us/qicore/StructureDefinition/qicore-servicenotrequested"]},"extension":[{"url":"http://hl7.org/fhir/us/qicore/StructureDefinition/qicore-doNotPerformReason","valueCodeableConcept":{"coding":[{"system":"http://snomed.info/sct","code":"183932001","display":"Procedure contraindicated (situation)"}]}}],"status":"completed","intent":"order","doNotPerform":true,"code":{"coding":[{"system":"http://snomed.info/sct","code":"442023007","display":"Venous foot pump, device (physical object)","userSelected":true}]},"subject":{"reference":"Patient/2692f4bd-5abf-4565-873e-7cced05eaece"},"authoredOn":"2026-11-04T09:00:00+00:00"},"request":{"method":"PUT","url":"ServiceRequest/950121d6-be3f-4f84-aa57-99b7b4e7dddc"}},{"fullUrl":"https://madie.cms.gov/Location/8b55c778-b9f7-419e-827c-6a0bb30d7308","resource":{"resourceType":"Location","id":"8b55c778-b9f7-419e-827c-6a0bb30d7308","meta":{"profile":["http://hl7.org/fhir/us/qicore/StructureDefinition/qicore-location"]},"identifier":[{"use":"usual","system":"http://exampleoflocation.com","value":"B1-S.F2"}],"name":"Medical Surgical East, first floor","type":[{"coding":[{"system":"https://www.cdc.gov/nhsn/cdaportal/terminology/codesystem/hsloc.html","code":"1025-6","display":"Trauma Critical Care","userSelected":true}]}]},"request":{"method":"PUT","url":"Location/8b55c778-b9f7-419e-827c-6a0bb30d7308"}},{"fullUrl":"https://madie.cms.gov/Organization/c1a4746c-3645-47b7-9922-bdd8ea92dd0d","resource":{"resourceType":"Organization","id":"890316dc-a4ad-43b4-ba6f-9fb9e6eca282","meta":{"profile":["http://hl7.org/fhir/us/qicore/StructureDefinition/qicore-organization"]},"identifier":[{"use":"temp","system":"urn:oid:2.16.840.1.113883.4.4","value":"21-3259825"}],"active":true,"type":[{"coding":[{"system":"http://terminology.hl7.org/CodeSystem/organization-type","code":"pay","display":"Payer"}]}],"name":"Blue Cross Blue Shield of Texas","telecom":[{"system":"phone","value":"(+1) 972-766-6900"}],"address":[{"use":"billing","type":"postal","line":["P.O. Box 660044"],"city":"Dallas","state":"TX","postalCode":"75266-0044","country":"USA"}]},"request":{"method":"PUT","url":"Organization/890316dc-a4ad-43b4-ba6f-9fb9e6eca282"}},{"fullUrl":"https://madie.cms.gov/Practitioner/41701628-10be-4eef-8c2e-95717edbdb2a","resource":{"resourceType":"Practitioner","id":"41701628-10be-4eef-8c2e-95717edbdb2a","identifier":[{"system":"http://hl7.org/fhir/sid/us-npi","value":"123456"}],"name":[{"family":"Evil","prefix":["Dr"]}]},"request":{"method":"PUT","url":"Practitioner/41701628-10be-4eef-8c2e-95717edbdb2a"}},{"fullUrl":"https://madie.cms.gov/MeasureReport/4e28e244-8036-4db4-9970-0e865bf2633e","resource":{"resourceType":"MeasureReport","id":"4e28e244-8036-4db4-9970-0e865bf2633e","meta":{"profile":["http://hl7.org/fhir/us/cqfmeasures/StructureDefinition/test-case-cqfm"]},"contained":[{"resourceType":"Parameters","id":"68e3f6c7-5aab-4f7c-b691-f4709aaa716f-parameters","parameter":[{"name":"subject","valueString":"2692f4bd-5abf-4565-873e-7cced05eaece"}]}],"extension":[{"url":"http://hl7.org/fhir/us/cqfmeasures/StructureDefinition/cqfm-inputParameters","valueReference":{"reference":"#68e3f6c7-5aab-4f7c-b691-f4709aaa716f-parameters"}},{"url":"http://hl7.org/fhir/us/cqfmeasures/StructureDefinition/cqfm-testCaseDescription","valueMarkdown":"vfp and unfractionated order not done due to medical reason on 1 day After ICU\n"}],"modifierExtension":[{"url":"http://hl7.org/fhir/us/cqfmeasures/StructureDefinition/cqfm-isTestCase","valueBoolean":true}],"status":"complete","type":"individual","measure":"https://madie.cms.gov/Measure/CMS190VTEProphylaxisICUFHIR","period":{"start":"2026-01-01","end":"2026-12-31"},"group":[{"population":[{"code":{"coding":[{"system":"http://terminology.hl7.org/CodeSystem/measure-population","code":"initial-population","display":"Initial Population"}]},"count":1},{"code":{"coding":[{"system":"http://terminology.hl7.org/CodeSystem/measure-population","code":"denominator","display":"Denominator"}]},"count":1},{"code":{"coding":[{"system":"http://terminology.hl7.org/CodeSystem/measure-population","code":"denominator-exclusion","display":"Denominator Exclusion"}]},"count":0},{"code":{"coding":[{"system":"http://terminology.hl7.org/CodeSystem/measure-population","code":"numerator","display":"Numerator"}]},"count":1},{"code":{"coding":[{"system":"http://terminology.hl7.org/CodeSystem/measure-population","code":"denominator-exception","display":"Denominator Exception"}]},"count":0}]}]},"request":{"method":"PUT","url":"MeasureReport/4e28e244-8036-4db4-9970-0e865bf2633e"}}]}