{"resourceType":"Bundle","id":"tests-2ccdf3cd-9f94-4d9c-ab2a-e78a4dd46876-bundle","type":"transaction","entry":[{"fullUrl":"https://madie.cms.gov/Patient/2ccdf3cd-9f94-4d9c-ab2a-e78a4dd46876","resource":{"resourceType":"Patient","id":"2ccdf3cd-9f94-4d9c-ab2a-e78a4dd46876","meta":{"profile":["http://hl7.org/fhir/us/qicore/StructureDefinition/qicore-patient"]},"text":{"status":"generated","div":"<div xmlns=\"http://www.w3.org/1999/xhtml\"><div class=\"hapiHeaderText\">MedReasonMARix2DaysAfterStartICU <b>NUMERFAIL </b></div><table class=\"hapiPropertyTable\"><tbody><tr><td>Identifier</td><td>9171ed8e3c126b0a718e996cdf49d57a</td></tr><tr><td>Date of birth</td><td><span>03 March 1974</span></td></tr></tbody></table></div>"},"extension":[{"url":"http://hl7.org/fhir/us/core/StructureDefinition/us-core-race","extension":[{"url":"ombCategory","valueCoding":{"system":"urn:oid:2.16.840.1.113883.6.238","code":"1002-5","display":"American Indian or Alaska Native","userSelected":true}},{"url":"text","valueString":"American Indian or Alaska Native"}]},{"url":"http://hl7.org/fhir/us/core/StructureDefinition/us-core-ethnicity","extension":[{"url":"ombCategory","valueCoding":{"system":"urn:oid:2.16.840.1.113883.6.238","code":"2135-2","display":"Hispanic or Latino","userSelected":true}},{"url":"text","valueString":"Hispanic or Latino"}]}],"identifier":[{"type":{"coding":[{"system":"http://terminology.hl7.org/CodeSystem/v2-0203","code":"MR"}]},"system":"https://bonnie-fhir.healthit.gov/","value":"612e6f2202c62a011f2f0cb3"}],"active":true,"name":[{"use":"usual","family":"NUMERFail","given":["MedReasonMARix2DaysAfterStartICU"]}],"gender":"female","birthDate":"1975-03-03"},"request":{"method":"PUT","url":"Patient/2ccdf3cd-9f94-4d9c-ab2a-e78a4dd46876"}},{"fullUrl":"https://madie.cms.gov/Encounter/aa76e80d-6719-4fb6-82c3-1bf19bb92a53","resource":{"resourceType":"Encounter","id":"aa76e80d-6719-4fb6-82c3-1bf19bb92a53","meta":{"profile":["http://hl7.org/fhir/us/qicore/StructureDefinition/qicore-encounter"]},"status":"finished","class":{"system":"http://terminology.hl7.org/CodeSystem/v3-ActCode","code":"IMP","display":"inpatient encounter"},"type":[{"coding":[{"system":"http://snomed.info/sct","code":"8715000"}]}],"subject":{"reference":"Patient/2ccdf3cd-9f94-4d9c-ab2a-e78a4dd46876"},"period":{"start":"2026-12-01T00:00:00+00:00","end":"2026-12-31T23:59:00+00:00"},"length":{"value":30.0,"unit":"days"},"location":[{"location":{"reference":"Location/0919aac4-81ca-44d3-9deb-fbbe8434c203"},"period":{"start":"2026-12-01T00:01:00.000+00:00","end":"2026-12-15T23:59:00.000+00:00"}}]},"request":{"method":"PUT","url":"Encounter/aa76e80d-6719-4fb6-82c3-1bf19bb92a53"}},{"fullUrl":"https://madie.cms.gov/Encounter/2359644a-0c62-40c9-b508-66a2f77754ea","resource":{"resourceType":"Encounter","id":"2359644a-0c62-40c9-b508-66a2f77754ea","meta":{"profile":["http://hl7.org/fhir/us/qicore/StructureDefinition/qicore-encounter"]},"status":"finished","class":{"system":"http://terminology.hl7.org/CodeSystem/v3-ActCode","code":"IMP","display":"inpatient encounter"},"type":[{"coding":[{"system":"http://snomed.info/sct","code":"183446009"}]}],"subject":{"reference":"Patient/2ccdf3cd-9f94-4d9c-ab2a-e78a4dd46876"},"period":{"start":"2026-12-22T00:00:00+00:00","end":"2026-12-31T23:59:00+00:00"},"length":{"value":9.0,"unit":"days"}},"request":{"method":"PUT","url":"Encounter/2359644a-0c62-40c9-b508-66a2f77754ea"}},{"fullUrl":"https://madie.cms.gov/Coverage/990b918f-3888-49de-91b3-aeff3a582d3c","resource":{"resourceType":"Coverage","id":"990b918f-3888-49de-91b3-aeff3a582d3c","status":"active","beneficiary":{"reference":"Patient/2ccdf3cd-9f94-4d9c-ab2a-e78a4dd46876"},"period":{"start":"1975-03-03T08:00:00+00:00"},"payor":[{"reference":"Organization/db141f66-a1cc-407b-9e95-adac27adee14"}]},"request":{"method":"PUT","url":"Coverage/990b918f-3888-49de-91b3-aeff3a582d3c"}},{"fullUrl":"https://madie.cms.gov/MedicationAdministration/95f5aa20-3d47-4fde-a6dc-f4de344cb4ea","resource":{"resourceType":"MedicationAdministration","id":"95f5aa20-3d47-4fde-a6dc-f4de344cb4ea","meta":{"profile":["http://hl7.org/fhir/us/qicore/StructureDefinition/qicore-mednotadministered"]},"extension":[{"url":"http://hl7.org/fhir/us/qicore/StructureDefinition/qicore-recorded","valueDateTime":"2026-12-03T07:00:00+00:00"}],"status":"not-done","statusReason":[{"coding":[{"system":"http://snomed.info/sct","code":"183932001","display":"Procedure contraindicated (situation)","userSelected":true}]}],"medicationCodeableConcept":{"coding":[{"system":"http://www.nlm.nih.gov/research/umls/rxnorm","code":"2588062","display":"rivaroxaban 1 MG/ML Oral Suspension"}]},"subject":{"reference":"Patient/2ccdf3cd-9f94-4d9c-ab2a-e78a4dd46876"},"effectivePeriod":{"start":"2026-12-03T00:00:00+00:00"}},"request":{"method":"PUT","url":"MedicationAdministration/95f5aa20-3d47-4fde-a6dc-f4de344cb4ea"}},{"fullUrl":"https://madie.cms.gov/Location/0919aac4-81ca-44d3-9deb-fbbe8434c203","resource":{"resourceType":"Location","id":"0919aac4-81ca-44d3-9deb-fbbe8434c203","meta":{"profile":["http://hl7.org/fhir/us/qicore/StructureDefinition/qicore-location"]},"identifier":[{"use":"usual","system":"http://exampleoflocation.com","value":"B1-S.F2"}],"name":"Medical Surgical East, first floor","type":[{"coding":[{"system":"https://www.cdc.gov/nhsn/cdaportal/terminology/codesystem/hsloc.html","code":"1025-6","display":"Trauma Critical Care","userSelected":true}]}]},"request":{"method":"PUT","url":"Location/0919aac4-81ca-44d3-9deb-fbbe8434c203"}},{"fullUrl":"https://madie.cms.gov/Organization/ef4a607b-2ab3-4f0f-8346-f8ea20195d52","resource":{"resourceType":"Organization","id":"db141f66-a1cc-407b-9e95-adac27adee14","meta":{"profile":["http://hl7.org/fhir/us/qicore/StructureDefinition/qicore-organization"]},"identifier":[{"use":"temp","system":"urn:oid:2.16.840.1.113883.4.4","value":"21-3259825"}],"active":true,"type":[{"coding":[{"system":"http://terminology.hl7.org/CodeSystem/organization-type","code":"pay","display":"Payer"}]}],"name":"Blue Cross Blue Shield of Texas","telecom":[{"system":"phone","value":"(+1) 972-766-6900"}],"address":[{"use":"billing","type":"postal","line":["P.O. Box 660044"],"city":"Dallas","state":"TX","postalCode":"75266-0044","country":"USA"}]},"request":{"method":"PUT","url":"Organization/db141f66-a1cc-407b-9e95-adac27adee14"}},{"fullUrl":"https://madie.cms.gov/Practitioner/9ba7db6f-df81-4da1-b9b7-94506b00fa27","resource":{"resourceType":"Practitioner","id":"9ba7db6f-df81-4da1-b9b7-94506b00fa27","identifier":[{"system":"http://hl7.org/fhir/sid/us-npi","value":"123456"}],"name":[{"family":"Evil","prefix":["Dr"]}]},"request":{"method":"PUT","url":"Practitioner/9ba7db6f-df81-4da1-b9b7-94506b00fa27"}},{"fullUrl":"https://madie.cms.gov/MeasureReport/716c498f-bc4f-4bc7-9148-0366fc15b277","resource":{"resourceType":"MeasureReport","id":"716c498f-bc4f-4bc7-9148-0366fc15b277","meta":{"profile":["http://hl7.org/fhir/us/cqfmeasures/StructureDefinition/test-case-cqfm"]},"contained":[{"resourceType":"Parameters","id":"a1b58e39-e7b3-48de-96f7-5857b71f6cfb-parameters","parameter":[{"name":"subject","valueString":"2ccdf3cd-9f94-4d9c-ab2a-e78a4dd46876"}]}],"extension":[{"url":"http://hl7.org/fhir/us/cqfmeasures/StructureDefinition/cqfm-inputParameters","valueReference":{"reference":"#a1b58e39-e7b3-48de-96f7-5857b71f6cfb-parameters"}},{"url":"http://hl7.org/fhir/us/cqfmeasures/StructureDefinition/cqfm-testCaseDescription","valueMarkdown":"Rivaroxaban  for VTE Prophylaxis was administered \n 2 days after ICU admission, no anesthesia.\n"}],"modifierExtension":[{"url":"http://hl7.org/fhir/us/cqfmeasures/StructureDefinition/cqfm-isTestCase","valueBoolean":true}],"status":"complete","type":"individual","measure":"https://madie.cms.gov/Measure/CMS190VTEProphylaxisICUFHIR","period":{"start":"2026-01-01","end":"2026-12-31"},"group":[{"population":[{"code":{"coding":[{"system":"http://terminology.hl7.org/CodeSystem/measure-population","code":"initial-population","display":"Initial Population"}]},"count":1},{"code":{"coding":[{"system":"http://terminology.hl7.org/CodeSystem/measure-population","code":"denominator","display":"Denominator"}]},"count":1},{"code":{"coding":[{"system":"http://terminology.hl7.org/CodeSystem/measure-population","code":"denominator-exclusion","display":"Denominator Exclusion"}]},"count":0},{"code":{"coding":[{"system":"http://terminology.hl7.org/CodeSystem/measure-population","code":"numerator","display":"Numerator"}]},"count":0},{"code":{"coding":[{"system":"http://terminology.hl7.org/CodeSystem/measure-population","code":"denominator-exception","display":"Denominator Exception"}]},"count":0}]}]},"request":{"method":"PUT","url":"MeasureReport/716c498f-bc4f-4bc7-9148-0366fc15b277"}}]}