{"resourceType":"Bundle","id":"tests-053aa057-4a08-4894-8bf9-e80c4e27a3d8-bundle","type":"transaction","entry":[{"fullUrl":"https://madie.cms.gov/Patient/053aa057-4a08-4894-8bf9-e80c4e27a3d8","resource":{"resourceType":"Patient","id":"053aa057-4a08-4894-8bf9-e80c4e27a3d8","meta":{"profile":["http://hl7.org/fhir/us/qicore/StructureDefinition/qicore-patient"]},"text":{"status":"generated","div":"<div xmlns=\"http://www.w3.org/1999/xhtml\"><div class=\"hapiHeaderText\">GYNSurgeryLT1DayAfterICUStartRank2 <b>DENEXFAIL </b></div><table class=\"hapiPropertyTable\"><tbody><tr><td>Identifier</td><td>c86bf4d45e0ace80da93806dc6ebb45b</td></tr><tr><td>Date of birth</td><td><span>03 March 1960</span></td></tr></tbody></table></div>"},"extension":[{"url":"http://hl7.org/fhir/us/core/StructureDefinition/us-core-race","extension":[{"url":"ombCategory","valueCoding":{"system":"urn:oid:2.16.840.1.113883.6.238","code":"1002-5","display":"American Indian or Alaska Native","userSelected":true}},{"url":"text","valueString":"American Indian or Alaska Native"}]},{"url":"http://hl7.org/fhir/us/core/StructureDefinition/us-core-ethnicity","extension":[{"url":"ombCategory","valueCoding":{"system":"urn:oid:2.16.840.1.113883.6.238","code":"2135-2","display":"Hispanic or Latino","userSelected":true}},{"url":"text","valueString":"Hispanic or Latino"}]}],"identifier":[{"type":{"coding":[{"system":"http://terminology.hl7.org/CodeSystem/v2-0203","code":"MR"}]},"system":"https://bonnie-fhir.healthit.gov/","value":"612e6f7a02c62a011f2f1fa5"}],"active":true,"name":[{"use":"usual","family":"DENEXFail","given":["GYNSurgeryLT1DayAfterICUStartRank2"]}],"gender":"female","birthDate":"1961-03-03"},"request":{"method":"PUT","url":"Patient/053aa057-4a08-4894-8bf9-e80c4e27a3d8"}},{"fullUrl":"https://madie.cms.gov/Encounter/1e50b233-408e-4ebb-8e7d-ae92bb359a65","resource":{"resourceType":"Encounter","id":"1e50b233-408e-4ebb-8e7d-ae92bb359a65","meta":{"profile":["http://hl7.org/fhir/us/qicore/StructureDefinition/qicore-encounter"]},"extension":[{"url":"http://hl7.org/fhir/us/qicore/StructureDefinition/qicore-encounter-procedure","extension":[{"url":"type","valueCodeableConcept":{"coding":[{"system":"http://www.cms.gov/Medicare/Coding/ICD10","code":"0U558ZZ"}]}},{"url":"rank","valuePositiveInt":2},{"url":"procedure","valueReference":{"reference":"Procedure/1a4579ab-e03f-4902-8d3e-d5b56875aa1a"}}]}],"status":"finished","class":{"system":"http://terminology.hl7.org/CodeSystem/v3-ActCode","code":"IMP","display":"inpatient encounter"},"type":[{"coding":[{"system":"http://snomed.info/sct","code":"8715000"}]}],"subject":{"reference":"Patient/053aa057-4a08-4894-8bf9-e80c4e27a3d8"},"period":{"start":"2026-12-04T08:00:00+00:00","end":"2026-12-30T08:15:00+00:00"},"length":{"value":26.0,"unit":"days"},"location":[{"location":{"reference":"Location/81c0f5ad-117a-4abe-a335-6f8a7a11bddf"},"period":{"start":"2026-12-06T08:00:00.000+00:00","end":"2026-12-08T08:15:00.000+00:00"}}]},"request":{"method":"PUT","url":"Encounter/1e50b233-408e-4ebb-8e7d-ae92bb359a65"}},{"fullUrl":"https://madie.cms.gov/Coverage/473a6e7c-d756-4838-93d1-fe2f8c54668d","resource":{"resourceType":"Coverage","id":"473a6e7c-d756-4838-93d1-fe2f8c54668d","status":"active","beneficiary":{"reference":"Patient/053aa057-4a08-4894-8bf9-e80c4e27a3d8"},"period":{"start":"1975-03-03T08:00:00+00:00"},"payor":[{"reference":"Organization/e75793c9-fdf6-463a-8c1d-4ee44320dc25"}]},"request":{"method":"PUT","url":"Coverage/473a6e7c-d756-4838-93d1-fe2f8c54668d"}},{"fullUrl":"https://madie.cms.gov/Procedure/1a4579ab-e03f-4902-8d3e-d5b56875aa1a","resource":{"resourceType":"Procedure","id":"1a4579ab-e03f-4902-8d3e-d5b56875aa1a","meta":{"profile":["http://hl7.org/fhir/us/qicore/StructureDefinition/qicore-procedure"]},"extension":[{"url":"http://hl7.org/fhir/us/qicore/StructureDefinition/qicore-recorded","valueDateTime":"2013-12-07T09:35:00-04:00"}],"status":"completed","code":{"coding":[{"system":"http://www.cms.gov/Medicare/Coding/ICD10","code":"0U500ZZ"}]},"subject":{"reference":"Patient/053aa057-4a08-4894-8bf9-e80c4e27a3d8"},"performedPeriod":{"start":"2026-12-06T08:15:00+00:00","end":"2026-12-06T11:15:00+00:00"}},"request":{"method":"PUT","url":"Procedure/1a4579ab-e03f-4902-8d3e-d5b56875aa1a"}},{"fullUrl":"https://madie.cms.gov/Location/81c0f5ad-117a-4abe-a335-6f8a7a11bddf","resource":{"resourceType":"Location","id":"81c0f5ad-117a-4abe-a335-6f8a7a11bddf","meta":{"profile":["http://hl7.org/fhir/us/qicore/StructureDefinition/qicore-location"]},"identifier":[{"use":"usual","system":"http://exampleoflocation.com","value":"B1-S.F2"}],"name":"Medical Surgical East, first floor","type":[{"coding":[{"system":"https://www.cdc.gov/nhsn/cdaportal/terminology/codesystem/hsloc.html","code":"1025-6","display":"Trauma Critical Care","userSelected":true}]}]},"request":{"method":"PUT","url":"Location/81c0f5ad-117a-4abe-a335-6f8a7a11bddf"}},{"fullUrl":"https://madie.cms.gov/Organization/2d536ad9-449e-4ce8-981a-8b7907ed90b7","resource":{"resourceType":"Organization","id":"e75793c9-fdf6-463a-8c1d-4ee44320dc25","meta":{"profile":["http://hl7.org/fhir/us/qicore/StructureDefinition/qicore-organization"]},"identifier":[{"use":"temp","system":"urn:oid:2.16.840.1.113883.4.4","value":"21-3259825"}],"active":true,"type":[{"coding":[{"system":"http://terminology.hl7.org/CodeSystem/organization-type","code":"pay","display":"Payer"}]}],"name":"Blue Cross Blue Shield of Texas","telecom":[{"system":"phone","value":"(+1) 972-766-6900"}],"address":[{"use":"billing","type":"postal","line":["P.O. Box 660044"],"city":"Dallas","state":"TX","postalCode":"75266-0044","country":"USA"}]},"request":{"method":"PUT","url":"Organization/e75793c9-fdf6-463a-8c1d-4ee44320dc25"}},{"fullUrl":"https://madie.cms.gov/Practitioner/ec21cffd-978b-49dc-a17e-31b2ed350e23","resource":{"resourceType":"Practitioner","id":"ec21cffd-978b-49dc-a17e-31b2ed350e23","identifier":[{"system":"http://hl7.org/fhir/sid/us-npi","value":"123456"}],"name":[{"family":"Evil","prefix":["Dr"]}]},"request":{"method":"PUT","url":"Practitioner/ec21cffd-978b-49dc-a17e-31b2ed350e23"}},{"fullUrl":"https://madie.cms.gov/MeasureReport/55a9b69e-4556-40aa-8658-9e261f103c20","resource":{"resourceType":"MeasureReport","id":"55a9b69e-4556-40aa-8658-9e261f103c20","meta":{"profile":["http://hl7.org/fhir/us/cqfmeasures/StructureDefinition/test-case-cqfm"]},"contained":[{"resourceType":"Parameters","id":"51cdb6eb-ad1a-45a5-ae0d-302c5acbdc33-parameters","parameter":[{"name":"subject","valueString":"053aa057-4a08-4894-8bf9-e80c4e27a3d8"}]}],"extension":[{"url":"http://hl7.org/fhir/us/cqfmeasures/StructureDefinition/cqfm-inputParameters","valueReference":{"reference":"#51cdb6eb-ad1a-45a5-ae0d-302c5acbdc33-parameters"}},{"url":"http://hl7.org/fhir/us/cqfmeasures/StructureDefinition/cqfm-testCaseDescription","valueMarkdown":"gynecological surgery ends same day after start of ICU admission. But rank =2 (rank-0 is invalid value in QIcore)\n"}],"modifierExtension":[{"url":"http://hl7.org/fhir/us/cqfmeasures/StructureDefinition/cqfm-isTestCase","valueBoolean":true}],"status":"complete","type":"individual","measure":"https://madie.cms.gov/Measure/CMS190VTEProphylaxisICUFHIR","period":{"start":"2026-01-01","end":"2026-12-31"},"group":[{"population":[{"code":{"coding":[{"system":"http://terminology.hl7.org/CodeSystem/measure-population","code":"initial-population","display":"Initial Population"}]},"count":1},{"code":{"coding":[{"system":"http://terminology.hl7.org/CodeSystem/measure-population","code":"denominator","display":"Denominator"}]},"count":1},{"code":{"coding":[{"system":"http://terminology.hl7.org/CodeSystem/measure-population","code":"denominator-exclusion","display":"Denominator Exclusion"}]},"count":0},{"code":{"coding":[{"system":"http://terminology.hl7.org/CodeSystem/measure-population","code":"numerator","display":"Numerator"}]},"count":0},{"code":{"coding":[{"system":"http://terminology.hl7.org/CodeSystem/measure-population","code":"denominator-exception","display":"Denominator Exception"}]},"count":0}]}]},"request":{"method":"PUT","url":"MeasureReport/55a9b69e-4556-40aa-8658-9e261f103c20"}}]}