{"resourceType":"Bundle","id":"tests-3d5a301e-9a14-41d1-8d09-dda738cc761e-bundle","type":"transaction","entry":[{"fullUrl":"https://madie.cms.gov/Patient/3d5a301e-9a14-41d1-8d09-dda738cc761e","resource":{"resourceType":"Patient","id":"3d5a301e-9a14-41d1-8d09-dda738cc761e","meta":{"profile":["http://hl7.org/fhir/us/qicore/StructureDefinition/qicore-patient"]},"text":{"status":"generated","div":"<div xmlns=\"http://www.w3.org/1999/xhtml\"><div class=\"hapiHeaderText\">EncDxObstetrics <b>IPFAIL </b></div><table class=\"hapiPropertyTable\"><tbody><tr><td>Identifier</td><td>73dfd43c47660281c0a5408728e85897</td></tr><tr><td>Date of birth</td><td><span>03 March 1974</span></td></tr></tbody></table></div>"},"extension":[{"url":"http://hl7.org/fhir/us/core/StructureDefinition/us-core-race","extension":[{"url":"ombCategory","valueCoding":{"system":"urn:oid:2.16.840.1.113883.6.238","code":"1002-5","display":"American Indian or Alaska Native","userSelected":true}},{"url":"text","valueString":"American Indian or Alaska Native"}]},{"url":"http://hl7.org/fhir/us/core/StructureDefinition/us-core-ethnicity","extension":[{"url":"ombCategory","valueCoding":{"system":"urn:oid:2.16.840.1.113883.6.238","code":"2186-5","display":"Not Hispanic or Latino","userSelected":true}},{"url":"text","valueString":"Not Hispanic or Latino"}]}],"identifier":[{"type":{"coding":[{"system":"http://terminology.hl7.org/CodeSystem/v2-0203","code":"MR"}]},"system":"https://bonnie-fhir.healthit.gov/","value":"612e6f1402c62a011f2f0ad8"}],"active":true,"name":[{"use":"usual","family":"IPFail","given":["EncDxObstetrics"]}],"gender":"female","birthDate":"1975-03-03"},"request":{"method":"PUT","url":"Patient/3d5a301e-9a14-41d1-8d09-dda738cc761e"}},{"fullUrl":"https://madie.cms.gov/Encounter/655facdb-092f-4fbd-8a79-1c0e2fc57ba9","resource":{"resourceType":"Encounter","id":"655facdb-092f-4fbd-8a79-1c0e2fc57ba9","meta":{"profile":["http://hl7.org/fhir/us/qicore/StructureDefinition/qicore-encounter"]},"status":"finished","class":{"system":"http://terminology.hl7.org/CodeSystem/v3-ActCode","code":"IMP","display":"inpatient encounter"},"type":[{"coding":[{"system":"http://snomed.info/sct","code":"8715000"}]}],"subject":{"reference":"Patient/3d5a301e-9a14-41d1-8d09-dda738cc761e"},"period":{"start":"2026-12-04T08:00:00+00:00","end":"2026-12-30T08:15:00+00:00"},"length":{"value":26.0,"unit":"days"},"diagnosis":[{"condition":{"reference":"Condition/e3d5356a-0654-419d-a3c3-c5be002524f3"}}],"location":[{"location":{"reference":"Location/42305b65-a1d9-41cc-a022-7bec6b2284a9"},"period":{"start":"2026-12-06T08:00:00.000+00:00","end":"2026-12-08T08:15:00.000+00:00"}}]},"request":{"method":"PUT","url":"Encounter/655facdb-092f-4fbd-8a79-1c0e2fc57ba9"}},{"fullUrl":"https://madie.cms.gov/Coverage/e40ccd9e-04e1-455c-a4b4-2d2a6b944c11","resource":{"resourceType":"Coverage","id":"e40ccd9e-04e1-455c-a4b4-2d2a6b944c11","status":"active","beneficiary":{"reference":"Patient/3d5a301e-9a14-41d1-8d09-dda738cc761e"},"period":{"start":"1975-03-03T08:00:00+00:00"},"payor":[{"reference":"Organization/607fdef9-3983-4cef-ab1a-95434d29b463"}]},"request":{"method":"PUT","url":"Coverage/e40ccd9e-04e1-455c-a4b4-2d2a6b944c11"}},{"fullUrl":"https://madie.cms.gov/Condition/e3d5356a-0654-419d-a3c3-c5be002524f3","resource":{"resourceType":"Condition","id":"e3d5356a-0654-419d-a3c3-c5be002524f3","meta":{"profile":["http://hl7.org/fhir/us/qicore/StructureDefinition/qicore-condition"]},"category":[{"coding":[{"system":"http://terminology.hl7.org/CodeSystem/condition-category","code":"encounter-diagnosis","display":"Encounter Diagnosis"}]}],"code":{"coding":[{"system":"http://snomed.info/sct","code":"1001000119102","display":"Pulmonary embolism with pulmonary infarction (disorder)","userSelected":true}]},"subject":{"reference":"Patient/3d5a301e-9a14-41d1-8d09-dda738cc761e"},"recordedDate":"2026-09-09T08:00:00.000+00:00"},"request":{"method":"PUT","url":"Condition/e3d5356a-0654-419d-a3c3-c5be002524f3"}},{"fullUrl":"https://madie.cms.gov/Location/42305b65-a1d9-41cc-a022-7bec6b2284a9","resource":{"resourceType":"Location","id":"42305b65-a1d9-41cc-a022-7bec6b2284a9","meta":{"profile":["http://hl7.org/fhir/us/qicore/StructureDefinition/qicore-location"]},"identifier":[{"use":"usual","system":"http://exampleoflocation.com","value":"B1-S.F2"}],"name":"Medical Surgical East, first floor","type":[{"coding":[{"system":"https://www.cdc.gov/nhsn/cdaportal/terminology/codesystem/hsloc.html","code":"1025-6","display":"Trauma Critical Care","userSelected":true}]}]},"request":{"method":"PUT","url":"Location/42305b65-a1d9-41cc-a022-7bec6b2284a9"}},{"fullUrl":"https://madie.cms.gov/Organization/67f9cedb-d2e4-4290-8c15-1135df74a90b","resource":{"resourceType":"Organization","id":"607fdef9-3983-4cef-ab1a-95434d29b463","meta":{"profile":["http://hl7.org/fhir/us/qicore/StructureDefinition/qicore-organization"]},"identifier":[{"use":"temp","system":"urn:oid:2.16.840.1.113883.4.4","value":"21-3259825"}],"active":true,"type":[{"coding":[{"system":"http://terminology.hl7.org/CodeSystem/organization-type","code":"pay","display":"Payer"}]}],"name":"Blue Cross Blue Shield of Texas","telecom":[{"system":"phone","value":"(+1) 972-766-6900"}],"address":[{"use":"billing","type":"postal","line":["P.O. Box 660044"],"city":"Dallas","state":"TX","postalCode":"75266-0044","country":"USA"}]},"request":{"method":"PUT","url":"Organization/607fdef9-3983-4cef-ab1a-95434d29b463"}},{"fullUrl":"https://madie.cms.gov/Practitioner/d6420a09-94c8-40c8-9868-f8f8f9b84b1d","resource":{"resourceType":"Practitioner","id":"d6420a09-94c8-40c8-9868-f8f8f9b84b1d","identifier":[{"system":"http://hl7.org/fhir/sid/us-npi","value":"123456"}],"name":[{"family":"Evil","prefix":["Dr"]}]},"request":{"method":"PUT","url":"Practitioner/d6420a09-94c8-40c8-9868-f8f8f9b84b1d"}},{"fullUrl":"https://madie.cms.gov/MeasureReport/06c4fc48-e7a0-4201-82af-22b65358c290","resource":{"resourceType":"MeasureReport","id":"06c4fc48-e7a0-4201-82af-22b65358c290","meta":{"profile":["http://hl7.org/fhir/us/cqfmeasures/StructureDefinition/test-case-cqfm"]},"contained":[{"resourceType":"Parameters","id":"bcbeff3e-2114-413b-8f26-585de2756832-parameters","parameter":[{"name":"subject","valueString":"3d5a301e-9a14-41d1-8d09-dda738cc761e"}]}],"extension":[{"url":"http://hl7.org/fhir/us/cqfmeasures/StructureDefinition/cqfm-inputParameters","valueReference":{"reference":"#bcbeff3e-2114-413b-8f26-585de2756832-parameters"}},{"url":"http://hl7.org/fhir/us/cqfmeasures/StructureDefinition/cqfm-testCaseDescription","valueMarkdown":"Encounter Dx of VTE\n"}],"modifierExtension":[{"url":"http://hl7.org/fhir/us/cqfmeasures/StructureDefinition/cqfm-isTestCase","valueBoolean":true}],"status":"complete","type":"individual","measure":"https://madie.cms.gov/Measure/CMS190VTEProphylaxisICUFHIR","period":{"start":"2026-01-01","end":"2026-12-31"},"group":[{"population":[{"code":{"coding":[{"system":"http://terminology.hl7.org/CodeSystem/measure-population","code":"initial-population","display":"Initial Population"}]},"count":0},{"code":{"coding":[{"system":"http://terminology.hl7.org/CodeSystem/measure-population","code":"denominator","display":"Denominator"}]},"count":0},{"code":{"coding":[{"system":"http://terminology.hl7.org/CodeSystem/measure-population","code":"denominator-exclusion","display":"Denominator Exclusion"}]},"count":0},{"code":{"coding":[{"system":"http://terminology.hl7.org/CodeSystem/measure-population","code":"numerator","display":"Numerator"}]},"count":0},{"code":{"coding":[{"system":"http://terminology.hl7.org/CodeSystem/measure-population","code":"denominator-exception","display":"Denominator Exception"}]},"count":0}]}]},"request":{"method":"PUT","url":"MeasureReport/06c4fc48-e7a0-4201-82af-22b65358c290"}}]}