{"resourceType":"Bundle","id":"tests-4c60f97c-0043-445c-8bc0-feb3122ca35b-bundle","type":"transaction","entry":[{"fullUrl":"https://madie.cms.gov/Patient/4c60f97c-0043-445c-8bc0-feb3122ca35b","resource":{"resourceType":"Patient","id":"4c60f97c-0043-445c-8bc0-feb3122ca35b","meta":{"profile":["http://hl7.org/fhir/us/qicore/StructureDefinition/qicore-patient"]},"text":{"status":"generated","div":"<div xmlns=\"http://www.w3.org/1999/xhtml\"><div class=\"hapiHeaderText\">HipFxNotPrin <b>DENEXFAIL </b></div><table class=\"hapiPropertyTable\"><tbody><tr><td>Identifier</td><td>31862da5e01d3c5e5400146c9a207dfa</td></tr><tr><td>Date of birth</td><td><span>03 March 1974</span></td></tr></tbody></table></div>"},"extension":[{"url":"http://hl7.org/fhir/us/core/StructureDefinition/us-core-race","extension":[{"url":"ombCategory","valueCoding":{"system":"urn:oid:2.16.840.1.113883.6.238","code":"1002-5","display":"American Indian or Alaska Native","userSelected":true}},{"url":"text","valueString":"American Indian or Alaska Native"}]},{"url":"http://hl7.org/fhir/us/core/StructureDefinition/us-core-ethnicity","extension":[{"url":"ombCategory","valueCoding":{"system":"urn:oid:2.16.840.1.113883.6.238","code":"2135-2","display":"Hispanic or Latino","userSelected":true}},{"url":"text","valueString":"Hispanic or Latino"}]}],"identifier":[{"type":{"coding":[{"system":"http://terminology.hl7.org/CodeSystem/v2-0203","code":"MR"}]},"system":"https://bonnie-fhir.healthit.gov/","value":"612e6e9302c62a011f2eee8b"}],"active":true,"name":[{"use":"usual","family":"DENEXFail","given":["HipFxNotPrin"]}],"gender":"female","birthDate":"1975-03-03"},"request":{"method":"PUT","url":"Patient/4c60f97c-0043-445c-8bc0-feb3122ca35b"}},{"fullUrl":"https://madie.cms.gov/Encounter/71592533-70eb-4906-8fb5-dea8d7e58b29","resource":{"resourceType":"Encounter","id":"71592533-70eb-4906-8fb5-dea8d7e58b29","meta":{"profile":["http://hl7.org/fhir/us/qicore/StructureDefinition/qicore-encounter"]},"status":"finished","class":{"system":"http://terminology.hl7.org/CodeSystem/v3-ActCode","code":"IMP","display":"inpatient encounter"},"type":[{"coding":[{"system":"http://snomed.info/sct","code":"8715000"}]}],"subject":{"reference":"Patient/4c60f97c-0043-445c-8bc0-feb3122ca35b"},"period":{"start":"2026-12-04T08:00:00+00:00","end":"2026-12-30T08:15:00+00:00"},"length":{"value":26.0,"unit":"days"},"location":[{"location":{"reference":"Location/e572118c-ae1c-4295-bdfb-8f649afbe466"},"period":{"start":"2026-12-06T08:00:00.000+00:00","end":"2026-12-08T08:15:00.000+00:00"}}]},"request":{"method":"PUT","url":"Encounter/71592533-70eb-4906-8fb5-dea8d7e58b29"}},{"fullUrl":"https://madie.cms.gov/Coverage/abecc4fc-6464-4440-9bf3-b60a799f38cf","resource":{"resourceType":"Coverage","id":"abecc4fc-6464-4440-9bf3-b60a799f38cf","status":"active","beneficiary":{"reference":"Patient/4c60f97c-0043-445c-8bc0-feb3122ca35b"},"period":{"start":"1975-03-03T08:00:00+00:00"},"payor":[{"reference":"Organization/890316dc-a4ad-43b4-ba6f-9fb9e6eca282"}]},"request":{"method":"PUT","url":"Coverage/abecc4fc-6464-4440-9bf3-b60a799f38cf"}},{"fullUrl":"https://madie.cms.gov/Procedure/882a0d5d-7697-4490-84eb-d45880c6c23c","resource":{"resourceType":"Procedure","id":"882a0d5d-7697-4490-84eb-d45880c6c23c","meta":{"profile":["http://hl7.org/fhir/us/qicore/StructureDefinition/qicore-procedure"]},"extension":[{"url":"http://hl7.org/fhir/us/qicore/StructureDefinition/qicore-recorded","valueDateTime":"2013-12-06T09:35:00-04:00"}],"status":"completed","code":{"coding":[{"system":"http://www.cms.gov/Medicare/Coding/ICD10","code":"0SQ90ZZ"}]},"subject":{"reference":"Patient/4c60f97c-0043-445c-8bc0-feb3122ca35b"},"performedPeriod":{"start":"2026-12-06T08:15:00+00:00","end":"2026-12-06T11:15:00+00:00"}},"request":{"method":"PUT","url":"Procedure/882a0d5d-7697-4490-84eb-d45880c6c23c"}},{"fullUrl":"https://madie.cms.gov/Location/e572118c-ae1c-4295-bdfb-8f649afbe466","resource":{"resourceType":"Location","id":"e572118c-ae1c-4295-bdfb-8f649afbe466","meta":{"profile":["http://hl7.org/fhir/us/qicore/StructureDefinition/qicore-location"]},"identifier":[{"use":"usual","system":"http://exampleoflocation.com","value":"B1-S.F2"}],"name":"Medical Surgical East, first floor","type":[{"coding":[{"system":"https://www.cdc.gov/nhsn/cdaportal/terminology/codesystem/hsloc.html","code":"1025-6","display":"Trauma Critical Care","userSelected":true}]}]},"request":{"method":"PUT","url":"Location/e572118c-ae1c-4295-bdfb-8f649afbe466"}},{"fullUrl":"https://madie.cms.gov/Organization/2eb722cb-6c1d-46fb-aaf2-afd9e6eebd01","resource":{"resourceType":"Organization","id":"890316dc-a4ad-43b4-ba6f-9fb9e6eca282","meta":{"profile":["http://hl7.org/fhir/us/qicore/StructureDefinition/qicore-organization"]},"identifier":[{"use":"temp","system":"urn:oid:2.16.840.1.113883.4.4","value":"21-3259825"}],"active":true,"type":[{"coding":[{"system":"http://terminology.hl7.org/CodeSystem/organization-type","code":"pay","display":"Payer"}]}],"name":"Blue Cross Blue Shield of Texas","telecom":[{"system":"phone","value":"(+1) 972-766-6900"}],"address":[{"use":"billing","type":"postal","line":["P.O. Box 660044"],"city":"Dallas","state":"TX","postalCode":"75266-0044","country":"USA"}]},"request":{"method":"PUT","url":"Organization/890316dc-a4ad-43b4-ba6f-9fb9e6eca282"}},{"fullUrl":"https://madie.cms.gov/Practitioner/4d61748c-01f2-4565-a97c-537fa74b0de7","resource":{"resourceType":"Practitioner","id":"4d61748c-01f2-4565-a97c-537fa74b0de7","identifier":[{"system":"http://hl7.org/fhir/sid/us-npi","value":"123456"}],"name":[{"family":"Evil","prefix":["Dr"]}]},"request":{"method":"PUT","url":"Practitioner/4d61748c-01f2-4565-a97c-537fa74b0de7"}},{"fullUrl":"https://madie.cms.gov/MeasureReport/dad4a66f-7e81-4307-83f3-8d2d85d12198","resource":{"resourceType":"MeasureReport","id":"dad4a66f-7e81-4307-83f3-8d2d85d12198","meta":{"profile":["http://hl7.org/fhir/us/cqfmeasures/StructureDefinition/test-case-cqfm"]},"contained":[{"resourceType":"Parameters","id":"f9a0b74d-157c-460b-8138-8d2ca5e87c73-parameters","parameter":[{"name":"subject","valueString":"4c60f97c-0043-445c-8bc0-feb3122ca35b"}]}],"extension":[{"url":"http://hl7.org/fhir/us/cqfmeasures/StructureDefinition/cqfm-inputParameters","valueReference":{"reference":"#f9a0b74d-157c-460b-8138-8d2ca5e87c73-parameters"}},{"url":"http://hl7.org/fhir/us/cqfmeasures/StructureDefinition/cqfm-testCaseDescription","valueMarkdown":"hip fx surgery not principal \n"}],"modifierExtension":[{"url":"http://hl7.org/fhir/us/cqfmeasures/StructureDefinition/cqfm-isTestCase","valueBoolean":true}],"status":"complete","type":"individual","measure":"https://madie.cms.gov/Measure/CMS190VTEProphylaxisICUFHIR","period":{"start":"2026-01-01","end":"2026-12-31"},"group":[{"population":[{"code":{"coding":[{"system":"http://terminology.hl7.org/CodeSystem/measure-population","code":"initial-population","display":"Initial Population"}]},"count":1},{"code":{"coding":[{"system":"http://terminology.hl7.org/CodeSystem/measure-population","code":"denominator","display":"Denominator"}]},"count":1},{"code":{"coding":[{"system":"http://terminology.hl7.org/CodeSystem/measure-population","code":"denominator-exclusion","display":"Denominator Exclusion"}]},"count":0},{"code":{"coding":[{"system":"http://terminology.hl7.org/CodeSystem/measure-population","code":"numerator","display":"Numerator"}]},"count":0},{"code":{"coding":[{"system":"http://terminology.hl7.org/CodeSystem/measure-population","code":"denominator-exception","display":"Denominator Exception"}]},"count":0}]}]},"request":{"method":"PUT","url":"MeasureReport/dad4a66f-7e81-4307-83f3-8d2d85d12198"}}]}