{"resourceType":"Bundle","id":"tests-4b2aa517-ae2b-4419-9c13-4294295eef9a-bundle","type":"transaction","entry":[{"fullUrl":"https://madie.cms.gov/Patient/4b2aa517-ae2b-4419-9c13-4294295eef9a","resource":{"resourceType":"Patient","id":"4b2aa517-ae2b-4419-9c13-4294295eef9a","meta":{"profile":["http://hl7.org/fhir/us/qicore/StructureDefinition/qicore-patient"]},"text":{"status":"generated","div":"<div xmlns=\"http://www.w3.org/1999/xhtml\"><div class=\"hapiHeaderText\">FactorXaDuring2ndICU <b>DENOMPASS </b></div><table class=\"hapiPropertyTable\"><tbody><tr><td>Identifier</td><td>6d76be9baa47bc8df50fa14784b8bb58</td></tr><tr><td>Date of birth</td><td><span>03 March 1974</span></td></tr></tbody></table></div>"},"extension":[{"url":"http://hl7.org/fhir/us/core/StructureDefinition/us-core-race","extension":[{"url":"ombCategory","valueCoding":{"system":"urn:oid:2.16.840.1.113883.6.238","code":"1002-5","display":"American Indian or Alaska Native","userSelected":true}},{"url":"text","valueString":"American Indian or Alaska Native"}]},{"url":"http://hl7.org/fhir/us/core/StructureDefinition/us-core-ethnicity","extension":[{"url":"ombCategory","valueCoding":{"system":"urn:oid:2.16.840.1.113883.6.238","code":"2135-2","display":"Hispanic or Latino","userSelected":true}},{"url":"text","valueString":"Hispanic or Latino"}]}],"identifier":[{"type":{"coding":[{"system":"http://terminology.hl7.org/CodeSystem/v2-0203","code":"MR"}]},"system":"https://bonnie-fhir.healthit.gov/","value":"612e6ead02c62a011f2ef3a8"}],"active":true,"name":[{"use":"usual","family":"DENOMPass","given":["FactorXaDuring2ndICU"]}],"gender":"female","birthDate":"1975-03-03"},"request":{"method":"PUT","url":"Patient/4b2aa517-ae2b-4419-9c13-4294295eef9a"}},{"fullUrl":"https://madie.cms.gov/Encounter/76dec44d-6632-4dbe-b527-04f47f4b80f1","resource":{"resourceType":"Encounter","id":"76dec44d-6632-4dbe-b527-04f47f4b80f1","meta":{"profile":["http://hl7.org/fhir/us/qicore/StructureDefinition/qicore-encounter"]},"status":"finished","class":{"system":"http://terminology.hl7.org/CodeSystem/v3-ActCode","code":"IMP","display":"inpatient encounter"},"type":[{"coding":[{"system":"http://snomed.info/sct","code":"8715000","display":"Hospital admission, elective (procedure)"}]}],"subject":{"reference":"Patient/4b2aa517-ae2b-4419-9c13-4294295eef9a"},"period":{"start":"2026-12-04T08:00:00+00:00","end":"2026-12-30T08:15:00+00:00"},"length":{"value":26.0,"unit":"days"},"location":[{"location":{"reference":"Location/a3e831e9-9c23-4742-833e-ba9626589935"},"period":{"start":"2026-12-06T08:00:00.000+00:00","end":"2026-12-08T08:15:00.000+00:00"}},{"location":{"reference":"Location/91633122-998b-4073-b8d1-5cc7fdeff284"},"period":{"start":"2026-12-31T08:00:00.000+00:00","end":"2026-12-31T08:15:00.000+00:00"}}]},"request":{"method":"PUT","url":"Encounter/76dec44d-6632-4dbe-b527-04f47f4b80f1"}},{"fullUrl":"https://madie.cms.gov/MedicationAdministration/d9ffd089-2b1f-48f2-ae62-05dcec00db8f","resource":{"resourceType":"MedicationAdministration","id":"d9ffd089-2b1f-48f2-ae62-05dcec00db8f","meta":{"profile":["http://hl7.org/fhir/us/qicore/StructureDefinition/qicore-medicationadministration"]},"status":"completed","medicationCodeableConcept":{"coding":[{"system":"http://www.nlm.nih.gov/research/umls/rxnorm","code":"861356"}]},"subject":{"reference":"Patient/4b2aa517-ae2b-4419-9c13-4294295eef9a"},"effectiveDateTime":"2026-12-31T08:05:00+00:00"},"request":{"method":"PUT","url":"MedicationAdministration/d9ffd089-2b1f-48f2-ae62-05dcec00db8f"}},{"fullUrl":"https://madie.cms.gov/Coverage/5f9e8bd4-68a8-43fd-83ec-68572640c78e","resource":{"resourceType":"Coverage","id":"5f9e8bd4-68a8-43fd-83ec-68572640c78e","status":"active","beneficiary":{"reference":"Patient/4b2aa517-ae2b-4419-9c13-4294295eef9a"},"period":{"start":"1975-03-03T08:00:00+00:00"},"payor":[{"reference":"Organization/5ad6ea38-07e9-4482-9e1b-c09eee595be9"}]},"request":{"method":"PUT","url":"Coverage/5f9e8bd4-68a8-43fd-83ec-68572640c78e"}},{"fullUrl":"https://madie.cms.gov/Location/a3e831e9-9c23-4742-833e-ba9626589935","resource":{"resourceType":"Location","id":"a3e831e9-9c23-4742-833e-ba9626589935","meta":{"profile":["http://hl7.org/fhir/us/qicore/StructureDefinition/qicore-location"]},"identifier":[{"use":"usual","system":"http://exampleoflocation.com","value":"B1-S.F2"}],"name":"Medical Surgical East, first floor","type":[{"coding":[{"system":"https://www.cdc.gov/nhsn/cdaportal/terminology/codesystem/hsloc.html","version":"2020","code":"1025-6","display":"Trauma Critical Care","userSelected":true}]}]},"request":{"method":"PUT","url":"Location/a3e831e9-9c23-4742-833e-ba9626589935"}},{"fullUrl":"https://madie.cms.gov/Location/91633122-998b-4073-b8d1-5cc7fdeff284","resource":{"resourceType":"Location","id":"91633122-998b-4073-b8d1-5cc7fdeff284","meta":{"profile":["http://hl7.org/fhir/us/qicore/StructureDefinition/qicore-location"]},"identifier":[{"use":"usual","system":"http://exampleoflocation.com","value":"A1-S.F2"}],"name":"Medical Surgical West, first floor","type":[{"coding":[{"system":"https://www.cdc.gov/nhsn/cdaportal/terminology/codesystem/hsloc.html","version":"2020","code":"1025-6","display":"Trauma Critical Care","userSelected":true}]}]},"request":{"method":"PUT","url":"Location/91633122-998b-4073-b8d1-5cc7fdeff284"}},{"fullUrl":"https://madie.cms.gov/Organization/3d9b3120-bc07-496a-9af2-01b32f114263","resource":{"resourceType":"Organization","id":"5ad6ea38-07e9-4482-9e1b-c09eee595be9","meta":{"profile":["http://hl7.org/fhir/us/qicore/StructureDefinition/qicore-organization"]},"identifier":[{"use":"temp","system":"urn:oid:2.16.840.1.113883.4.4","value":"21-3259825"}],"active":true,"type":[{"coding":[{"system":"http://terminology.hl7.org/CodeSystem/organization-type","code":"pay","display":"Payer"}]}],"name":"Blue Cross Blue Shield of Texas","telecom":[{"system":"phone","value":"(+1) 972-766-6900"}],"address":[{"use":"billing","type":"postal","line":["P.O. Box 660044"],"city":"Dallas","state":"TX","postalCode":"75266-0044","country":"USA"}]},"request":{"method":"PUT","url":"Organization/5ad6ea38-07e9-4482-9e1b-c09eee595be9"}},{"fullUrl":"https://madie.cms.gov/MeasureReport/f3768b3c-c2e5-479c-9d6b-80640623ad61","resource":{"resourceType":"MeasureReport","id":"f3768b3c-c2e5-479c-9d6b-80640623ad61","meta":{"profile":["http://hl7.org/fhir/us/cqfmeasures/StructureDefinition/test-case-cqfm"]},"contained":[{"resourceType":"Parameters","id":"27588fd5-f35d-42c3-bb8c-0cee907dba16-parameters","parameter":[{"name":"subject","valueString":"4b2aa517-ae2b-4419-9c13-4294295eef9a"}]}],"extension":[{"url":"http://hl7.org/fhir/us/cqfmeasures/StructureDefinition/cqfm-inputParameters","valueReference":{"reference":"#27588fd5-f35d-42c3-bb8c-0cee907dba16-parameters"}},{"url":"http://hl7.org/fhir/us/cqfmeasures/StructureDefinition/cqfm-testCaseDescription","valueMarkdown":"Patient gets VTE prophylaxis on the second ICU admission during the inpatient encounter.\n"}],"modifierExtension":[{"url":"http://hl7.org/fhir/us/cqfmeasures/StructureDefinition/cqfm-isTestCase","valueBoolean":true}],"status":"complete","type":"individual","measure":"https://madie.cms.gov/Measure/CMS190VTEProphylaxisICUFHIR","period":{"start":"2026-01-01","end":"2026-12-31"},"group":[{"population":[{"code":{"coding":[{"system":"http://terminology.hl7.org/CodeSystem/measure-population","code":"initial-population","display":"Initial Population"}]},"count":1},{"code":{"coding":[{"system":"http://terminology.hl7.org/CodeSystem/measure-population","code":"denominator","display":"Denominator"}]},"count":1},{"code":{"coding":[{"system":"http://terminology.hl7.org/CodeSystem/measure-population","code":"denominator-exclusion","display":"Denominator Exclusion"}]},"count":0},{"code":{"coding":[{"system":"http://terminology.hl7.org/CodeSystem/measure-population","code":"numerator","display":"Numerator"}]},"count":0},{"code":{"coding":[{"system":"http://terminology.hl7.org/CodeSystem/measure-population","code":"denominator-exception","display":"Denominator Exception"}]},"count":0}]}]},"request":{"method":"PUT","url":"MeasureReport/f3768b3c-c2e5-479c-9d6b-80640623ad61"}}]}