{"resourceType":"Bundle","id":"tests-a9c75661-be1c-41b2-aa15-222cc7d2ca81-bundle","type":"transaction","entry":[{"fullUrl":"https://madie.cms.gov/Patient/a9c75661-be1c-41b2-aa15-222cc7d2ca81","resource":{"resourceType":"Patient","id":"a9c75661-be1c-41b2-aa15-222cc7d2ca81","meta":{"profile":["http://hl7.org/fhir/us/qicore/StructureDefinition/qicore-patient"]},"text":{"status":"generated","div":"<div xmlns=\"http://www.w3.org/1999/xhtml\"><div class=\"hapiHeaderText\">PtRefDAGCSDuringED <b>NUMERPASS </b></div><table class=\"hapiPropertyTable\"><tbody><tr><td>Identifier</td><td>5f7ad5e9fc357bf072546722e2c19e60</td></tr><tr><td>Date of birth</td><td><span>02 January 1974</span></td></tr></tbody></table></div>"},"extension":[{"url":"http://hl7.org/fhir/us/core/StructureDefinition/us-core-race","extension":[{"url":"ombCategory","valueCoding":{"system":"urn:oid:2.16.840.1.113883.6.238","code":"1002-5","display":"American Indian or Alaska Native","userSelected":true}},{"url":"text","valueString":"American Indian or Alaska Native"}]},{"url":"http://hl7.org/fhir/us/core/StructureDefinition/us-core-ethnicity","extension":[{"url":"ombCategory","valueCoding":{"system":"urn:oid:2.16.840.1.113883.6.238","code":"2135-2","display":"Hispanic or Latino","userSelected":true}},{"url":"text","valueString":"Hispanic or Latino"}]}],"identifier":[{"type":{"coding":[{"system":"http://terminology.hl7.org/CodeSystem/v2-0203","code":"MR"}]},"system":"https://bonnie-fhir.healthit.gov/","value":"612e6ab302c62a011f2eafaf"}],"active":true,"name":[{"use":"usual","family":"NUMERPass","given":["PtRefDAGCSDuringED"]}],"gender":"male","birthDate":"1975-01-02"},"request":{"method":"PUT","url":"Patient/a9c75661-be1c-41b2-aa15-222cc7d2ca81"}},{"fullUrl":"https://madie.cms.gov/Encounter/0106ad77-06d0-4c78-b7f2-46baff6dd5d4","resource":{"resourceType":"Encounter","id":"0106ad77-06d0-4c78-b7f2-46baff6dd5d4","meta":{"profile":["http://hl7.org/fhir/us/qicore/StructureDefinition/qicore-encounter"]},"status":"finished","class":{"system":"http://terminology.hl7.org/CodeSystem/v3-ActCode","code":"EMER","display":"emergency"},"type":[{"coding":[{"system":"http://snomed.info/sct","code":"4525004"}]}],"subject":{"reference":"Patient/a9c75661-be1c-41b2-aa15-222cc7d2ca81"},"period":{"start":"2026-10-31T05:00:00+00:00","end":"2026-11-01T07:15:00+00:00"},"length":{"value":1,"unit":"days"}},"request":{"method":"PUT","url":"Encounter/0106ad77-06d0-4c78-b7f2-46baff6dd5d4"}},{"fullUrl":"https://madie.cms.gov/Encounter/6caa2413-0a91-41e9-9eba-01c397332b2b","resource":{"resourceType":"Encounter","id":"6caa2413-0a91-41e9-9eba-01c397332b2b","meta":{"profile":["http://hl7.org/fhir/us/qicore/StructureDefinition/qicore-encounter"]},"status":"finished","class":{"system":"http://terminology.hl7.org/CodeSystem/v3-ActCode","code":"IMP","display":"inpatient encounter"},"type":[{"coding":[{"system":"http://snomed.info/sct","code":"8715000"}]}],"subject":{"reference":"Patient/a9c75661-be1c-41b2-aa15-222cc7d2ca81"},"period":{"start":"2026-11-01T08:00:00+00:00","end":"2026-11-26T08:15:00+00:00"},"length":{"value":25,"unit":"days"},"location":[{"location":{"reference":"Location/4a1104a6-a1a2-4a7e-9bf4-f2d2435bf792"},"period":{"start":"2026-11-01T09:00:00.000+00:00","end":"2026-11-02T08:15:00.000+00:00"}}]},"request":{"method":"PUT","url":"Encounter/6caa2413-0a91-41e9-9eba-01c397332b2b"}},{"fullUrl":"https://madie.cms.gov/Coverage/b0373c3d-0ae9-4116-a662-884591387e5a","resource":{"resourceType":"Coverage","id":"b0373c3d-0ae9-4116-a662-884591387e5a","status":"active","beneficiary":{"reference":"Patient/a9c75661-be1c-41b2-aa15-222cc7d2ca81"},"period":{"start":"1975-01-02T08:00:00+00:00"},"payor":[{"reference":"Organization/3e899f33-84eb-4634-a770-a5a0bd7a80e7"}]},"request":{"method":"PUT","url":"Coverage/b0373c3d-0ae9-4116-a662-884591387e5a"}},{"fullUrl":"https://madie.cms.gov/Procedure/5f7f12f4-2ee7-479f-884d-da9ae5596c8d","resource":{"resourceType":"Procedure","id":"5f7f12f4-2ee7-479f-884d-da9ae5596c8d","meta":{"profile":["http://hl7.org/fhir/us/qicore/StructureDefinition/qicore-procedurenotdone"]},"extension":[{"url":"http://hl7.org/fhir/us/qicore/StructureDefinition/qicore-recorded","valueDateTime":"2026-10-31T17:35:00-04:00"}],"status":"not-done","statusReason":{"coding":[{"system":"http://snomed.info/sct","code":"443390004","display":"Refusal of treatment by patient (situation)","userSelected":true}]},"code":{"coding":[{"system":"http://snomed.info/sct","version":"2025-03","code":"229511001","display":"Application of graduated compression garment (procedure)","userSelected":true}]},"subject":{"reference":"Patient/a9c75661-be1c-41b2-aa15-222cc7d2ca81"},"_performedDateTime":{"extension":[{"url":"http://hl7.org/fhir/StructureDefinition/data-absent-reason","valueCode":"not-performed"}]}},"request":{"method":"PUT","url":"Procedure/5f7f12f4-2ee7-479f-884d-da9ae5596c8d"}},{"fullUrl":"https://madie.cms.gov/Location/4a1104a6-a1a2-4a7e-9bf4-f2d2435bf792","resource":{"resourceType":"Location","id":"4a1104a6-a1a2-4a7e-9bf4-f2d2435bf792","meta":{"profile":["http://hl7.org/fhir/us/qicore/StructureDefinition/qicore-location"]},"identifier":[{"use":"usual","system":"http://exampleoflocation.com","value":"B1-S.F2"}],"name":"Medical Surgical East, first floor","type":[{"coding":[{"system":"https://www.cdc.gov/nhsn/cdaportal/terminology/codesystem/hsloc.html","code":"1025-6","display":"Trauma Critical Care","userSelected":true}]}]},"request":{"method":"PUT","url":"Location/4a1104a6-a1a2-4a7e-9bf4-f2d2435bf792"}},{"fullUrl":"https://madie.cms.gov/Organization/9473a42f-200b-46ce-b470-9586ef02accd","resource":{"resourceType":"Organization","id":"3e899f33-84eb-4634-a770-a5a0bd7a80e7","meta":{"profile":["http://hl7.org/fhir/us/qicore/StructureDefinition/qicore-organization"]},"identifier":[{"use":"temp","system":"urn:oid:2.16.840.1.113883.4.4","value":"21-3259825"}],"active":true,"type":[{"coding":[{"system":"http://terminology.hl7.org/CodeSystem/organization-type","code":"pay","display":"Payer"}]}],"name":"Blue Cross Blue Shield of Texas","telecom":[{"system":"phone","value":"(+1) 972-766-6900"}],"address":[{"use":"billing","type":"postal","line":["P.O. Box 660044"],"city":"Dallas","state":"TX","postalCode":"75266-0044","country":"USA"}]},"request":{"method":"PUT","url":"Organization/3e899f33-84eb-4634-a770-a5a0bd7a80e7"}},{"fullUrl":"https://madie.cms.gov/Practitioner/2da3e930-0a5a-4006-9681-b3872713a91e","resource":{"resourceType":"Practitioner","id":"2da3e930-0a5a-4006-9681-b3872713a91e","identifier":[{"system":"http://hl7.org/fhir/sid/us-npi","value":"123456"}],"name":[{"family":"Evil","prefix":["Dr"]}]},"request":{"method":"PUT","url":"Practitioner/2da3e930-0a5a-4006-9681-b3872713a91e"}},{"fullUrl":"https://madie.cms.gov/MeasureReport/f767e807-aa3e-4d4f-9fa3-20c7ce05d5df","resource":{"resourceType":"MeasureReport","id":"f767e807-aa3e-4d4f-9fa3-20c7ce05d5df","meta":{"profile":["http://hl7.org/fhir/us/cqfmeasures/StructureDefinition/test-case-cqfm"]},"contained":[{"resourceType":"Parameters","id":"a10de660-c6d6-4689-ad4e-40a905e754c6-parameters","parameter":[{"name":"subject","valueString":"a9c75661-be1c-41b2-aa15-222cc7d2ca81"}]}],"extension":[{"url":"http://hl7.org/fhir/us/cqfmeasures/StructureDefinition/cqfm-inputParameters","valueReference":{"reference":"#a10de660-c6d6-4689-ad4e-40a905e754c6-parameters"}},{"url":"http://hl7.org/fhir/us/cqfmeasures/StructureDefinition/cqfm-testCaseDescription","valueMarkdown":"meets IPP, meets Denominator, GCS applied not done patient Refusal  - during ED\n"}],"modifierExtension":[{"url":"http://hl7.org/fhir/us/cqfmeasures/StructureDefinition/cqfm-isTestCase","valueBoolean":true}],"status":"complete","type":"individual","measure":"https://madie.cms.gov/Measure/CMS190VTEProphylaxisICUFHIR","period":{"start":"2026-01-01","end":"2026-12-31"},"group":[{"population":[{"code":{"coding":[{"system":"http://terminology.hl7.org/CodeSystem/measure-population","code":"initial-population","display":"Initial Population"}]},"count":1},{"code":{"coding":[{"system":"http://terminology.hl7.org/CodeSystem/measure-population","code":"denominator","display":"Denominator"}]},"count":1},{"code":{"coding":[{"system":"http://terminology.hl7.org/CodeSystem/measure-population","code":"denominator-exclusion","display":"Denominator Exclusion"}]},"count":0},{"code":{"coding":[{"system":"http://terminology.hl7.org/CodeSystem/measure-population","code":"numerator","display":"Numerator"}]},"count":1},{"code":{"coding":[{"system":"http://terminology.hl7.org/CodeSystem/measure-population","code":"denominator-exception","display":"Denominator Exception"}]},"count":0}]}]},"request":{"method":"PUT","url":"MeasureReport/f767e807-aa3e-4d4f-9fa3-20c7ce05d5df"}}]}