{"resourceType":"Bundle","id":"tests-52f08855-780f-4975-b505-ade45abba149-bundle","type":"transaction","entry":[{"fullUrl":"https://madie.cms.gov/Patient/52f08855-780f-4975-b505-ade45abba149","resource":{"resourceType":"Patient","id":"52f08855-780f-4975-b505-ade45abba149","meta":{"profile":["http://hl7.org/fhir/us/qicore/StructureDefinition/qicore-patient"]},"text":{"status":"generated","div":"<div xmlns=\"http://www.w3.org/1999/xhtml\"><div class=\"hapiHeaderText\">ThrombinDuringED <b>NUMERPASS </b></div><table class=\"hapiPropertyTable\"><tbody><tr><td>Identifier</td><td>f2b441be18ed6316c95ae4ad6f27b780</td></tr><tr><td>Date of birth</td><td><span>03 March 1974</span></td></tr></tbody></table></div>"},"extension":[{"url":"http://hl7.org/fhir/us/core/StructureDefinition/us-core-race","extension":[{"url":"ombCategory","valueCoding":{"system":"urn:oid:2.16.840.1.113883.6.238","code":"1002-5","display":"American Indian or Alaska Native","userSelected":true}},{"url":"text","valueString":"American Indian or Alaska Native"}]},{"url":"http://hl7.org/fhir/us/core/StructureDefinition/us-core-ethnicity","extension":[{"url":"ombCategory","valueCoding":{"system":"urn:oid:2.16.840.1.113883.6.238","code":"2135-2","display":"Hispanic or Latino","userSelected":true}},{"url":"text","valueString":"Hispanic or Latino"}]}],"identifier":[{"type":{"coding":[{"system":"http://terminology.hl7.org/CodeSystem/v2-0203","code":"MR"}]},"system":"https://bonnie-fhir.healthit.gov/","value":"612e6e9c02c62a011f2ef070"}],"active":true,"name":[{"use":"usual","family":"NUMERPass","given":["ThrombinDuringED"]}],"gender":"female","birthDate":"1975-03-03"},"request":{"method":"PUT","url":"Patient/52f08855-780f-4975-b505-ade45abba149"}},{"fullUrl":"https://madie.cms.gov/Encounter/a63d20e6-d489-47b7-8b5e-4156b5ba5170","resource":{"resourceType":"Encounter","id":"a63d20e6-d489-47b7-8b5e-4156b5ba5170","meta":{"profile":["http://hl7.org/fhir/us/qicore/StructureDefinition/qicore-encounter"]},"status":"finished","class":{"system":"http://terminology.hl7.org/CodeSystem/v3-ActCode","code":"EMER","display":"emergency","userSelected":true},"type":[{"coding":[{"system":"http://snomed.info/sct","code":"4525004","display":"Emergency department patient visit (procedure)"}]}],"subject":{"reference":"Patient/52f08855-780f-4975-b505-ade45abba149"},"period":{"start":"2026-12-06T02:00:00+00:00","end":"2026-12-06T08:15:00+00:00"},"length":{"value":0.0,"unit":"days"}},"request":{"method":"PUT","url":"Encounter/a63d20e6-d489-47b7-8b5e-4156b5ba5170"}},{"fullUrl":"https://madie.cms.gov/Encounter/437f5b14-6d78-4735-813b-db94b50f6459","resource":{"resourceType":"Encounter","id":"437f5b14-6d78-4735-813b-db94b50f6459","meta":{"profile":["http://hl7.org/fhir/us/qicore/StructureDefinition/qicore-encounter"]},"status":"finished","class":{"system":"http://terminology.hl7.org/CodeSystem/v3-ActCode","code":"IMP","display":"inpatient encounter"},"type":[{"coding":[{"system":"http://snomed.info/sct","code":"8715000","display":"Hospital admission, elective (procedure)"}]}],"subject":{"reference":"Patient/52f08855-780f-4975-b505-ade45abba149"},"period":{"start":"2026-12-06T08:45:00+00:00","end":"2026-12-30T08:15:00+00:00"},"length":{"value":24.0,"unit":"days"},"location":[{"location":{"reference":"Location/f3029c16-c69c-4586-9d2d-34767576f391"},"period":{"start":"2026-12-06T09:00:00.000+00:00","end":"2026-12-12T08:15:00.000+00:00"}}]},"request":{"method":"PUT","url":"Encounter/437f5b14-6d78-4735-813b-db94b50f6459"}},{"fullUrl":"https://madie.cms.gov/Coverage/1467fdd2-7cc8-4843-a735-427159761db7","resource":{"resourceType":"Coverage","id":"1467fdd2-7cc8-4843-a735-427159761db7","status":"active","beneficiary":{"reference":"Patient/52f08855-780f-4975-b505-ade45abba149"},"period":{"start":"1975-03-03T08:00:00+00:00"},"payor":[{"reference":"Organization/4da248b0-6e59-49b7-b80e-338aa21d299f"}]},"request":{"method":"PUT","url":"Coverage/1467fdd2-7cc8-4843-a735-427159761db7"}},{"fullUrl":"https://madie.cms.gov/MedicationAdministration/c02a941f-2c2c-414e-9c8d-25f7e36eaada","resource":{"resourceType":"MedicationAdministration","id":"c02a941f-2c2c-414e-9c8d-25f7e36eaada","meta":{"profile":["http://hl7.org/fhir/us/qicore/StructureDefinition/qicore-medicationadministration"]},"status":"completed","medicationCodeableConcept":{"coding":[{"system":"http://www.nlm.nih.gov/research/umls/rxnorm","code":"308351"}]},"subject":{"reference":"Patient/52f08855-780f-4975-b505-ade45abba149"},"effectivePeriod":{"start":"2026-12-06T06:30:00+00:00","end":"2026-12-06T06:35:00+00:00"}},"request":{"method":"PUT","url":"MedicationAdministration/c02a941f-2c2c-414e-9c8d-25f7e36eaada"}},{"fullUrl":"https://madie.cms.gov/Location/f3029c16-c69c-4586-9d2d-34767576f391","resource":{"resourceType":"Location","id":"f3029c16-c69c-4586-9d2d-34767576f391","meta":{"profile":["http://hl7.org/fhir/us/qicore/StructureDefinition/qicore-location"]},"identifier":[{"use":"usual","system":"http://exampleoflocation.com","value":"B1-S.F2"}],"name":"Medical Surgical East, first floor","type":[{"coding":[{"system":"https://www.cdc.gov/nhsn/cdaportal/terminology/codesystem/hsloc.html","version":"2020","code":"1025-6","display":"Trauma Critical Care","userSelected":true}]}]},"request":{"method":"PUT","url":"Location/f3029c16-c69c-4586-9d2d-34767576f391"}},{"fullUrl":"https://madie.cms.gov/Organization/78dadc5b-07b6-4dd2-bfb1-bb74ca5c2bb5","resource":{"resourceType":"Organization","id":"4da248b0-6e59-49b7-b80e-338aa21d299f","meta":{"profile":["http://hl7.org/fhir/us/qicore/StructureDefinition/qicore-organization"]},"identifier":[{"use":"temp","system":"urn:oid:2.16.840.1.113883.4.4","value":"21-3259825"}],"active":true,"type":[{"coding":[{"system":"http://terminology.hl7.org/CodeSystem/organization-type","code":"pay","display":"Payer"}]}],"name":"Blue Cross Blue Shield of Texas","telecom":[{"system":"phone","value":"(+1) 972-766-6900"}],"address":[{"use":"billing","type":"postal","line":["P.O. Box 660044"],"city":"Dallas","state":"TX","postalCode":"75266-0044","country":"USA"}]},"request":{"method":"PUT","url":"Organization/4da248b0-6e59-49b7-b80e-338aa21d299f"}},{"fullUrl":"https://madie.cms.gov/MeasureReport/ce46f304-f8db-4fe5-b260-18c1cd304132","resource":{"resourceType":"MeasureReport","id":"ce46f304-f8db-4fe5-b260-18c1cd304132","meta":{"profile":["http://hl7.org/fhir/us/cqfmeasures/StructureDefinition/test-case-cqfm"]},"contained":[{"resourceType":"Parameters","id":"0c94902c-6652-4dea-adfb-05b0380e1b24-parameters","parameter":[{"name":"subject","valueString":"52f08855-780f-4975-b505-ade45abba149"}]}],"extension":[{"url":"http://hl7.org/fhir/us/cqfmeasures/StructureDefinition/cqfm-inputParameters","valueReference":{"reference":"#0c94902c-6652-4dea-adfb-05b0380e1b24-parameters"}},{"url":"http://hl7.org/fhir/us/cqfmeasures/StructureDefinition/cqfm-testCaseDescription","valueMarkdown":"meets IPP, meets Denominator, medication administered:Thrombin during ED, ED endTime less than 1 hour before Start of ICU"}],"modifierExtension":[{"url":"http://hl7.org/fhir/us/cqfmeasures/StructureDefinition/cqfm-isTestCase","valueBoolean":true}],"status":"complete","type":"individual","measure":"https://madie.cms.gov/Measure/CMS190VTEProphylaxisICUFHIR","period":{"start":"2026-01-01","end":"2026-12-31"},"group":[{"population":[{"code":{"coding":[{"system":"http://terminology.hl7.org/CodeSystem/measure-population","code":"initial-population","display":"Initial Population"}]},"count":1},{"code":{"coding":[{"system":"http://terminology.hl7.org/CodeSystem/measure-population","code":"denominator","display":"Denominator"}]},"count":1},{"code":{"coding":[{"system":"http://terminology.hl7.org/CodeSystem/measure-population","code":"denominator-exclusion","display":"Denominator Exclusion"}]},"count":0},{"code":{"coding":[{"system":"http://terminology.hl7.org/CodeSystem/measure-population","code":"numerator","display":"Numerator"}]},"count":1},{"code":{"coding":[{"system":"http://terminology.hl7.org/CodeSystem/measure-population","code":"denominator-exception","display":"Denominator Exception"}]},"count":0}]}]},"request":{"method":"PUT","url":"MeasureReport/ce46f304-f8db-4fe5-b260-18c1cd304132"}}]}