{"resourceType":"Bundle","id":"tests-f475cbfa-630a-4296-b083-9feda23892f4-bundle","type":"transaction","entry":[{"fullUrl":"https://madie.cms.gov/Patient/f475cbfa-630a-4296-b083-9feda23892f4","resource":{"resourceType":"Patient","id":"f475cbfa-630a-4296-b083-9feda23892f4","meta":{"profile":["http://hl7.org/fhir/us/qicore/StructureDefinition/qicore-patient"]},"text":{"status":"generated","div":"<div xmlns=\"http://www.w3.org/1999/xhtml\"><div class=\"hapiHeaderText\">CMPerfRvltDate1DayAfterICU <b>DENEXPASS </b></div><table class=\"hapiPropertyTable\"><tbody><tr><td>Identifier</td><td>2a65a26f9f7578ed1148174b365eff5a</td></tr><tr><td>Date of birth</td><td><span>03 March 1974</span></td></tr></tbody></table></div>"},"extension":[{"url":"http://hl7.org/fhir/us/core/StructureDefinition/us-core-race","extension":[{"url":"ombCategory","valueCoding":{"system":"urn:oid:2.16.840.1.113883.6.238","code":"1002-5","display":"American Indian or Alaska Native","userSelected":true}},{"url":"text","valueString":"American Indian or Alaska Native"}]},{"url":"http://hl7.org/fhir/us/core/StructureDefinition/us-core-ethnicity","extension":[{"url":"ombCategory","valueCoding":{"system":"urn:oid:2.16.840.1.113883.6.238","code":"2135-2","display":"Hispanic or Latino","userSelected":true}},{"url":"text","valueString":"Hispanic or Latino"}]}],"identifier":[{"type":{"coding":[{"system":"http://terminology.hl7.org/CodeSystem/v2-0203","code":"MR"}]},"system":"https://bonnie-fhir.healthit.gov/","value":"612e6f8b02c62a011f2f239e"}],"active":true,"name":[{"use":"usual","family":"DENEXPass","given":["CMPerfRvltDate1DayAfterICU"]}],"gender":"female","birthDate":"1975-03-03"},"request":{"method":"PUT","url":"Patient/f475cbfa-630a-4296-b083-9feda23892f4"}},{"fullUrl":"https://madie.cms.gov/Encounter/c024ec6f-0f0a-437d-89a3-f2803e496507","resource":{"resourceType":"Encounter","id":"c024ec6f-0f0a-437d-89a3-f2803e496507","meta":{"profile":["http://hl7.org/fhir/us/qicore/StructureDefinition/qicore-encounter"]},"status":"finished","class":{"system":"http://terminology.hl7.org/CodeSystem/v3-ActCode","code":"IMP","display":"inpatient encounter"},"type":[{"coding":[{"system":"http://snomed.info/sct","code":"8715000"}]}],"subject":{"reference":"Patient/f475cbfa-630a-4296-b083-9feda23892f4"},"period":{"start":"2026-12-04T08:00:00+00:00","end":"2026-12-30T08:15:00+00:00"},"length":{"value":26.0,"unit":"days"},"location":[{"location":{"reference":"Location/15fb427f-65b9-4ab7-9acd-f0378cd290b3"},"period":{"start":"2026-12-06T08:00:00.000+00:00","end":"2026-12-12T08:15:00.000+00:00"}}]},"request":{"method":"PUT","url":"Encounter/c024ec6f-0f0a-437d-89a3-f2803e496507"}},{"fullUrl":"https://madie.cms.gov/Procedure/48d350a7-fd3f-4065-9a35-261ae9f309a8","resource":{"resourceType":"Procedure","id":"48d350a7-fd3f-4065-9a35-261ae9f309a8","meta":{"profile":["http://hl7.org/fhir/us/qicore/StructureDefinition/qicore-procedure"]},"extension":[{"url":"http://hl7.org/fhir/us/qicore/StructureDefinition/qicore-recorded","valueDateTime":"2013-12-07T09:35:00-04:00"}],"status":"completed","code":{"coding":[{"system":"http://snomed.info/sct","code":"133918004","display":"Comfort measures (regime/therapy)"}]},"subject":{"reference":"Patient/f475cbfa-630a-4296-b083-9feda23892f4"},"performedDateTime":"2026-12-06T09:00:00.000+00:00"},"request":{"method":"PUT","url":"Procedure/48d350a7-fd3f-4065-9a35-261ae9f309a8"}},{"fullUrl":"https://madie.cms.gov/Coverage/321ca034-d61f-4aaa-b6fc-16b0e6ab8878","resource":{"resourceType":"Coverage","id":"321ca034-d61f-4aaa-b6fc-16b0e6ab8878","status":"active","beneficiary":{"reference":"Patient/f475cbfa-630a-4296-b083-9feda23892f4"},"period":{"start":"1975-03-03T08:00:00+00:00"},"payor":[{"reference":"Organization/607fdef9-3983-4cef-ab1a-95434d29b463"}]},"request":{"method":"PUT","url":"Coverage/321ca034-d61f-4aaa-b6fc-16b0e6ab8878"}},{"fullUrl":"https://madie.cms.gov/Location/15fb427f-65b9-4ab7-9acd-f0378cd290b3","resource":{"resourceType":"Location","id":"15fb427f-65b9-4ab7-9acd-f0378cd290b3","meta":{"profile":["http://hl7.org/fhir/us/qicore/StructureDefinition/qicore-location"]},"identifier":[{"use":"usual","system":"http://exampleoflocation.com","value":"B1-S.F2"}],"name":"Medical Surgical East, first floor","type":[{"coding":[{"system":"https://www.cdc.gov/nhsn/cdaportal/terminology/codesystem/hsloc.html","code":"1025-6","display":"Trauma Critical Care","userSelected":true}]}]},"request":{"method":"PUT","url":"Location/15fb427f-65b9-4ab7-9acd-f0378cd290b3"}},{"fullUrl":"https://madie.cms.gov/Organization/e30b40f9-95d4-4b50-8acf-f9ada825f150","resource":{"resourceType":"Organization","id":"607fdef9-3983-4cef-ab1a-95434d29b463","meta":{"profile":["http://hl7.org/fhir/us/qicore/StructureDefinition/qicore-organization"]},"identifier":[{"use":"temp","system":"urn:oid:2.16.840.1.113883.4.4","value":"21-3259825"}],"active":true,"type":[{"coding":[{"system":"http://terminology.hl7.org/CodeSystem/organization-type","code":"pay","display":"Payer"}]}],"name":"Blue Cross Blue Shield of Texas","telecom":[{"system":"phone","value":"(+1) 972-766-6900"}],"address":[{"use":"billing","type":"postal","line":["P.O. Box 660044"],"city":"Dallas","state":"TX","postalCode":"75266-0044","country":"USA"}]},"request":{"method":"PUT","url":"Organization/607fdef9-3983-4cef-ab1a-95434d29b463"}},{"fullUrl":"https://madie.cms.gov/Practitioner/cca27526-d27d-47e5-9426-efba9e0dddda","resource":{"resourceType":"Practitioner","id":"cca27526-d27d-47e5-9426-efba9e0dddda","identifier":[{"system":"http://hl7.org/fhir/sid/us-npi","value":"123456"}],"name":[{"family":"Evil","prefix":["Dr"]}]},"request":{"method":"PUT","url":"Practitioner/cca27526-d27d-47e5-9426-efba9e0dddda"}},{"fullUrl":"https://madie.cms.gov/MeasureReport/bf76493f-cc07-42b0-a962-26d128e02441","resource":{"resourceType":"MeasureReport","id":"bf76493f-cc07-42b0-a962-26d128e02441","meta":{"profile":["http://hl7.org/fhir/us/cqfmeasures/StructureDefinition/test-case-cqfm"]},"contained":[{"resourceType":"Parameters","id":"a3bf1e1e-b08f-41bf-b957-a18d9e974048-parameters","parameter":[{"name":"subject","valueString":"f475cbfa-630a-4296-b083-9feda23892f4"}]}],"extension":[{"url":"http://hl7.org/fhir/us/cqfmeasures/StructureDefinition/cqfm-inputParameters","valueReference":{"reference":"#a3bf1e1e-b08f-41bf-b957-a18d9e974048-parameters"}},{"url":"http://hl7.org/fhir/us/cqfmeasures/StructureDefinition/cqfm-testCaseDescription","valueMarkdown":"CMPerfRvltDate1DayAfterICU\n"}],"modifierExtension":[{"url":"http://hl7.org/fhir/us/cqfmeasures/StructureDefinition/cqfm-isTestCase","valueBoolean":true}],"status":"complete","type":"individual","measure":"https://madie.cms.gov/Measure/CMS190VTEProphylaxisICUFHIR","period":{"start":"2026-01-01","end":"2026-12-31"},"group":[{"population":[{"code":{"coding":[{"system":"http://terminology.hl7.org/CodeSystem/measure-population","code":"initial-population","display":"Initial Population"}]},"count":1},{"code":{"coding":[{"system":"http://terminology.hl7.org/CodeSystem/measure-population","code":"denominator","display":"Denominator"}]},"count":1},{"code":{"coding":[{"system":"http://terminology.hl7.org/CodeSystem/measure-population","code":"denominator-exclusion","display":"Denominator Exclusion"}]},"count":1},{"code":{"coding":[{"system":"http://terminology.hl7.org/CodeSystem/measure-population","code":"numerator","display":"Numerator"}]},"count":0},{"code":{"coding":[{"system":"http://terminology.hl7.org/CodeSystem/measure-population","code":"denominator-exception","display":"Denominator Exception"}]},"count":0}]}]},"request":{"method":"PUT","url":"MeasureReport/bf76493f-cc07-42b0-a962-26d128e02441"}}]}