{"resourceType":"Bundle","id":"tests-efad4991-4382-4ceb-8bc4-32e8ac088e47-bundle","type":"transaction","entry":[{"fullUrl":"https://madie.cms.gov/Patient/efad4991-4382-4ceb-8bc4-32e8ac088e47","resource":{"resourceType":"Patient","id":"efad4991-4382-4ceb-8bc4-32e8ac088e47","meta":{"profile":["http://hl7.org/fhir/us/qicore/StructureDefinition/qicore-patient"]},"text":{"status":"generated","div":"<div xmlns=\"http://www.w3.org/1999/xhtml\"><div class=\"hapiHeaderText\">FactorXaConcurrentEndAnesConcurrentICU <b>NUMERPASS </b></div><table class=\"hapiPropertyTable\"><tbody><tr><td>Identifier</td><td>932bbfe395f764f868f766d1afbf2cb7</td></tr><tr><td>Date of birth</td><td><span>03 March 1974</span></td></tr></tbody></table></div>"},"extension":[{"url":"http://hl7.org/fhir/us/core/StructureDefinition/us-core-race","extension":[{"url":"ombCategory","valueCoding":{"system":"urn:oid:2.16.840.1.113883.6.238","code":"1002-5","display":"American Indian or Alaska Native","userSelected":true}},{"url":"text","valueString":"American Indian or Alaska Native"}]},{"url":"http://hl7.org/fhir/us/core/StructureDefinition/us-core-ethnicity","extension":[{"url":"ombCategory","valueCoding":{"system":"urn:oid:2.16.840.1.113883.6.238","code":"2135-2","display":"Hispanic or Latino","userSelected":true}},{"url":"text","valueString":"Hispanic or Latino"}]}],"identifier":[{"type":{"coding":[{"system":"http://terminology.hl7.org/CodeSystem/v2-0203","code":"MR"}]},"system":"https://bonnie-fhir.healthit.gov/","value":"612e6f4202c62a011f2f130c"}],"active":true,"name":[{"use":"usual","family":"NUMERPass","given":["FactorXaConcurrentEndAnesConcurrentICU"]}],"gender":"female","birthDate":"1975-03-03"},"request":{"method":"PUT","url":"Patient/efad4991-4382-4ceb-8bc4-32e8ac088e47"}},{"fullUrl":"https://madie.cms.gov/Encounter/b0ca603e-1083-4200-a98f-18d816603186","resource":{"resourceType":"Encounter","id":"b0ca603e-1083-4200-a98f-18d816603186","meta":{"profile":["http://hl7.org/fhir/us/qicore/StructureDefinition/qicore-encounter"]},"status":"finished","class":{"system":"http://terminology.hl7.org/CodeSystem/v3-ActCode","code":"IMP","display":"inpatient encounter"},"type":[{"coding":[{"system":"http://snomed.info/sct","code":"8715000"}]}],"subject":{"reference":"Patient/efad4991-4382-4ceb-8bc4-32e8ac088e47"},"period":{"start":"2026-12-05T08:00:00+00:00","end":"2026-12-30T08:15:00+00:00"},"length":{"value":25.0,"unit":"days"},"diagnosis":[{"condition":{"reference":"Condition/0c30fdb6-7911-4694-9a9f-318a47b6a59f"},"rank":1}],"location":[{"location":{"reference":"Location/39ea2f93-6674-4e07-8fc7-5dcb7e512d7e"},"period":{"start":"2026-12-05T08:00:00+00:00","end":"2026-12-12T08:15:00+00:00"}}]},"request":{"method":"PUT","url":"Encounter/b0ca603e-1083-4200-a98f-18d816603186"}},{"fullUrl":"https://madie.cms.gov/Coverage/d87eb92b-a878-4296-b5b8-2f233e973b8f","resource":{"resourceType":"Coverage","id":"d87eb92b-a878-4296-b5b8-2f233e973b8f","status":"active","beneficiary":{"reference":"Patient/efad4991-4382-4ceb-8bc4-32e8ac088e47"},"period":{"start":"1975-03-03T08:00:00+00:00"},"payor":[{"reference":"Organization/3778262e-e084-4bb5-9a47-1a144735f786"}]},"request":{"method":"PUT","url":"Coverage/d87eb92b-a878-4296-b5b8-2f233e973b8f"}},{"fullUrl":"https://madie.cms.gov/Condition/0c30fdb6-7911-4694-9a9f-318a47b6a59f","resource":{"resourceType":"Condition","id":"0c30fdb6-7911-4694-9a9f-318a47b6a59f","meta":{"profile":["http://hl7.org/fhir/us/qicore/StructureDefinition/qicore-condition"]},"category":[{"coding":[{"system":"http://terminology.hl7.org/CodeSystem/condition-category","code":"problem-list-item","display":"Problem list Item"}]}],"code":{"coding":[{"system":"http://snomed.info/sct","code":"120041000119109","display":"Atrial fibrillation with rapid ventricular response (disorder)","userSelected":true}]},"subject":{"reference":"Patient/efad4991-4382-4ceb-8bc4-32e8ac088e47"},"onsetPeriod":{"start":"2026-12-09T08:00:00.000+00:00"}},"request":{"method":"PUT","url":"Condition/0c30fdb6-7911-4694-9a9f-318a47b6a59f"}},{"fullUrl":"https://madie.cms.gov/MedicationAdministration/ad9a2b7f-873c-4751-b324-7016d4b21e5d","resource":{"resourceType":"MedicationAdministration","id":"ad9a2b7f-873c-4751-b324-7016d4b21e5d","meta":{"profile":["http://hl7.org/fhir/us/qicore/StructureDefinition/qicore-medicationadministration"]},"status":"completed","medicationCodeableConcept":{"coding":[{"system":"http://www.nlm.nih.gov/research/umls/rxnorm","code":"1364435","display":"apixaban 2.5 MG Oral Tablet"}]},"subject":{"reference":"Patient/efad4991-4382-4ceb-8bc4-32e8ac088e47"},"effectivePeriod":{"start":"2026-12-05T11:00:00+00:00"}},"request":{"method":"PUT","url":"MedicationAdministration/ad9a2b7f-873c-4751-b324-7016d4b21e5d"}},{"fullUrl":"https://madie.cms.gov/Procedure/3f1d66db-7c31-463e-9c17-abd78df51d28","resource":{"resourceType":"Procedure","id":"3f1d66db-7c31-463e-9c17-abd78df51d28","meta":{"profile":["http://hl7.org/fhir/us/qicore/StructureDefinition/qicore-procedure"]},"extension":[{"url":"http://hl7.org/fhir/us/qicore/StructureDefinition/qicore-recorded","valueDateTime":"2013-12-04T09:35:00-04:00"}],"status":"completed","code":{"coding":[{"system":"http://snomed.info/sct","code":"18946005"}]},"subject":{"reference":"Patient/efad4991-4382-4ceb-8bc4-32e8ac088e47"},"performedPeriod":{"start":"2026-12-05T10:00:00+00:00","end":"2026-12-05T11:00:00+00:00"}},"request":{"method":"PUT","url":"Procedure/3f1d66db-7c31-463e-9c17-abd78df51d28"}},{"fullUrl":"https://madie.cms.gov/Location/39ea2f93-6674-4e07-8fc7-5dcb7e512d7e","resource":{"resourceType":"Location","id":"39ea2f93-6674-4e07-8fc7-5dcb7e512d7e","meta":{"profile":["http://hl7.org/fhir/us/qicore/StructureDefinition/qicore-location"]},"identifier":[{"use":"usual","system":"http://exampleoflocation.com","value":"B1-S.F2"}],"name":"Medical Surgical East, first floor","type":[{"coding":[{"system":"https://www.cdc.gov/nhsn/cdaportal/terminology/codesystem/hsloc.html","code":"1025-6","display":"Trauma Critical Care","userSelected":true}]}]},"request":{"method":"PUT","url":"Location/39ea2f93-6674-4e07-8fc7-5dcb7e512d7e"}},{"fullUrl":"https://madie.cms.gov/Organization/9090aa4f-85ef-464b-8b40-97495e3b6b58","resource":{"resourceType":"Organization","id":"3778262e-e084-4bb5-9a47-1a144735f786","meta":{"profile":["http://hl7.org/fhir/us/qicore/StructureDefinition/qicore-organization"]},"identifier":[{"use":"temp","system":"urn:oid:2.16.840.1.113883.4.4","value":"21-3259825"}],"active":true,"type":[{"coding":[{"system":"http://terminology.hl7.org/CodeSystem/organization-type","code":"pay","display":"Payer"}]}],"name":"Blue Cross Blue Shield of Texas","telecom":[{"system":"phone","value":"(+1) 972-766-6900"}],"address":[{"use":"billing","type":"postal","line":["P.O. Box 660044"],"city":"Dallas","state":"TX","postalCode":"75266-0044","country":"USA"}]},"request":{"method":"PUT","url":"Organization/3778262e-e084-4bb5-9a47-1a144735f786"}},{"fullUrl":"https://madie.cms.gov/Practitioner/a3aaf9de-4df2-469b-b646-facda4238d2b","resource":{"resourceType":"Practitioner","id":"a3aaf9de-4df2-469b-b646-facda4238d2b","identifier":[{"system":"http://hl7.org/fhir/sid/us-npi","value":"123456"}],"name":[{"family":"Evil","prefix":["Dr"]}]},"request":{"method":"PUT","url":"Practitioner/a3aaf9de-4df2-469b-b646-facda4238d2b"}},{"fullUrl":"https://madie.cms.gov/MeasureReport/a8280394-a87a-4722-a3ef-fb9f71e9af6f","resource":{"resourceType":"MeasureReport","id":"a8280394-a87a-4722-a3ef-fb9f71e9af6f","meta":{"profile":["http://hl7.org/fhir/us/cqfmeasures/StructureDefinition/test-case-cqfm"]},"contained":[{"resourceType":"Parameters","id":"723bd3da-1633-4686-8406-e8ef588d2ab3-parameters","parameter":[{"name":"subject","valueString":"efad4991-4382-4ceb-8bc4-32e8ac088e47"}]}],"extension":[{"url":"http://hl7.org/fhir/us/cqfmeasures/StructureDefinition/cqfm-inputParameters","valueReference":{"reference":"#723bd3da-1633-4686-8406-e8ef588d2ab3-parameters"}},{"url":"http://hl7.org/fhir/us/cqfmeasures/StructureDefinition/cqfm-testCaseDescription","valueMarkdown":"factor Xa administered concurrent with end of neuraxial anesthesia concurrent with ICU transfer\n"}],"modifierExtension":[{"url":"http://hl7.org/fhir/us/cqfmeasures/StructureDefinition/cqfm-isTestCase","valueBoolean":true}],"status":"complete","type":"individual","measure":"https://madie.cms.gov/Measure/CMS190VTEProphylaxisICUFHIR","period":{"start":"2026-01-01","end":"2026-12-31"},"group":[{"population":[{"code":{"coding":[{"system":"http://terminology.hl7.org/CodeSystem/measure-population","code":"initial-population","display":"Initial Population"}]},"count":1},{"code":{"coding":[{"system":"http://terminology.hl7.org/CodeSystem/measure-population","code":"denominator","display":"Denominator"}]},"count":1},{"code":{"coding":[{"system":"http://terminology.hl7.org/CodeSystem/measure-population","code":"denominator-exclusion","display":"Denominator Exclusion"}]},"count":0},{"code":{"coding":[{"system":"http://terminology.hl7.org/CodeSystem/measure-population","code":"numerator","display":"Numerator"}]},"count":1},{"code":{"coding":[{"system":"http://terminology.hl7.org/CodeSystem/measure-population","code":"denominator-exception","display":"Denominator Exception"}]},"count":0}]}]},"request":{"method":"PUT","url":"MeasureReport/a8280394-a87a-4722-a3ef-fb9f71e9af6f"}}]}