{"resourceType":"Bundle","id":"tests-d665c40d-2323-471f-9642-983472d2be7b-bundle","type":"transaction","entry":[{"fullUrl":"https://madie.cms.gov/Patient/d665c40d-2323-471f-9642-983472d2be7b","resource":{"resourceType":"Patient","id":"d665c40d-2323-471f-9642-983472d2be7b","meta":{"profile":["http://hl7.org/fhir/us/qicore/StructureDefinition/qicore-patient"]},"text":{"status":"generated","div":"<div xmlns=\"http://www.w3.org/1999/xhtml\"><div class=\"hapiHeaderText\">GeneralSurgeryEndsDayOfAfterICUStart <b>DENEXPASS </b></div><table class=\"hapiPropertyTable\"><tbody><tr><td>Identifier</td><td>9214f043f436048cfea186089d4ffb3f1663d62344799d81208efc969b033c47</td></tr><tr><td>Date of birth</td><td><span>03 March 1974</span></td></tr></tbody></table></div>"},"extension":[{"url":"http://hl7.org/fhir/us/core/StructureDefinition/us-core-race","extension":[{"url":"ombCategory","valueCoding":{"system":"urn:oid:2.16.840.1.113883.6.238","code":"1002-5","display":"American Indian or Alaska Native","userSelected":true}},{"url":"text","valueString":"American Indian or Alaska Native"}]},{"url":"http://hl7.org/fhir/us/core/StructureDefinition/us-core-ethnicity","extension":[{"url":"ombCategory","valueCoding":{"system":"urn:oid:2.16.840.1.113883.6.238","code":"2135-2","display":"Hispanic or Latino","userSelected":true}},{"url":"text","valueString":"Hispanic or Latino"}]}],"identifier":[{"type":{"coding":[{"system":"http://terminology.hl7.org/CodeSystem/v2-0203","code":"MR"}]},"system":"https://bonnie-fhir.healthit.gov/","value":"612e6f6202c62a011f2f1a06"}],"active":true,"name":[{"use":"usual","family":"DENEXPass","given":["GeneralSurgeryEndsDayOfAfterICUStart"]}],"gender":"male","birthDate":"1975-03-03"},"request":{"method":"PUT","url":"Patient/d665c40d-2323-471f-9642-983472d2be7b"}},{"fullUrl":"https://madie.cms.gov/Encounter/dd38bbbc-6937-4d31-91f1-6154bff41d95","resource":{"resourceType":"Encounter","id":"dd38bbbc-6937-4d31-91f1-6154bff41d95","meta":{"profile":["http://hl7.org/fhir/us/qicore/StructureDefinition/qicore-encounter"]},"extension":[{"url":"http://hl7.org/fhir/us/qicore/StructureDefinition/qicore-encounter-procedure","extension":[{"url":"type","valueCodeableConcept":{"coding":[{"system":"http://www.cms.gov/Medicare/Coding/ICD10","code":"0U500ZZ"}]}},{"url":"rank","valuePositiveInt":1},{"url":"procedure","valueReference":{"reference":"Procedure/d0a3c812-1a66-414d-88d0-d17a5dae403a"}}]}],"status":"finished","class":{"system":"http://terminology.hl7.org/CodeSystem/v3-ActCode","code":"IMP","display":"inpatient encounter"},"type":[{"coding":[{"system":"http://snomed.info/sct","code":"8715000"}]}],"subject":{"reference":"Patient/d665c40d-2323-471f-9642-983472d2be7b"},"period":{"start":"2026-12-04T08:00:00+00:00","end":"2026-12-30T08:15:00+00:00"},"length":{"value":26.0,"unit":"days"},"location":[{"location":{"reference":"Location/80ef694d-35c5-4268-9766-2b1a516cd707"},"period":{"start":"2026-12-06T05:00:00+00:00","end":"2026-12-28T08:15:00.000+00:00"}}]},"request":{"method":"PUT","url":"Encounter/dd38bbbc-6937-4d31-91f1-6154bff41d95"}},{"fullUrl":"https://madie.cms.gov/Coverage/5a735cc7-b4bf-4e9b-a8ce-d50014681e2f","resource":{"resourceType":"Coverage","id":"5a735cc7-b4bf-4e9b-a8ce-d50014681e2f","status":"active","beneficiary":{"reference":"Patient/d665c40d-2323-471f-9642-983472d2be7b"},"period":{"start":"1975-03-03T08:00:00+00:00"},"payor":[{"reference":"Organization/890316dc-a4ad-43b4-ba6f-9fb9e6eca282"}]},"request":{"method":"PUT","url":"Coverage/5a735cc7-b4bf-4e9b-a8ce-d50014681e2f"}},{"fullUrl":"https://madie.cms.gov/Procedure/d0a3c812-1a66-414d-88d0-d17a5dae403a","resource":{"resourceType":"Procedure","id":"d0a3c812-1a66-414d-88d0-d17a5dae403a","meta":{"profile":["http://hl7.org/fhir/us/qicore/StructureDefinition/qicore-procedure"]},"extension":[{"url":"http://hl7.org/fhir/us/qicore/StructureDefinition/qicore-recorded","valueDateTime":"2013-12-04T09:35:00-04:00"}],"status":"completed","code":{"coding":[{"system":"http://www.cms.gov/Medicare/Coding/ICD10","code":"0U500ZZ"}]},"subject":{"reference":"Patient/d665c40d-2323-471f-9642-983472d2be7b"},"performedPeriod":{"start":"2026-12-06T07:00:00+00:00","end":"2026-12-06T13:00:00+00:00"}},"request":{"method":"PUT","url":"Procedure/d0a3c812-1a66-414d-88d0-d17a5dae403a"}},{"fullUrl":"https://madie.cms.gov/Location/80ef694d-35c5-4268-9766-2b1a516cd707","resource":{"resourceType":"Location","id":"80ef694d-35c5-4268-9766-2b1a516cd707","meta":{"profile":["http://hl7.org/fhir/us/qicore/StructureDefinition/qicore-location"]},"identifier":[{"use":"usual","system":"http://exampleoflocation.com","value":"B1-S.F2"}],"name":"Medical Surgical East, first floor","type":[{"coding":[{"system":"https://www.cdc.gov/nhsn/cdaportal/terminology/codesystem/hsloc.html","code":"1025-6","display":"Trauma Critical Care","userSelected":true}]}]},"request":{"method":"PUT","url":"Location/80ef694d-35c5-4268-9766-2b1a516cd707"}},{"fullUrl":"https://madie.cms.gov/Organization/78ab5c52-c049-4b20-9d40-cd3e1b1ff8ed","resource":{"resourceType":"Organization","id":"890316dc-a4ad-43b4-ba6f-9fb9e6eca282","meta":{"profile":["http://hl7.org/fhir/us/qicore/StructureDefinition/qicore-organization"]},"identifier":[{"use":"temp","system":"urn:oid:2.16.840.1.113883.4.4","value":"21-3259825"}],"active":true,"type":[{"coding":[{"system":"http://terminology.hl7.org/CodeSystem/organization-type","code":"pay","display":"Payer"}]}],"name":"Blue Cross Blue Shield of Texas","telecom":[{"system":"phone","value":"(+1) 972-766-6900"}],"address":[{"use":"billing","type":"postal","line":["P.O. Box 660044"],"city":"Dallas","state":"TX","postalCode":"75266-0044","country":"USA"}]},"request":{"method":"PUT","url":"Organization/890316dc-a4ad-43b4-ba6f-9fb9e6eca282"}},{"fullUrl":"https://madie.cms.gov/Practitioner/ff9841de-fd69-42fe-96ed-8b0584e11070","resource":{"resourceType":"Practitioner","id":"ff9841de-fd69-42fe-96ed-8b0584e11070","identifier":[{"system":"http://hl7.org/fhir/sid/us-npi","value":"123456"}],"name":[{"family":"Evil","prefix":["Dr"]}]},"request":{"method":"PUT","url":"Practitioner/ff9841de-fd69-42fe-96ed-8b0584e11070"}},{"fullUrl":"https://madie.cms.gov/MeasureReport/09bbf9c8-4b0f-4a01-8aba-978ab88895e2","resource":{"resourceType":"MeasureReport","id":"09bbf9c8-4b0f-4a01-8aba-978ab88895e2","meta":{"profile":["http://hl7.org/fhir/us/cqfmeasures/StructureDefinition/test-case-cqfm"]},"contained":[{"resourceType":"Parameters","id":"c5a90b44-6eef-4dd1-a020-63c1f834b60a-parameters","parameter":[{"name":"subject","valueString":"d665c40d-2323-471f-9642-983472d2be7b"}]}],"extension":[{"url":"http://hl7.org/fhir/us/cqfmeasures/StructureDefinition/cqfm-inputParameters","valueReference":{"reference":"#c5a90b44-6eef-4dd1-a020-63c1f834b60a-parameters"}},{"url":"http://hl7.org/fhir/us/cqfmeasures/StructureDefinition/cqfm-testCaseDescription","valueMarkdown":"gynecological surgery ends same day after start of ICU admission. \n"}],"modifierExtension":[{"url":"http://hl7.org/fhir/us/cqfmeasures/StructureDefinition/cqfm-isTestCase","valueBoolean":true}],"status":"complete","type":"individual","measure":"https://madie.cms.gov/Measure/CMS190VTEProphylaxisICUFHIR","period":{"start":"2026-01-01","end":"2026-12-31"},"group":[{"population":[{"code":{"coding":[{"system":"http://terminology.hl7.org/CodeSystem/measure-population","code":"initial-population","display":"Initial Population"}]},"count":1},{"code":{"coding":[{"system":"http://terminology.hl7.org/CodeSystem/measure-population","code":"denominator","display":"Denominator"}]},"count":1},{"code":{"coding":[{"system":"http://terminology.hl7.org/CodeSystem/measure-population","code":"denominator-exclusion","display":"Denominator Exclusion"}]},"count":1},{"code":{"coding":[{"system":"http://terminology.hl7.org/CodeSystem/measure-population","code":"numerator","display":"Numerator"}]},"count":0},{"code":{"coding":[{"system":"http://terminology.hl7.org/CodeSystem/measure-population","code":"denominator-exception","display":"Denominator Exception"}]},"count":0}]}]},"request":{"method":"PUT","url":"MeasureReport/09bbf9c8-4b0f-4a01-8aba-978ab88895e2"}}]}