{"resourceType":"Bundle","id":"tests-2a49e02a-3b3c-4c0c-940f-6ed02318dac3-bundle","type":"transaction","entry":[{"fullUrl":"https://madie.cms.gov/Patient/2a49e02a-3b3c-4c0c-940f-6ed02318dac3","resource":{"resourceType":"Patient","id":"2a49e02a-3b3c-4c0c-940f-6ed02318dac3","meta":{"profile":["http://hl7.org/fhir/us/qicore/StructureDefinition/qicore-patient"]},"text":{"status":"generated","div":"<div xmlns=\"http://www.w3.org/1999/xhtml\"><div class=\"hapiHeaderText\">DxVTEEnds1MinB4Enc <b>IPPASS </b></div><table class=\"hapiPropertyTable\"><tbody><tr><td>Identifier</td><td>15831b441c89561ff164a7e768ea0c51</td></tr><tr><td>Date of birth</td><td><span>03 March 1974</span></td></tr></tbody></table></div>"},"extension":[{"url":"http://hl7.org/fhir/us/core/StructureDefinition/us-core-race","extension":[{"url":"ombCategory","valueCoding":{"system":"urn:oid:2.16.840.1.113883.6.238","code":"1002-5","display":"American Indian or Alaska Native","userSelected":true}},{"url":"text","valueString":"American Indian or Alaska Native"}]},{"url":"http://hl7.org/fhir/us/core/StructureDefinition/us-core-ethnicity","extension":[{"url":"ombCategory","valueCoding":{"system":"urn:oid:2.16.840.1.113883.6.238","code":"2186-5","display":"Not Hispanic or Latino","userSelected":true}},{"url":"text","valueString":"Not Hispanic or Latino"}]}],"identifier":[{"type":{"coding":[{"system":"http://terminology.hl7.org/CodeSystem/v2-0203","code":"MR"}]},"system":"https://bonnie-fhir.healthit.gov/","value":"612e6ebe02c62a011f2ef6d6"}],"active":true,"name":[{"use":"usual","family":"IPPass","given":["DxVTEEnds1MinB4Enc"]}],"gender":"female","birthDate":"1975-03-03"},"request":{"method":"PUT","url":"Patient/2a49e02a-3b3c-4c0c-940f-6ed02318dac3"}},{"fullUrl":"https://madie.cms.gov/Encounter/8a9efdb7-7b0f-4dec-bd8a-50472481fc36","resource":{"resourceType":"Encounter","id":"8a9efdb7-7b0f-4dec-bd8a-50472481fc36","meta":{"profile":["http://hl7.org/fhir/us/qicore/StructureDefinition/qicore-encounter"]},"status":"finished","class":{"system":"http://terminology.hl7.org/CodeSystem/v3-ActCode","code":"IMP","display":"inpatient encounter"},"type":[{"coding":[{"system":"http://snomed.info/sct","code":"8715000","display":"Hospital admission, elective (procedure)"}]}],"subject":{"reference":"Patient/2a49e02a-3b3c-4c0c-940f-6ed02318dac3"},"period":{"start":"2026-12-01T00:00:00+00:00","end":"2026-12-31T23:59:00+00:00"},"length":{"value":30.0,"unit":"days"}},"request":{"method":"PUT","url":"Encounter/8a9efdb7-7b0f-4dec-bd8a-50472481fc36"}},{"fullUrl":"https://madie.cms.gov/Coverage/bdda8ec9-62b2-46bf-a94d-d569920fd0cf","resource":{"resourceType":"Coverage","id":"bdda8ec9-62b2-46bf-a94d-d569920fd0cf","status":"active","beneficiary":{"reference":"Patient/2a49e02a-3b3c-4c0c-940f-6ed02318dac3"},"period":{"start":"1975-03-03T08:00:00+00:00"},"payor":[{"reference":"Organization/4da248b0-6e59-49b7-b80e-338aa21d299f"}]},"request":{"method":"PUT","url":"Coverage/bdda8ec9-62b2-46bf-a94d-d569920fd0cf"}},{"fullUrl":"https://madie.cms.gov/Condition/d1b4a9c1-5dd9-4e0f-adbe-2546d0a7c952","resource":{"resourceType":"Condition","id":"d1b4a9c1-5dd9-4e0f-adbe-2546d0a7c952","meta":{"profile":["http://hl7.org/fhir/us/qicore/StructureDefinition/qicore-condition"]},"clinicalStatus":{"coding":[{"system":"http://terminology.hl7.org/CodeSystem/condition-clinical","code":"active"}]},"verificationStatus":{"coding":[{"system":"http://terminology.hl7.org/CodeSystem/condition-ver-status","code":"confirmed"}]},"category":[{"coding":[{"system":"http://terminology.hl7.org/CodeSystem/condition-category","code":"problem-list-item","display":"Problem List Item"}]}],"code":{"coding":[{"system":"http://snomed.info/sct","code":"132251000119101"}]},"subject":{"reference":"Patient/2a49e02a-3b3c-4c0c-940f-6ed02318dac3"},"onsetPeriod":{"start":"2026-11-01T00:00:00+00:00","end":"2026-11-30T23:59:00+00:00"}},"request":{"method":"PUT","url":"Condition/d1b4a9c1-5dd9-4e0f-adbe-2546d0a7c952"}},{"fullUrl":"https://madie.cms.gov/Organization/d08ced41-051e-4eaf-a6a6-0b42e552e21f","resource":{"resourceType":"Organization","id":"4da248b0-6e59-49b7-b80e-338aa21d299f","meta":{"profile":["http://hl7.org/fhir/us/qicore/StructureDefinition/qicore-organization"]},"identifier":[{"use":"temp","system":"urn:oid:2.16.840.1.113883.4.4","value":"21-3259825"}],"active":true,"type":[{"coding":[{"system":"http://terminology.hl7.org/CodeSystem/organization-type","code":"pay","display":"Payer"}]}],"name":"Blue Cross Blue Shield of Texas","telecom":[{"system":"phone","value":"(+1) 972-766-6900"}],"address":[{"use":"billing","type":"postal","line":["P.O. Box 660044"],"city":"Dallas","state":"TX","postalCode":"75266-0044","country":"USA"}]},"request":{"method":"PUT","url":"Organization/4da248b0-6e59-49b7-b80e-338aa21d299f"}},{"fullUrl":"https://madie.cms.gov/MeasureReport/c5eb6f21-3051-4f94-a89d-763bfce53ff5","resource":{"resourceType":"MeasureReport","id":"c5eb6f21-3051-4f94-a89d-763bfce53ff5","meta":{"profile":["http://hl7.org/fhir/us/cqfmeasures/StructureDefinition/test-case-cqfm"]},"contained":[{"resourceType":"Parameters","id":"bd4180b6-71fe-424b-900c-954d2c1a404f-parameters","parameter":[{"name":"subject","valueString":"2a49e02a-3b3c-4c0c-940f-6ed02318dac3"}]}],"extension":[{"url":"http://hl7.org/fhir/us/cqfmeasures/StructureDefinition/cqfm-inputParameters","valueReference":{"reference":"#bd4180b6-71fe-424b-900c-954d2c1a404f-parameters"}},{"url":"http://hl7.org/fhir/us/cqfmeasures/StructureDefinition/cqfm-testCaseDescription","valueMarkdown":"DxVTE ends 1 min prior to inpatient admission start"}],"modifierExtension":[{"url":"http://hl7.org/fhir/us/cqfmeasures/StructureDefinition/cqfm-isTestCase","valueBoolean":true}],"status":"complete","type":"individual","measure":"https://madie.cms.gov/Measure/CMS190VTEProphylaxisICUFHIR","period":{"start":"2026-01-01","end":"2026-12-31"},"group":[{"population":[{"code":{"coding":[{"system":"http://terminology.hl7.org/CodeSystem/measure-population","code":"initial-population","display":"Initial Population"}]},"count":1},{"code":{"coding":[{"system":"http://terminology.hl7.org/CodeSystem/measure-population","code":"denominator","display":"Denominator"}]},"count":0},{"code":{"coding":[{"system":"http://terminology.hl7.org/CodeSystem/measure-population","code":"denominator-exclusion","display":"Denominator Exclusion"}]},"count":0},{"code":{"coding":[{"system":"http://terminology.hl7.org/CodeSystem/measure-population","code":"numerator","display":"Numerator"}]},"count":0},{"code":{"coding":[{"system":"http://terminology.hl7.org/CodeSystem/measure-population","code":"denominator-exception","display":"Denominator Exception"}]},"count":0}]}]},"request":{"method":"PUT","url":"MeasureReport/c5eb6f21-3051-4f94-a89d-763bfce53ff5"}}]}