{"resourceType":"Bundle","id":"tests-78462b04-df13-44a5-bb24-729dfbdcfccf-bundle","type":"transaction","entry":[{"fullUrl":"https://madie.cms.gov/Patient/78462b04-df13-44a5-bb24-729dfbdcfccf","resource":{"resourceType":"Patient","id":"78462b04-df13-44a5-bb24-729dfbdcfccf","meta":{"profile":["http://hl7.org/fhir/us/qicore/StructureDefinition/qicore-patient"]},"text":{"status":"generated","div":"<div xmlns=\"http://www.w3.org/1999/xhtml\"><div class=\"hapiHeaderText\">LOSLT2Days <b>DENEXPASS </b></div><table class=\"hapiPropertyTable\"><tbody><tr><td>Identifier</td><td>89c2e418c9727592f5380d634f63eb21</td></tr><tr><td>Date of birth</td><td><span>03 March 1974</span></td></tr></tbody></table></div>"},"extension":[{"url":"http://hl7.org/fhir/us/core/StructureDefinition/us-core-race","extension":[{"url":"ombCategory","valueCoding":{"system":"urn:oid:2.16.840.1.113883.6.238","code":"1002-5","display":"American Indian or Alaska Native","userSelected":true}},{"url":"text","valueString":"American Indian or Alaska Native"}]},{"url":"http://hl7.org/fhir/us/core/StructureDefinition/us-core-ethnicity","extension":[{"url":"ombCategory","valueCoding":{"system":"urn:oid:2.16.840.1.113883.6.238","code":"2135-2","display":"Hispanic or Latino","userSelected":true}},{"url":"text","valueString":"Hispanic or Latino"}]}],"identifier":[{"type":{"coding":[{"system":"http://terminology.hl7.org/CodeSystem/v2-0203","code":"MR"}]},"system":"https://bonnie-fhir.healthit.gov/","value":"612e6eb102c62a011f2ef420"}],"active":true,"name":[{"use":"usual","family":"DENEXPass","given":["LOSLT2Days"]}],"gender":"female","birthDate":"1975-03-03"},"request":{"method":"PUT","url":"Patient/78462b04-df13-44a5-bb24-729dfbdcfccf"}},{"fullUrl":"https://madie.cms.gov/Encounter/f618c47c-cab0-4e7f-8a19-711f1f636664","resource":{"resourceType":"Encounter","id":"f618c47c-cab0-4e7f-8a19-711f1f636664","meta":{"profile":["http://hl7.org/fhir/us/qicore/StructureDefinition/qicore-encounter"]},"status":"finished","class":{"system":"http://terminology.hl7.org/CodeSystem/v3-ActCode","code":"IMP","display":"inpatient encounter"},"type":[{"coding":[{"system":"http://snomed.info/sct","code":"8715000"}]}],"subject":{"reference":"Patient/78462b04-df13-44a5-bb24-729dfbdcfccf"},"period":{"start":"2026-12-04T08:00:00+00:00","end":"2026-12-05T18:15:00+00:00"},"length":{"value":1.0,"unit":"days"},"location":[{"location":{"reference":"Location/5f109905-0d92-49af-810a-5e73bcec9f89"},"period":{"start":"2026-12-04T09:15:00.000+00:00","end":"2026-12-05T00:15:00.000+00:00"}}]},"request":{"method":"PUT","url":"Encounter/f618c47c-cab0-4e7f-8a19-711f1f636664"}},{"fullUrl":"https://madie.cms.gov/Coverage/2fdfe832-c552-4783-8e58-5ad400a23024","resource":{"resourceType":"Coverage","id":"2fdfe832-c552-4783-8e58-5ad400a23024","status":"active","beneficiary":{"reference":"Patient/78462b04-df13-44a5-bb24-729dfbdcfccf"},"period":{"start":"1975-03-03T08:00:00+00:00"},"payor":[{"reference":"Organization/3778262e-e084-4bb5-9a47-1a144735f786"}]},"request":{"method":"PUT","url":"Coverage/2fdfe832-c552-4783-8e58-5ad400a23024"}},{"fullUrl":"https://madie.cms.gov/Location/5f109905-0d92-49af-810a-5e73bcec9f89","resource":{"resourceType":"Location","id":"5f109905-0d92-49af-810a-5e73bcec9f89","meta":{"profile":["http://hl7.org/fhir/us/qicore/StructureDefinition/qicore-location"]},"identifier":[{"use":"usual","system":"http://exampleoflocation.com","value":"B1-S.F2"}],"name":"Medical Surgical East, first floor","type":[{"coding":[{"system":"https://www.cdc.gov/nhsn/cdaportal/terminology/codesystem/hsloc.html","code":"1025-6","display":"Trauma Critical Care","userSelected":true}]}]},"request":{"method":"PUT","url":"Location/5f109905-0d92-49af-810a-5e73bcec9f89"}},{"fullUrl":"https://madie.cms.gov/Organization/23c86a15-60d3-4210-a448-d1e5213adf4c","resource":{"resourceType":"Organization","id":"3778262e-e084-4bb5-9a47-1a144735f786","meta":{"profile":["http://hl7.org/fhir/us/qicore/StructureDefinition/qicore-organization"]},"identifier":[{"use":"temp","system":"urn:oid:2.16.840.1.113883.4.4","value":"21-3259825"}],"active":true,"type":[{"coding":[{"system":"http://terminology.hl7.org/CodeSystem/organization-type","code":"pay","display":"Payer"}]}],"name":"Blue Cross Blue Shield of Texas","telecom":[{"system":"phone","value":"(+1) 972-766-6900"}],"address":[{"use":"billing","type":"postal","line":["P.O. Box 660044"],"city":"Dallas","state":"TX","postalCode":"75266-0044","country":"USA"}]},"request":{"method":"PUT","url":"Organization/3778262e-e084-4bb5-9a47-1a144735f786"}},{"fullUrl":"https://madie.cms.gov/Practitioner/e43e9207-2740-401a-a383-fe3c24023719","resource":{"resourceType":"Practitioner","id":"e43e9207-2740-401a-a383-fe3c24023719","identifier":[{"system":"http://hl7.org/fhir/sid/us-npi","value":"123456"}],"name":[{"family":"Evil","prefix":["Dr"]}]},"request":{"method":"PUT","url":"Practitioner/e43e9207-2740-401a-a383-fe3c24023719"}},{"fullUrl":"https://madie.cms.gov/MeasureReport/946e2595-a1c3-42ef-baa1-5c25910022fa","resource":{"resourceType":"MeasureReport","id":"946e2595-a1c3-42ef-baa1-5c25910022fa","meta":{"profile":["http://hl7.org/fhir/us/cqfmeasures/StructureDefinition/test-case-cqfm"]},"contained":[{"resourceType":"Parameters","id":"32554956-b1be-4fb8-a65d-2fbe0b15a869-parameters","parameter":[{"name":"subject","valueString":"78462b04-df13-44a5-bb24-729dfbdcfccf"}]}],"extension":[{"url":"http://hl7.org/fhir/us/cqfmeasures/StructureDefinition/cqfm-inputParameters","valueReference":{"reference":"#32554956-b1be-4fb8-a65d-2fbe0b15a869-parameters"}},{"url":"http://hl7.org/fhir/us/cqfmeasures/StructureDefinition/cqfm-testCaseDescription","valueMarkdown":"Encounter with ICU stay, but hospital LOS =1 days"}],"modifierExtension":[{"url":"http://hl7.org/fhir/us/cqfmeasures/StructureDefinition/cqfm-isTestCase","valueBoolean":true}],"status":"complete","type":"individual","measure":"https://madie.cms.gov/Measure/CMS190VTEProphylaxisICUFHIR","period":{"start":"2026-01-01","end":"2026-12-31"},"group":[{"population":[{"code":{"coding":[{"system":"http://terminology.hl7.org/CodeSystem/measure-population","code":"initial-population","display":"Initial Population"}]},"count":1},{"code":{"coding":[{"system":"http://terminology.hl7.org/CodeSystem/measure-population","code":"denominator","display":"Denominator"}]},"count":1},{"code":{"coding":[{"system":"http://terminology.hl7.org/CodeSystem/measure-population","code":"denominator-exclusion","display":"Denominator Exclusion"}]},"count":1},{"code":{"coding":[{"system":"http://terminology.hl7.org/CodeSystem/measure-population","code":"numerator","display":"Numerator"}]},"count":0},{"code":{"coding":[{"system":"http://terminology.hl7.org/CodeSystem/measure-population","code":"denominator-exception","display":"Denominator Exception"}]},"count":0}]}]},"request":{"method":"PUT","url":"MeasureReport/946e2595-a1c3-42ef-baa1-5c25910022fa"}}]}