{"resourceType":"Bundle","id":"tests-f8f09c1f-37fc-4088-a39d-710971b626b7-bundle","type":"transaction","entry":[{"fullUrl":"https://madie.cms.gov/Patient/f8f09c1f-37fc-4088-a39d-710971b626b7","resource":{"resourceType":"Patient","id":"f8f09c1f-37fc-4088-a39d-710971b626b7","meta":{"profile":["http://hl7.org/fhir/us/qicore/StructureDefinition/qicore-patient"]},"text":{"status":"generated","div":"<div xmlns=\"http://www.w3.org/1999/xhtml\"><div class=\"hapiHeaderText\">CMOPerf1minB4EDEDGT1hBFAdm<b>DENEXPASS </b></div><table class=\"hapiPropertyTable\"><tbody><tr><td>Identifier</td><td>a87f61f9ee97e4d61378f0c75a641367aa32c8b61235755a5325165362b79a51</td></tr><tr><td>Date of birth</td><td><span>03 March 1974</span></td></tr></tbody></table></div>"},"extension":[{"url":"http://hl7.org/fhir/us/core/StructureDefinition/us-core-race","extension":[{"url":"ombCategory","valueCoding":{"system":"urn:oid:2.16.840.1.113883.6.238","code":"1002-5","display":"American Indian or Alaska Native","userSelected":true}},{"url":"text","valueString":"American Indian or Alaska Native"}]},{"url":"http://hl7.org/fhir/us/core/StructureDefinition/us-core-ethnicity","extension":[{"url":"ombCategory","valueCoding":{"system":"urn:oid:2.16.840.1.113883.6.238","code":"2135-2","display":"Hispanic or Latino","userSelected":true}},{"url":"text","valueString":"Hispanic or Latino"}]}],"identifier":[{"type":{"coding":[{"system":"http://terminology.hl7.org/CodeSystem/v2-0203","code":"MR"}]},"system":"https://bonnie-fhir.healthit.gov/","value":"612e6e7b02c62a011f2ee895"}],"active":true,"name":[{"use":"usual","family":"DENEXPass","given":["CMOPerf1minB4EDEDGT1hBFAdm"]}],"gender":"female","birthDate":"1975-03-03"},"request":{"method":"PUT","url":"Patient/f8f09c1f-37fc-4088-a39d-710971b626b7"}},{"fullUrl":"https://madie.cms.gov/Encounter/c3193b7a-f07a-4c65-a789-8bca798d2c43","resource":{"resourceType":"Encounter","id":"c3193b7a-f07a-4c65-a789-8bca798d2c43","meta":{"profile":["http://hl7.org/fhir/us/qicore/StructureDefinition/qicore-encounter"]},"status":"finished","class":{"system":"http://terminology.hl7.org/CodeSystem/v3-ActCode","code":"EMER","display":"emergency"},"type":[{"coding":[{"system":"http://snomed.info/sct","code":"4525004"}]}],"subject":{"reference":"Patient/f8f09c1f-37fc-4088-a39d-710971b626b7"},"period":{"start":"2026-12-04T06:00:00+00:00","end":"2026-12-04T06:30:00+00:00"},"length":{"value":0.0,"unit":"days"}},"request":{"method":"PUT","url":"Encounter/c3193b7a-f07a-4c65-a789-8bca798d2c43"}},{"fullUrl":"https://madie.cms.gov/Encounter/7c7b99bf-90c4-4ec7-a16a-51f4b98c0a27","resource":{"resourceType":"Encounter","id":"7c7b99bf-90c4-4ec7-a16a-51f4b98c0a27","meta":{"profile":["http://hl7.org/fhir/us/qicore/StructureDefinition/qicore-encounter"]},"status":"finished","class":{"system":"http://terminology.hl7.org/CodeSystem/v3-ActCode","code":"IMP","display":"inpatient encounter"},"type":[{"coding":[{"system":"http://snomed.info/sct","code":"8715000"}]}],"subject":{"reference":"Patient/f8f09c1f-37fc-4088-a39d-710971b626b7"},"period":{"start":"2026-12-04T08:00:00+00:00","end":"2026-12-30T08:15:00+00:00"},"length":{"value":26.0,"unit":"days"},"location":[{"location":{"reference":"Location/6adfbe0f-b23a-4e63-a01d-cef5ce6291be"},"period":{"start":"2026-12-26T08:00:00.000+00:00","end":"2026-12-28T08:15:00.000+00:00"}}]},"request":{"method":"PUT","url":"Encounter/7c7b99bf-90c4-4ec7-a16a-51f4b98c0a27"}},{"fullUrl":"https://madie.cms.gov/Procedure/df509c87-ea51-4dff-abfd-2b5b6ac3e2b4","resource":{"resourceType":"Procedure","id":"df509c87-ea51-4dff-abfd-2b5b6ac3e2b4","meta":{"profile":["http://hl7.org/fhir/us/qicore/StructureDefinition/qicore-procedure"]},"extension":[{"url":"http://hl7.org/fhir/us/qicore/StructureDefinition/qicore-recorded","valueDateTime":"2013-12-04T09:35:00-04:00"}],"status":"completed","code":{"coding":[{"system":"http://snomed.info/sct","code":"133918004"}]},"subject":{"reference":"Patient/f8f09c1f-37fc-4088-a39d-710971b626b7"},"performedPeriod":{"start":"2026-12-04T05:59:00+00:00"}},"request":{"method":"PUT","url":"Procedure/df509c87-ea51-4dff-abfd-2b5b6ac3e2b4"}},{"fullUrl":"https://madie.cms.gov/Coverage/6a8474b1-a007-4b84-b35d-841c0191c5df","resource":{"resourceType":"Coverage","id":"6a8474b1-a007-4b84-b35d-841c0191c5df","status":"active","beneficiary":{"reference":"Patient/f8f09c1f-37fc-4088-a39d-710971b626b7"},"period":{"start":"1975-03-03T08:00:00+00:00"},"payor":[{"reference":"Organization/5ad6ea38-07e9-4482-9e1b-c09eee595be9"}]},"request":{"method":"PUT","url":"Coverage/6a8474b1-a007-4b84-b35d-841c0191c5df"}},{"fullUrl":"https://madie.cms.gov/Location/6adfbe0f-b23a-4e63-a01d-cef5ce6291be","resource":{"resourceType":"Location","id":"6adfbe0f-b23a-4e63-a01d-cef5ce6291be","meta":{"profile":["http://hl7.org/fhir/us/qicore/StructureDefinition/qicore-location"]},"identifier":[{"use":"usual","system":"http://exampleoflocation.com","value":"B1-S.F2"}],"name":"Medical Surgical East, first floor","type":[{"coding":[{"system":"https://www.cdc.gov/nhsn/cdaportal/terminology/codesystem/hsloc.html","code":"1025-6","display":"Trauma Critical Care","userSelected":true}]}]},"request":{"method":"PUT","url":"Location/6adfbe0f-b23a-4e63-a01d-cef5ce6291be"}},{"fullUrl":"https://madie.cms.gov/Organization/b439c6fb-f77a-482b-a611-8c1d6a2395d4","resource":{"resourceType":"Organization","id":"5ad6ea38-07e9-4482-9e1b-c09eee595be9","meta":{"profile":["http://hl7.org/fhir/us/qicore/StructureDefinition/qicore-organization"]},"identifier":[{"use":"temp","system":"urn:oid:2.16.840.1.113883.4.4","value":"21-3259825"}],"active":true,"type":[{"coding":[{"system":"http://terminology.hl7.org/CodeSystem/organization-type","code":"pay","display":"Payer"}]}],"name":"Blue Cross Blue Shield of Texas","telecom":[{"system":"phone","value":"(+1) 972-766-6900"}],"address":[{"use":"billing","type":"postal","line":["P.O. Box 660044"],"city":"Dallas","state":"TX","postalCode":"75266-0044","country":"USA"}]},"request":{"method":"PUT","url":"Organization/5ad6ea38-07e9-4482-9e1b-c09eee595be9"}},{"fullUrl":"https://madie.cms.gov/Practitioner/c6c09c29-da85-437e-9001-b1c04d9e8bdd","resource":{"resourceType":"Practitioner","id":"c6c09c29-da85-437e-9001-b1c04d9e8bdd","identifier":[{"system":"http://hl7.org/fhir/sid/us-npi","value":"123456"}],"name":[{"family":"Evil","prefix":["Dr"]}]},"request":{"method":"PUT","url":"Practitioner/c6c09c29-da85-437e-9001-b1c04d9e8bdd"}},{"fullUrl":"https://madie.cms.gov/MeasureReport/aa96b1e0-2cc9-4511-b359-daff656bc8a6","resource":{"resourceType":"MeasureReport","id":"aa96b1e0-2cc9-4511-b359-daff656bc8a6","meta":{"profile":["http://hl7.org/fhir/us/cqfmeasures/StructureDefinition/test-case-cqfm"]},"contained":[{"resourceType":"Parameters","id":"b0730552-7c84-4cc9-a62e-40c185d932ed-parameters","parameter":[{"name":"subject","valueString":"f8f09c1f-37fc-4088-a39d-710971b626b7"}]}],"extension":[{"url":"http://hl7.org/fhir/us/cqfmeasures/StructureDefinition/cqfm-inputParameters","valueReference":{"reference":"#b0730552-7c84-4cc9-a62e-40c185d932ed-parameters"}},{"url":"http://hl7.org/fhir/us/cqfmeasures/StructureDefinition/cqfm-testCaseDescription","valueMarkdown":"meets IPP and Denominator, inpatient visit starts >1 hour after the end of ED visit(Global Hosp without Ed) AND Comfort Measures are performed 1 min before Ed. This case pass DenExcl because CM is on the same day as Adm even ED > 1 hr before Adm\n"}],"modifierExtension":[{"url":"http://hl7.org/fhir/us/cqfmeasures/StructureDefinition/cqfm-isTestCase","valueBoolean":true}],"status":"complete","type":"individual","measure":"https://madie.cms.gov/Measure/CMS190VTEProphylaxisICUFHIR","period":{"start":"2026-01-01","end":"2026-12-31"},"group":[{"population":[{"code":{"coding":[{"system":"http://terminology.hl7.org/CodeSystem/measure-population","code":"initial-population","display":"Initial Population"}]},"count":1},{"code":{"coding":[{"system":"http://terminology.hl7.org/CodeSystem/measure-population","code":"denominator","display":"Denominator"}]},"count":1},{"code":{"coding":[{"system":"http://terminology.hl7.org/CodeSystem/measure-population","code":"denominator-exclusion","display":"Denominator Exclusion"}]},"count":1},{"code":{"coding":[{"system":"http://terminology.hl7.org/CodeSystem/measure-population","code":"numerator","display":"Numerator"}]},"count":0},{"code":{"coding":[{"system":"http://terminology.hl7.org/CodeSystem/measure-population","code":"denominator-exception","display":"Denominator Exception"}]},"count":0}]}]},"request":{"method":"PUT","url":"MeasureReport/aa96b1e0-2cc9-4511-b359-daff656bc8a6"}}]}