{"resourceType":"Bundle","id":"tests-8de031c4-05db-42db-b0e5-902696c6e495-bundle","type":"transaction","entry":[{"fullUrl":"https://madie.cms.gov/Patient/8de031c4-05db-42db-b0e5-902696c6e495","resource":{"resourceType":"Patient","id":"8de031c4-05db-42db-b0e5-902696c6e495","meta":{"profile":["http://hl7.org/fhir/us/qicore/StructureDefinition/qicore-patient"]},"text":{"status":"generated","div":"<div xmlns=\"http://www.w3.org/1999/xhtml\"><div class=\"hapiHeaderText\">CMPerfRvltPerStartDayOfICUEndNULL<b>DENEXPASS </b></div><table class=\"hapiPropertyTable\"><tbody><tr><td>Identifier</td><td>2a65a26f9f7578ed1148174b365eff5a</td></tr><tr><td>Date of birth</td><td><span>03 March 1974</span></td></tr></tbody></table></div>"},"extension":[{"url":"http://hl7.org/fhir/us/core/StructureDefinition/us-core-race","extension":[{"url":"ombCategory","valueCoding":{"system":"urn:oid:2.16.840.1.113883.6.238","code":"1002-5","display":"American Indian or Alaska Native","userSelected":true}},{"url":"text","valueString":"American Indian or Alaska Native"}]},{"url":"http://hl7.org/fhir/us/core/StructureDefinition/us-core-ethnicity","extension":[{"url":"ombCategory","valueCoding":{"system":"urn:oid:2.16.840.1.113883.6.238","code":"2135-2","display":"Hispanic or Latino","userSelected":true}},{"url":"text","valueString":"Hispanic or Latino"}]}],"identifier":[{"type":{"coding":[{"system":"http://terminology.hl7.org/CodeSystem/v2-0203","code":"MR"}]},"system":"https://bonnie-fhir.healthit.gov/","value":"612e6f8b02c62a011f2f239e"}],"active":true,"name":[{"use":"usual","family":"DENEXPass","given":["CMPerfRvltPerStartDayOfICUEndNULL"]}],"gender":"female","birthDate":"1975-03-03"},"request":{"method":"PUT","url":"Patient/8de031c4-05db-42db-b0e5-902696c6e495"}},{"fullUrl":"https://madie.cms.gov/Encounter/a21974cc-5c95-4536-808c-0f42597212d8","resource":{"resourceType":"Encounter","id":"a21974cc-5c95-4536-808c-0f42597212d8","meta":{"profile":["http://hl7.org/fhir/us/qicore/StructureDefinition/qicore-encounter"]},"status":"finished","class":{"system":"http://terminology.hl7.org/CodeSystem/v3-ActCode","code":"IMP","display":"inpatient encounter"},"type":[{"coding":[{"system":"http://snomed.info/sct","code":"8715000"}]}],"subject":{"reference":"Patient/8de031c4-05db-42db-b0e5-902696c6e495"},"period":{"start":"2026-12-04T08:00:00+00:00","end":"2026-12-30T08:15:00+00:00"},"length":{"value":26.0,"unit":"days"},"location":[{"location":{"reference":"Location/4b8b7112-ca13-4413-a487-9a4bd84b13ee"},"period":{"start":"2026-12-06T08:00:00.000+00:00","end":"2026-12-12T08:15:00.000+00:00"}}]},"request":{"method":"PUT","url":"Encounter/a21974cc-5c95-4536-808c-0f42597212d8"}},{"fullUrl":"https://madie.cms.gov/Procedure/96fed250-210c-4554-80f4-0fd9b73438ed","resource":{"resourceType":"Procedure","id":"96fed250-210c-4554-80f4-0fd9b73438ed","meta":{"profile":["http://hl7.org/fhir/us/qicore/StructureDefinition/qicore-procedure"]},"extension":[{"url":"http://hl7.org/fhir/us/qicore/StructureDefinition/qicore-recorded","valueDateTime":"2013-12-07T09:35:00-04:00"}],"status":"completed","code":{"coding":[{"system":"http://snomed.info/sct","code":"133918004","display":"Comfort measures (regime/therapy)"}]},"subject":{"reference":"Patient/8de031c4-05db-42db-b0e5-902696c6e495"},"performedPeriod":{"start":"2026-12-06T09:00:00.000+00:00"}},"request":{"method":"PUT","url":"Procedure/96fed250-210c-4554-80f4-0fd9b73438ed"}},{"fullUrl":"https://madie.cms.gov/Coverage/0fbcbbc0-8446-43db-99ee-d9a97122d8dc","resource":{"resourceType":"Coverage","id":"0fbcbbc0-8446-43db-99ee-d9a97122d8dc","status":"active","beneficiary":{"reference":"Patient/8de031c4-05db-42db-b0e5-902696c6e495"},"period":{"start":"1975-03-03T08:00:00+00:00"},"payor":[{"reference":"Organization/f7da4368-fb6d-4d73-a75b-f78024cbb18d"}]},"request":{"method":"PUT","url":"Coverage/0fbcbbc0-8446-43db-99ee-d9a97122d8dc"}},{"fullUrl":"https://madie.cms.gov/Location/4b8b7112-ca13-4413-a487-9a4bd84b13ee","resource":{"resourceType":"Location","id":"4b8b7112-ca13-4413-a487-9a4bd84b13ee","meta":{"profile":["http://hl7.org/fhir/us/qicore/StructureDefinition/qicore-location"]},"identifier":[{"use":"usual","system":"http://exampleoflocation.com","value":"B1-S.F2"}],"name":"Medical Surgical East, first floor","type":[{"coding":[{"system":"https://www.cdc.gov/nhsn/cdaportal/terminology/codesystem/hsloc.html","code":"1025-6","display":"Trauma Critical Care","userSelected":true}]}]},"request":{"method":"PUT","url":"Location/4b8b7112-ca13-4413-a487-9a4bd84b13ee"}},{"fullUrl":"https://madie.cms.gov/Organization/67ab252b-e062-46f4-9e57-64579b753c03","resource":{"resourceType":"Organization","id":"f7da4368-fb6d-4d73-a75b-f78024cbb18d","meta":{"profile":["http://hl7.org/fhir/us/qicore/StructureDefinition/qicore-organization"]},"identifier":[{"use":"temp","system":"urn:oid:2.16.840.1.113883.4.4","value":"21-3259825"}],"active":true,"type":[{"coding":[{"system":"http://terminology.hl7.org/CodeSystem/organization-type","code":"pay","display":"Payer"}]}],"name":"Blue Cross Blue Shield of Texas","telecom":[{"system":"phone","value":"(+1) 972-766-6900"}],"address":[{"use":"billing","type":"postal","line":["P.O. Box 660044"],"city":"Dallas","state":"TX","postalCode":"75266-0044","country":"USA"}]},"request":{"method":"PUT","url":"Organization/f7da4368-fb6d-4d73-a75b-f78024cbb18d"}},{"fullUrl":"https://madie.cms.gov/Practitioner/6834298c-cf16-47b4-8f17-7d5b507694fa","resource":{"resourceType":"Practitioner","id":"6834298c-cf16-47b4-8f17-7d5b507694fa","identifier":[{"system":"http://hl7.org/fhir/sid/us-npi","value":"123456"}],"name":[{"family":"Evil","prefix":["Dr"]}]},"request":{"method":"PUT","url":"Practitioner/6834298c-cf16-47b4-8f17-7d5b507694fa"}},{"fullUrl":"https://madie.cms.gov/MeasureReport/86bd6be5-d204-4d14-b514-b67332963c38","resource":{"resourceType":"MeasureReport","id":"86bd6be5-d204-4d14-b514-b67332963c38","meta":{"profile":["http://hl7.org/fhir/us/cqfmeasures/StructureDefinition/test-case-cqfm"]},"contained":[{"resourceType":"Parameters","id":"6535d7fe-f019-4524-a9d7-064d1f9e53da-parameters","parameter":[{"name":"subject","valueString":"8de031c4-05db-42db-b0e5-902696c6e495"}]}],"extension":[{"url":"http://hl7.org/fhir/us/cqfmeasures/StructureDefinition/cqfm-inputParameters","valueReference":{"reference":"#6535d7fe-f019-4524-a9d7-064d1f9e53da-parameters"}},{"url":"http://hl7.org/fhir/us/cqfmeasures/StructureDefinition/cqfm-testCaseDescription","valueMarkdown":"comfort measures Intervention Performed relevant period start time on day of ICU but and ends is null. The case passes\n"}],"modifierExtension":[{"url":"http://hl7.org/fhir/us/cqfmeasures/StructureDefinition/cqfm-isTestCase","valueBoolean":true}],"status":"complete","type":"individual","measure":"https://madie.cms.gov/Measure/CMS190VTEProphylaxisICUFHIR","period":{"start":"2026-01-01","end":"2026-12-31"},"group":[{"population":[{"code":{"coding":[{"system":"http://terminology.hl7.org/CodeSystem/measure-population","code":"initial-population","display":"Initial Population"}]},"count":1},{"code":{"coding":[{"system":"http://terminology.hl7.org/CodeSystem/measure-population","code":"denominator","display":"Denominator"}]},"count":1},{"code":{"coding":[{"system":"http://terminology.hl7.org/CodeSystem/measure-population","code":"denominator-exclusion","display":"Denominator Exclusion"}]},"count":1},{"code":{"coding":[{"system":"http://terminology.hl7.org/CodeSystem/measure-population","code":"numerator","display":"Numerator"}]},"count":0},{"code":{"coding":[{"system":"http://terminology.hl7.org/CodeSystem/measure-population","code":"denominator-exception","display":"Denominator Exception"}]},"count":0}]}]},"request":{"method":"PUT","url":"MeasureReport/86bd6be5-d204-4d14-b514-b67332963c38"}}]}