{"resourceType":"Bundle","id":"tests-f8f09525-80ac-4f58-80ff-74033387f5df-bundle","type":"transaction","entry":[{"fullUrl":"https://madie.cms.gov/Patient/f8f09525-80ac-4f58-80ff-74033387f5df","resource":{"resourceType":"Patient","id":"f8f09525-80ac-4f58-80ff-74033387f5df","meta":{"profile":["http://hl7.org/fhir/us/qicore/StructureDefinition/qicore-patient"]},"text":{"status":"generated","div":"<div xmlns=\"http://www.w3.org/1999/xhtml\"><div class=\"hapiHeaderText\">PtRefMORivDayOfAnesProcRvltDT <b>NUMERPASS </b></div><table class=\"hapiPropertyTable\"><tbody><tr><td>Identifier</td><td>bec2580a47ed4bf7691b191e0654b2de</td></tr><tr><td>Date of birth</td><td><span>02 January 1974</span></td></tr></tbody></table></div>"},"extension":[{"url":"http://hl7.org/fhir/us/core/StructureDefinition/us-core-race","extension":[{"url":"ombCategory","valueCoding":{"system":"urn:oid:2.16.840.1.113883.6.238","code":"1002-5","display":"American Indian or Alaska Native","userSelected":true}},{"url":"text","valueString":"American Indian or Alaska Native"}]},{"url":"http://hl7.org/fhir/us/core/StructureDefinition/us-core-ethnicity","extension":[{"url":"ombCategory","valueCoding":{"system":"urn:oid:2.16.840.1.113883.6.238","code":"2135-2","display":"Hispanic or Latino","userSelected":true}},{"url":"text","valueString":"Hispanic or Latino"}]}],"identifier":[{"type":{"coding":[{"system":"http://terminology.hl7.org/CodeSystem/v2-0203","code":"MR"}]},"system":"https://bonnie-fhir.healthit.gov/","value":"612e6b2e02c62a011f2ecc81"}],"active":true,"name":[{"use":"usual","family":"NUMERPass","given":["PtRefMORivDayOfAnesProcRvltDT"]}],"gender":"male","birthDate":"1975-01-02"},"request":{"method":"PUT","url":"Patient/f8f09525-80ac-4f58-80ff-74033387f5df"}},{"fullUrl":"https://madie.cms.gov/Encounter/ada69f2a-ee23-4770-b3e5-2699cbc124c7","resource":{"resourceType":"Encounter","id":"ada69f2a-ee23-4770-b3e5-2699cbc124c7","meta":{"profile":["http://hl7.org/fhir/us/qicore/StructureDefinition/qicore-encounter"]},"status":"finished","class":{"system":"http://terminology.hl7.org/CodeSystem/v3-ActCode","code":"IMP","display":"inpatient encounter"},"type":[{"coding":[{"system":"http://snomed.info/sct","code":"8715000"}]}],"subject":{"reference":"Patient/f8f09525-80ac-4f58-80ff-74033387f5df"},"period":{"start":"2026-11-01T08:00:00+00:00","end":"2026-11-26T08:15:00+00:00"},"length":{"value":25,"unit":"days"},"location":[{"location":{"reference":"Location/7c8d18eb-9fe2-48d0-8e84-b1205c904f37"},"period":{"start":"2026-11-04T09:00:00+00:00","end":"2026-11-06T08:15:00+00:00"}}]},"request":{"method":"PUT","url":"Encounter/ada69f2a-ee23-4770-b3e5-2699cbc124c7"}},{"fullUrl":"https://madie.cms.gov/Coverage/22773f28-c2d2-4b17-9033-e41429dfeac9","resource":{"resourceType":"Coverage","id":"22773f28-c2d2-4b17-9033-e41429dfeac9","status":"active","beneficiary":{"reference":"Patient/f8f09525-80ac-4f58-80ff-74033387f5df"},"period":{"start":"1975-01-02T08:00:00+00:00"},"payor":[{"reference":"Organization/5ad6ea38-07e9-4482-9e1b-c09eee595be9"}]},"request":{"method":"PUT","url":"Coverage/22773f28-c2d2-4b17-9033-e41429dfeac9"}},{"fullUrl":"https://madie.cms.gov/MedicationRequest/d7dc018f-55ea-42ee-b7df-e00928881d7b","resource":{"resourceType":"MedicationRequest","id":"d7dc018f-55ea-42ee-b7df-e00928881d7b","meta":{"profile":["http://hl7.org/fhir/us/qicore/StructureDefinition/qicore-mednotrequested"]},"status":"completed","intent":"order","category":[{"coding":[{"system":"http://terminology.hl7.org/CodeSystem/medicationrequest-category","code":"community"}]}],"doNotPerform":true,"medicationCodeableConcept":{"coding":[{"system":"http://www.nlm.nih.gov/research/umls/rxnorm","code":"1114198"}]},"subject":{"reference":"Patient/f8f09525-80ac-4f58-80ff-74033387f5df"},"authoredOn":"2026-11-05T07:00:00+00:00","requester":{"reference":"Practitioner/123456"},"reasonCode":[{"coding":[{"system":"http://snomed.info/sct","code":"443390004","display":"Refusal of treatment by patient (situation)","userSelected":true}]}]},"request":{"method":"PUT","url":"MedicationRequest/d7dc018f-55ea-42ee-b7df-e00928881d7b"}},{"fullUrl":"https://madie.cms.gov/Procedure/062c4e1b-c87c-4fb0-a4c3-25c0aa15dc71","resource":{"resourceType":"Procedure","id":"062c4e1b-c87c-4fb0-a4c3-25c0aa15dc71","meta":{"profile":["http://hl7.org/fhir/us/qicore/StructureDefinition/qicore-procedure"]},"extension":[{"url":"http://hl7.org/fhir/us/qicore/StructureDefinition/qicore-recorded","valueDateTime":"2026-11-05T09:35:00+00:00"}],"status":"completed","code":{"coding":[{"system":"http://snomed.info/sct","code":"18946005"}]},"subject":{"reference":"Patient/f8f09525-80ac-4f58-80ff-74033387f5df"},"performedDateTime":"2026-11-05T09:15:00+00:00"},"request":{"method":"PUT","url":"Procedure/062c4e1b-c87c-4fb0-a4c3-25c0aa15dc71"}},{"fullUrl":"https://madie.cms.gov/Location/7c8d18eb-9fe2-48d0-8e84-b1205c904f37","resource":{"resourceType":"Location","id":"7c8d18eb-9fe2-48d0-8e84-b1205c904f37","meta":{"profile":["http://hl7.org/fhir/us/qicore/StructureDefinition/qicore-location"]},"identifier":[{"use":"usual","system":"http://exampleoflocation.com","value":"B1-S.F2"}],"name":"Medical Surgical East, first floor","type":[{"coding":[{"system":"https://www.cdc.gov/nhsn/cdaportal/terminology/codesystem/hsloc.html","code":"1025-6","display":"Trauma Critical Care","userSelected":true}]}]},"request":{"method":"PUT","url":"Location/7c8d18eb-9fe2-48d0-8e84-b1205c904f37"}},{"fullUrl":"https://madie.cms.gov/Organization/66e7e9ad-c2ab-4688-920d-2794b880afbd","resource":{"resourceType":"Organization","id":"5ad6ea38-07e9-4482-9e1b-c09eee595be9","meta":{"profile":["http://hl7.org/fhir/us/qicore/StructureDefinition/qicore-organization"]},"identifier":[{"use":"temp","system":"urn:oid:2.16.840.1.113883.4.4","value":"21-3259825"}],"active":true,"type":[{"coding":[{"system":"http://terminology.hl7.org/CodeSystem/organization-type","code":"pay","display":"Payer"}]}],"name":"Blue Cross Blue Shield of Texas","telecom":[{"system":"phone","value":"(+1) 972-766-6900"}],"address":[{"use":"billing","type":"postal","line":["P.O. Box 660044"],"city":"Dallas","state":"TX","postalCode":"75266-0044","country":"USA"}]},"request":{"method":"PUT","url":"Organization/5ad6ea38-07e9-4482-9e1b-c09eee595be9"}},{"fullUrl":"https://madie.cms.gov/Practitioner/70ceeb1a-5044-4897-a73c-262aef9400ea","resource":{"resourceType":"Practitioner","id":"70ceeb1a-5044-4897-a73c-262aef9400ea","identifier":[{"system":"http://hl7.org/fhir/sid/us-npi","value":"123456"}],"name":[{"family":"Evil","prefix":["Dr"]}]},"request":{"method":"PUT","url":"Practitioner/70ceeb1a-5044-4897-a73c-262aef9400ea"}},{"fullUrl":"https://madie.cms.gov/MeasureReport/276d82cd-6d42-46b1-bcd1-b8492b5a0279","resource":{"resourceType":"MeasureReport","id":"276d82cd-6d42-46b1-bcd1-b8492b5a0279","meta":{"profile":["http://hl7.org/fhir/us/cqfmeasures/StructureDefinition/test-case-cqfm"]},"contained":[{"resourceType":"Parameters","id":"9148c872-9814-42be-bb14-1b50e86e90bb-parameters","parameter":[{"name":"subject","valueString":"f8f09525-80ac-4f58-80ff-74033387f5df"}]}],"extension":[{"url":"http://hl7.org/fhir/us/cqfmeasures/StructureDefinition/cqfm-inputParameters","valueReference":{"reference":"#9148c872-9814-42be-bb14-1b50e86e90bb-parameters"}},{"url":"http://hl7.org/fhir/us/cqfmeasures/StructureDefinition/cqfm-testCaseDescription","valueMarkdown":"Injectable factor Xa inhibitor  not ordered due to patient refusal after neuraxial anesthesia, which is 1 day after ICU adm\n"}],"modifierExtension":[{"url":"http://hl7.org/fhir/us/cqfmeasures/StructureDefinition/cqfm-isTestCase","valueBoolean":true}],"status":"complete","type":"individual","measure":"https://madie.cms.gov/Measure/CMS190VTEProphylaxisICUFHIR","period":{"start":"2026-01-01","end":"2026-12-31"},"group":[{"population":[{"code":{"coding":[{"system":"http://terminology.hl7.org/CodeSystem/measure-population","code":"initial-population","display":"Initial Population"}]},"count":1},{"code":{"coding":[{"system":"http://terminology.hl7.org/CodeSystem/measure-population","code":"denominator","display":"Denominator"}]},"count":1},{"code":{"coding":[{"system":"http://terminology.hl7.org/CodeSystem/measure-population","code":"denominator-exclusion","display":"Denominator Exclusion"}]},"count":0},{"code":{"coding":[{"system":"http://terminology.hl7.org/CodeSystem/measure-population","code":"numerator","display":"Numerator"}]},"count":1},{"code":{"coding":[{"system":"http://terminology.hl7.org/CodeSystem/measure-population","code":"denominator-exception","display":"Denominator Exception"}]},"count":0}]}]},"request":{"method":"PUT","url":"MeasureReport/276d82cd-6d42-46b1-bcd1-b8492b5a0279"}}]}