{"resourceType":"Bundle","id":"tests-20279caa-06fd-4bde-81d8-fab65542b49b-bundle","type":"transaction","entry":[{"fullUrl":"https://madie.cms.gov/Patient/20279caa-06fd-4bde-81d8-fab65542b49b","resource":{"resourceType":"Patient","id":"20279caa-06fd-4bde-81d8-fab65542b49b","meta":{"profile":["http://hl7.org/fhir/us/qicore/StructureDefinition/qicore-patient"]},"text":{"status":"generated","div":"<div xmlns=\"http://www.w3.org/1999/xhtml\"><div class=\"hapiHeaderText\">MALMWH2DaysAfterAnesEnd <b>NUMERFAIL </b></div><table class=\"hapiPropertyTable\"><tbody><tr><td>Identifier</td><td>8ee51210de4e498d0f614f93fce0e79d</td></tr><tr><td>Date of birth</td><td><span>03 March 1974</span></td></tr></tbody></table></div>"},"extension":[{"url":"http://hl7.org/fhir/us/core/StructureDefinition/us-core-race","extension":[{"url":"ombCategory","valueCoding":{"system":"urn:oid:2.16.840.1.113883.6.238","code":"1002-5","display":"American Indian or Alaska Native","userSelected":true}},{"url":"text","valueString":"American Indian or Alaska Native"}]},{"url":"http://hl7.org/fhir/us/core/StructureDefinition/us-core-ethnicity","extension":[{"url":"ombCategory","valueCoding":{"system":"urn:oid:2.16.840.1.113883.6.238","code":"2135-2","display":"Hispanic or Latino","userSelected":true}},{"url":"text","valueString":"Hispanic or Latino"}]}],"identifier":[{"type":{"coding":[{"system":"http://terminology.hl7.org/CodeSystem/v2-0203","code":"MR"}]},"system":"https://bonnie-fhir.healthit.gov/","value":"612e6f2502c62a011f2f0d2c"}],"active":true,"name":[{"use":"usual","family":"NUMERFail","given":["MALMWH2DaysAfterAnesEnd"]}],"gender":"female","birthDate":"1975-03-03"},"request":{"method":"PUT","url":"Patient/20279caa-06fd-4bde-81d8-fab65542b49b"}},{"fullUrl":"https://madie.cms.gov/Encounter/76e4c069-652a-467e-b923-541c0713f4a3","resource":{"resourceType":"Encounter","id":"76e4c069-652a-467e-b923-541c0713f4a3","meta":{"profile":["http://hl7.org/fhir/us/qicore/StructureDefinition/qicore-encounter"]},"status":"finished","class":{"system":"http://terminology.hl7.org/CodeSystem/v3-ActCode","code":"IMP","display":"inpatient encounter"},"type":[{"coding":[{"system":"http://snomed.info/sct","code":"8715000"}]}],"subject":{"reference":"Patient/20279caa-06fd-4bde-81d8-fab65542b49b"},"period":{"start":"2026-12-01T00:00:00+00:00","end":"2026-12-31T23:59:00+00:00"},"length":{"value":30.0,"unit":"days"},"location":[{"location":{"reference":"Location/1d7180e1-2f97-41a0-8ece-4fbda7969eea"},"period":{"start":"2026-12-01T00:01:00.000+00:00","end":"2026-12-15T11:59:00.000+00:00"}}]},"request":{"method":"PUT","url":"Encounter/76e4c069-652a-467e-b923-541c0713f4a3"}},{"fullUrl":"https://madie.cms.gov/Coverage/fa4219c9-6815-4c6a-8caa-778a407b4548","resource":{"resourceType":"Coverage","id":"fa4219c9-6815-4c6a-8caa-778a407b4548","status":"active","beneficiary":{"reference":"Patient/20279caa-06fd-4bde-81d8-fab65542b49b"},"period":{"start":"1975-03-03T08:00:00+00:00"},"payor":[{"reference":"Organization/890316dc-a4ad-43b4-ba6f-9fb9e6eca282"}]},"request":{"method":"PUT","url":"Coverage/fa4219c9-6815-4c6a-8caa-778a407b4548"}},{"fullUrl":"https://madie.cms.gov/MedicationAdministration/d21558a9-164a-4b1c-9771-c2a60821691c","resource":{"resourceType":"MedicationAdministration","id":"d21558a9-164a-4b1c-9771-c2a60821691c","meta":{"profile":["http://hl7.org/fhir/us/qicore/StructureDefinition/qicore-medicationadministration"]},"status":"completed","medicationCodeableConcept":{"coding":[{"system":"http://www.nlm.nih.gov/research/umls/rxnorm","code":"854228"}]},"subject":{"reference":"Patient/20279caa-06fd-4bde-81d8-fab65542b49b"},"effectivePeriod":{"start":"2026-12-04T00:00:00.000+00:00"}},"request":{"method":"PUT","url":"MedicationAdministration/d21558a9-164a-4b1c-9771-c2a60821691c"}},{"fullUrl":"https://madie.cms.gov/Procedure/bed53994-2bf8-4149-8fd6-2cee934527f8","resource":{"resourceType":"Procedure","id":"bed53994-2bf8-4149-8fd6-2cee934527f8","meta":{"profile":["http://hl7.org/fhir/us/qicore/StructureDefinition/qicore-procedure"]},"extension":[{"url":"http://hl7.org/fhir/us/qicore/StructureDefinition/qicore-recorded","valueDateTime":"2013-12-01T09:35:00-04:00"}],"status":"completed","code":{"coding":[{"system":"http://snomed.info/sct","code":"18946005"}]},"subject":{"reference":"Patient/20279caa-06fd-4bde-81d8-fab65542b49b"},"performedPeriod":{"start":"2026-12-01T00:00:00+00:00","end":"2026-12-02T23:59:00+00:00"}},"request":{"method":"PUT","url":"Procedure/bed53994-2bf8-4149-8fd6-2cee934527f8"}},{"fullUrl":"https://madie.cms.gov/Location/1d7180e1-2f97-41a0-8ece-4fbda7969eea","resource":{"resourceType":"Location","id":"1d7180e1-2f97-41a0-8ece-4fbda7969eea","meta":{"profile":["http://hl7.org/fhir/us/qicore/StructureDefinition/qicore-location"]},"identifier":[{"use":"usual","system":"http://exampleoflocation.com","value":"B1-S.F2"}],"name":"Medical Surgical East, first floor","type":[{"coding":[{"system":"https://www.cdc.gov/nhsn/cdaportal/terminology/codesystem/hsloc.html","code":"1025-6","display":"Trauma Critical Care","userSelected":true}]}]},"request":{"method":"PUT","url":"Location/1d7180e1-2f97-41a0-8ece-4fbda7969eea"}},{"fullUrl":"https://madie.cms.gov/Organization/992d44a4-12fb-466c-8bee-c9a2f8c8cf6b","resource":{"resourceType":"Organization","id":"890316dc-a4ad-43b4-ba6f-9fb9e6eca282","meta":{"profile":["http://hl7.org/fhir/us/qicore/StructureDefinition/qicore-organization"]},"identifier":[{"use":"temp","system":"urn:oid:2.16.840.1.113883.4.4","value":"21-3259825"}],"active":true,"type":[{"coding":[{"system":"http://terminology.hl7.org/CodeSystem/organization-type","code":"pay","display":"Payer"}]}],"name":"Blue Cross Blue Shield of Texas","telecom":[{"system":"phone","value":"(+1) 972-766-6900"}],"address":[{"use":"billing","type":"postal","line":["P.O. Box 660044"],"city":"Dallas","state":"TX","postalCode":"75266-0044","country":"USA"}]},"request":{"method":"PUT","url":"Organization/890316dc-a4ad-43b4-ba6f-9fb9e6eca282"}},{"fullUrl":"https://madie.cms.gov/Practitioner/1db6ad52-fa5c-4faa-b8c4-c1f5a435aede","resource":{"resourceType":"Practitioner","id":"1db6ad52-fa5c-4faa-b8c4-c1f5a435aede","identifier":[{"system":"http://hl7.org/fhir/sid/us-npi","value":"123456"}],"name":[{"family":"Evil","prefix":["Dr"]}]},"request":{"method":"PUT","url":"Practitioner/1db6ad52-fa5c-4faa-b8c4-c1f5a435aede"}},{"fullUrl":"https://madie.cms.gov/MeasureReport/98aaa200-e6b0-404c-ad5d-84f56d93ccb0","resource":{"resourceType":"MeasureReport","id":"98aaa200-e6b0-404c-ad5d-84f56d93ccb0","meta":{"profile":["http://hl7.org/fhir/us/cqfmeasures/StructureDefinition/test-case-cqfm"]},"contained":[{"resourceType":"Parameters","id":"458c5932-b2f4-4020-a7b6-50f326dfb522-parameters","parameter":[{"name":"subject","valueString":"20279caa-06fd-4bde-81d8-fab65542b49b"}]}],"extension":[{"url":"http://hl7.org/fhir/us/cqfmeasures/StructureDefinition/cqfm-inputParameters","valueReference":{"reference":"#458c5932-b2f4-4020-a7b6-50f326dfb522-parameters"}},{"url":"http://hl7.org/fhir/us/cqfmeasures/StructureDefinition/cqfm-testCaseDescription","valueMarkdown":"Patient receives LMWH two days after anesthesia end (with anesthesia ending ending day after ICU admission). Both LMWH and anesthesia are edge scenarios.\n"}],"modifierExtension":[{"url":"http://hl7.org/fhir/us/cqfmeasures/StructureDefinition/cqfm-isTestCase","valueBoolean":true}],"status":"complete","type":"individual","measure":"https://madie.cms.gov/Measure/CMS190VTEProphylaxisICUFHIR","period":{"start":"2026-01-01","end":"2026-12-31"},"group":[{"population":[{"code":{"coding":[{"system":"http://terminology.hl7.org/CodeSystem/measure-population","code":"initial-population","display":"Initial Population"}]},"count":1},{"code":{"coding":[{"system":"http://terminology.hl7.org/CodeSystem/measure-population","code":"denominator","display":"Denominator"}]},"count":1},{"code":{"coding":[{"system":"http://terminology.hl7.org/CodeSystem/measure-population","code":"denominator-exclusion","display":"Denominator Exclusion"}]},"count":0},{"code":{"coding":[{"system":"http://terminology.hl7.org/CodeSystem/measure-population","code":"numerator","display":"Numerator"}]},"count":0},{"code":{"coding":[{"system":"http://terminology.hl7.org/CodeSystem/measure-population","code":"denominator-exception","display":"Denominator Exception"}]},"count":0}]}]},"request":{"method":"PUT","url":"MeasureReport/98aaa200-e6b0-404c-ad5d-84f56d93ccb0"}}]}