{"resourceType":"Bundle","id":"tests-d4f8ae8a-1adf-4438-bc81-f9efcd4a1361-bundle","type":"transaction","entry":[{"fullUrl":"https://madie.cms.gov/Patient/d4f8ae8a-1adf-4438-bc81-f9efcd4a1361","resource":{"resourceType":"Patient","id":"d4f8ae8a-1adf-4438-bc81-f9efcd4a1361","meta":{"profile":["http://hl7.org/fhir/us/qicore/StructureDefinition/qicore-patient"]},"text":{"status":"generated","div":"<div xmlns=\"http://www.w3.org/1999/xhtml\"><div class=\"hapiHeaderText\">INREQ3AfterAnesEndsAfterStartICU <b>NUMERFAIL </b></div><table class=\"hapiPropertyTable\"><tbody><tr><td>Identifier</td><td>be18213b80546817f847863c73f29464</td></tr><tr><td>Date of birth</td><td><span>03 March 1974</span></td></tr></tbody></table></div>"},"extension":[{"url":"http://hl7.org/fhir/us/core/StructureDefinition/us-core-race","extension":[{"url":"ombCategory","valueCoding":{"system":"urn:oid:2.16.840.1.113883.6.238","code":"1002-5","display":"American Indian or Alaska Native","userSelected":true}},{"url":"text","valueString":"American Indian or Alaska Native"}]},{"url":"http://hl7.org/fhir/us/core/StructureDefinition/us-core-ethnicity","extension":[{"url":"ombCategory","valueCoding":{"system":"urn:oid:2.16.840.1.113883.6.238","code":"2135-2","display":"Hispanic or Latino","userSelected":true}},{"url":"text","valueString":"Hispanic or Latino"}]}],"identifier":[{"type":{"coding":[{"system":"http://terminology.hl7.org/CodeSystem/v2-0203","code":"MR"}]},"system":"https://bonnie-fhir.healthit.gov/","value":"612e6ef502c62a011f2f027f"}],"active":true,"name":[{"use":"usual","family":"NUMERFail","given":["INREQ3AfterAnesEndsAfterStartICU"]}],"gender":"female","birthDate":"1975-03-03"},"request":{"method":"PUT","url":"Patient/d4f8ae8a-1adf-4438-bc81-f9efcd4a1361"}},{"fullUrl":"https://madie.cms.gov/Encounter/315550d2-fa44-4ae6-97dd-9f1f1f161b16","resource":{"resourceType":"Encounter","id":"315550d2-fa44-4ae6-97dd-9f1f1f161b16","meta":{"profile":["http://hl7.org/fhir/us/qicore/StructureDefinition/qicore-encounter"]},"status":"finished","class":{"system":"http://terminology.hl7.org/CodeSystem/v3-ActCode","code":"IMP","display":"inpatient encounter"},"type":[{"coding":[{"system":"http://snomed.info/sct","code":"8715000"}]}],"subject":{"reference":"Patient/d4f8ae8a-1adf-4438-bc81-f9efcd4a1361"},"period":{"start":"2026-12-04T08:00:00+00:00","end":"2026-12-30T08:15:00+00:00"},"length":{"value":26.0,"unit":"days"},"location":[{"location":{"reference":"Location/5c5c89d4-9e52-44fa-ab90-ba3da7b2ee82"},"period":{"start":"2026-12-06T09:00:00.000+00:00","end":"2026-12-12T08:15:00.000+00:00"}}]},"request":{"method":"PUT","url":"Encounter/315550d2-fa44-4ae6-97dd-9f1f1f161b16"}},{"fullUrl":"https://madie.cms.gov/Coverage/e529f8ff-c7bc-4f8b-8fe9-c91e6a5f85ff","resource":{"resourceType":"Coverage","id":"e529f8ff-c7bc-4f8b-8fe9-c91e6a5f85ff","status":"active","beneficiary":{"reference":"Patient/d4f8ae8a-1adf-4438-bc81-f9efcd4a1361"},"period":{"start":"1975-03-03T08:00:00+00:00"},"payor":[{"reference":"Organization/e75793c9-fdf6-463a-8c1d-4ee44320dc25"}]},"request":{"method":"PUT","url":"Coverage/e529f8ff-c7bc-4f8b-8fe9-c91e6a5f85ff"}},{"fullUrl":"https://madie.cms.gov/Observation/8d64790c-1ed9-49aa-bcc0-174bbef05d19","resource":{"resourceType":"Observation","id":"8d64790c-1ed9-49aa-bcc0-174bbef05d19","meta":{"profile":["http://hl7.org/fhir/us/qicore/StructureDefinition/qicore-observation"]},"status":"final","category":[{"coding":[{"system":"http://terminology.hl7.org/CodeSystem/observation-category","code":"laboratory","display":"Laboratory"}]}],"code":{"coding":[{"system":"http://loinc.org","code":"34714-6"}]},"subject":{"reference":"Patient/d4f8ae8a-1adf-4438-bc81-f9efcd4a1361"},"effectivePeriod":{"start":"2026-12-06T11:30:00+00:00"},"valueInteger":3},"request":{"method":"PUT","url":"Observation/8d64790c-1ed9-49aa-bcc0-174bbef05d19"}},{"fullUrl":"https://madie.cms.gov/Procedure/8dea4c60-3b5f-4871-8551-48fc3e24b91f","resource":{"resourceType":"Procedure","id":"8dea4c60-3b5f-4871-8551-48fc3e24b91f","meta":{"profile":["http://hl7.org/fhir/us/qicore/StructureDefinition/qicore-procedure"]},"extension":[{"url":"http://hl7.org/fhir/us/qicore/StructureDefinition/qicore-recorded","valueDateTime":"2013-12-07T09:35:00-04:00"}],"status":"completed","code":{"coding":[{"system":"http://snomed.info/sct","code":"18946005"}]},"subject":{"reference":"Patient/d4f8ae8a-1adf-4438-bc81-f9efcd4a1361"},"performedPeriod":{"start":"2026-12-06T10:00:00+00:00","end":"2026-12-06T10:30:00+00:00"}},"request":{"method":"PUT","url":"Procedure/8dea4c60-3b5f-4871-8551-48fc3e24b91f"}},{"fullUrl":"https://madie.cms.gov/Location/5c5c89d4-9e52-44fa-ab90-ba3da7b2ee82","resource":{"resourceType":"Location","id":"5c5c89d4-9e52-44fa-ab90-ba3da7b2ee82","meta":{"profile":["http://hl7.org/fhir/us/qicore/StructureDefinition/qicore-location"]},"identifier":[{"use":"usual","system":"http://exampleoflocation.com","value":"B1-S.F2"}],"name":"Medical Surgical East, first floor","type":[{"coding":[{"system":"https://www.cdc.gov/nhsn/cdaportal/terminology/codesystem/hsloc.html","code":"1025-6","display":"Trauma Critical Care","userSelected":true}]}]},"request":{"method":"PUT","url":"Location/5c5c89d4-9e52-44fa-ab90-ba3da7b2ee82"}},{"fullUrl":"https://madie.cms.gov/Organization/c77459c1-a8f8-4676-9211-5a7330da60f3","resource":{"resourceType":"Organization","id":"e75793c9-fdf6-463a-8c1d-4ee44320dc25","meta":{"profile":["http://hl7.org/fhir/us/qicore/StructureDefinition/qicore-organization"]},"identifier":[{"use":"temp","system":"urn:oid:2.16.840.1.113883.4.4","value":"21-3259825"}],"active":true,"type":[{"coding":[{"system":"http://terminology.hl7.org/CodeSystem/organization-type","code":"pay","display":"Payer"}]}],"name":"Blue Cross Blue Shield of Texas","telecom":[{"system":"phone","value":"(+1) 972-766-6900"}],"address":[{"use":"billing","type":"postal","line":["P.O. Box 660044"],"city":"Dallas","state":"TX","postalCode":"75266-0044","country":"USA"}]},"request":{"method":"PUT","url":"Organization/e75793c9-fdf6-463a-8c1d-4ee44320dc25"}},{"fullUrl":"https://madie.cms.gov/Practitioner/8f14d3f5-098d-4fee-886f-37884e477ff7","resource":{"resourceType":"Practitioner","id":"8f14d3f5-098d-4fee-886f-37884e477ff7","identifier":[{"system":"http://hl7.org/fhir/sid/us-npi","value":"123456"}],"name":[{"family":"Evil","prefix":["Dr"]}]},"request":{"method":"PUT","url":"Practitioner/8f14d3f5-098d-4fee-886f-37884e477ff7"}},{"fullUrl":"https://madie.cms.gov/MeasureReport/d2a44aed-b8fa-4ee0-8b45-5f50a2eab26d","resource":{"resourceType":"MeasureReport","id":"d2a44aed-b8fa-4ee0-8b45-5f50a2eab26d","meta":{"profile":["http://hl7.org/fhir/us/cqfmeasures/StructureDefinition/test-case-cqfm"]},"contained":[{"resourceType":"Parameters","id":"503a91f7-bc70-4be6-8ebd-0b233f75761e-parameters","parameter":[{"name":"subject","valueString":"d4f8ae8a-1adf-4438-bc81-f9efcd4a1361"}]}],"extension":[{"url":"http://hl7.org/fhir/us/cqfmeasures/StructureDefinition/cqfm-inputParameters","valueReference":{"reference":"#503a91f7-bc70-4be6-8ebd-0b233f75761e-parameters"}},{"url":"http://hl7.org/fhir/us/cqfmeasures/StructureDefinition/cqfm-testCaseDescription","valueMarkdown":"FAIL - meets IPP, meets Denominator, INR=3.0 starts after Anesthesia ends, Anes ends after start of ICU\n"}],"modifierExtension":[{"url":"http://hl7.org/fhir/us/cqfmeasures/StructureDefinition/cqfm-isTestCase","valueBoolean":true}],"status":"complete","type":"individual","measure":"https://madie.cms.gov/Measure/CMS190VTEProphylaxisICUFHIR","period":{"start":"2026-01-01","end":"2026-12-31"},"group":[{"population":[{"code":{"coding":[{"system":"http://terminology.hl7.org/CodeSystem/measure-population","code":"initial-population","display":"Initial Population"}]},"count":1},{"code":{"coding":[{"system":"http://terminology.hl7.org/CodeSystem/measure-population","code":"denominator","display":"Denominator"}]},"count":1},{"code":{"coding":[{"system":"http://terminology.hl7.org/CodeSystem/measure-population","code":"denominator-exclusion","display":"Denominator Exclusion"}]},"count":0},{"code":{"coding":[{"system":"http://terminology.hl7.org/CodeSystem/measure-population","code":"numerator","display":"Numerator"}]},"count":0},{"code":{"coding":[{"system":"http://terminology.hl7.org/CodeSystem/measure-population","code":"denominator-exception","display":"Denominator Exception"}]},"count":0}]}]},"request":{"method":"PUT","url":"MeasureReport/d2a44aed-b8fa-4ee0-8b45-5f50a2eab26d"}}]}