{"resourceType":"Bundle","id":"tests-2346628d-419a-491b-81d8-08c74ca8ea61-bundle","type":"transaction","entry":[{"fullUrl":"https://madie.cms.gov/Patient/2346628d-419a-491b-81d8-08c74ca8ea61","resource":{"resourceType":"Patient","id":"2346628d-419a-491b-81d8-08c74ca8ea61","meta":{"profile":["http://hl7.org/fhir/us/qicore/StructureDefinition/qicore-patient"]},"text":{"status":"generated","div":"<div xmlns=\"http://www.w3.org/1999/xhtml\"><div class=\"hapiHeaderText\">CMODuringEDDoNotPerformFalse <b>DENEXPass </b></div><table class=\"hapiPropertyTable\"><tbody><tr><td>Identifier</td><td>45452ea1dc23640e1878befc89e45fab</td></tr><tr><td>Date of birth</td><td><span>03 March 1974</span></td></tr></tbody></table></div>"},"extension":[{"url":"http://hl7.org/fhir/us/core/StructureDefinition/us-core-race","extension":[{"url":"ombCategory","valueCoding":{"system":"urn:oid:2.16.840.1.113883.6.238","code":"1002-5","display":"American Indian or Alaska Native","userSelected":true}},{"url":"text","valueString":"American Indian or Alaska Native"}]},{"url":"http://hl7.org/fhir/us/core/StructureDefinition/us-core-ethnicity","extension":[{"url":"ombCategory","valueCoding":{"system":"urn:oid:2.16.840.1.113883.6.238","code":"2135-2","display":"Hispanic or Latino","userSelected":true}},{"url":"text","valueString":"Hispanic or Latino"}]}],"identifier":[{"type":{"coding":[{"system":"http://terminology.hl7.org/CodeSystem/v2-0203","code":"MR"}]},"system":"https://bonnie-fhir.healthit.gov/","value":"612e6e7d02c62a011f2ee909"}],"active":true,"name":[{"use":"usual","family":"DENEXPass","given":["CMODuringEDDoNotPerformFalse"]}],"gender":"female","birthDate":"1975-03-03"},"request":{"method":"PUT","url":"Patient/2346628d-419a-491b-81d8-08c74ca8ea61"}},{"fullUrl":"https://madie.cms.gov/Encounter/94f157aa-9c42-4523-85f5-1bce0c96fff1","resource":{"resourceType":"Encounter","id":"94f157aa-9c42-4523-85f5-1bce0c96fff1","meta":{"profile":["http://hl7.org/fhir/us/qicore/StructureDefinition/qicore-encounter"]},"status":"finished","class":{"system":"http://terminology.hl7.org/CodeSystem/v3-ActCode","code":"EMER","display":"emergency"},"type":[{"coding":[{"system":"http://snomed.info/sct","code":"4525004"}]}],"subject":{"reference":"Patient/2346628d-419a-491b-81d8-08c74ca8ea61"},"period":{"start":"2026-12-04T06:00:00+00:00","end":"2026-12-04T07:15:00+00:00"},"length":{"value":0,"unit":"days"}},"request":{"method":"PUT","url":"Encounter/94f157aa-9c42-4523-85f5-1bce0c96fff1"}},{"fullUrl":"https://madie.cms.gov/Encounter/1adec984-c732-415b-9e65-dfefd9d6fd36","resource":{"resourceType":"Encounter","id":"1adec984-c732-415b-9e65-dfefd9d6fd36","meta":{"profile":["http://hl7.org/fhir/us/qicore/StructureDefinition/qicore-encounter"]},"status":"finished","class":{"system":"http://terminology.hl7.org/CodeSystem/v3-ActCode","code":"IMP","display":"inpatient encounter"},"type":[{"coding":[{"system":"http://snomed.info/sct","code":"8715000"}]}],"subject":{"reference":"Patient/2346628d-419a-491b-81d8-08c74ca8ea61"},"period":{"start":"2026-12-04T08:00:00+00:00","end":"2026-12-30T08:15:00+00:00"},"length":{"value":26,"unit":"days"},"location":[{"location":{"reference":"Location/5cc97422-9fde-4587-a129-a903ce90b3d3"},"period":{"start":"2026-12-26T08:00:00.000+00:00","end":"2026-12-28T08:15:00.000+00:00"}}]},"request":{"method":"PUT","url":"Encounter/1adec984-c732-415b-9e65-dfefd9d6fd36"}},{"fullUrl":"https://madie.cms.gov/ServiceRequest/8b17b628-fe49-43e0-9423-89f2cf69ec9b","resource":{"resourceType":"ServiceRequest","id":"8b17b628-fe49-43e0-9423-89f2cf69ec9b","meta":{"profile":["http://hl7.org/fhir/us/qicore/StructureDefinition/qicore-servicerequest"]},"status":"completed","intent":"order","doNotPerform":false,"code":{"coding":[{"system":"http://snomed.info/sct","code":"133918004"}]},"subject":{"reference":"Patient/2346628d-419a-491b-81d8-08c74ca8ea61"},"authoredOn":"2026-12-04T06:30:00+00:00"},"request":{"method":"PUT","url":"ServiceRequest/8b17b628-fe49-43e0-9423-89f2cf69ec9b"}},{"fullUrl":"https://madie.cms.gov/Coverage/ac33404e-46bc-41a2-ac16-07361d47c150","resource":{"resourceType":"Coverage","id":"ac33404e-46bc-41a2-ac16-07361d47c150","status":"active","beneficiary":{"reference":"Patient/2346628d-419a-491b-81d8-08c74ca8ea61"},"period":{"start":"1975-03-03T08:00:00+00:00"},"payor":[{"reference":"Organization/f7da4368-fb6d-4d73-a75b-f78024cbb18d"}]},"request":{"method":"PUT","url":"Coverage/ac33404e-46bc-41a2-ac16-07361d47c150"}},{"fullUrl":"https://madie.cms.gov/Location/d2bb9e52-0f5c-479d-adca-51fca3f052b7","resource":{"resourceType":"Location","id":"d2bb9e52-0f5c-479d-adca-51fca3f052b7","type":[{"coding":[{"system":"http://cts.nlm.nih.gov/fhir/cs/hsloc","version":"2020","code":"1025-6","display":"Trauma Critical Care","userSelected":true}]}]},"request":{"method":"PUT","url":"Location/d2bb9e52-0f5c-479d-adca-51fca3f052b7"}},{"fullUrl":"https://madie.cms.gov/Location/5cc97422-9fde-4587-a129-a903ce90b3d3","resource":{"resourceType":"Location","id":"5cc97422-9fde-4587-a129-a903ce90b3d3","meta":{"profile":["http://hl7.org/fhir/us/qicore/StructureDefinition/qicore-location"]},"identifier":[{"use":"usual","system":"http://exampleoflocation.com","value":"B1-S.F2"}],"name":"Medical Surgical East, first floor","type":[{"coding":[{"system":"https://www.cdc.gov/nhsn/cdaportal/terminology/codesystem/hsloc.html","code":"1025-6","display":"Trauma Critical Care","userSelected":true}]}]},"request":{"method":"PUT","url":"Location/5cc97422-9fde-4587-a129-a903ce90b3d3"}},{"fullUrl":"https://madie.cms.gov/Organization/d2a3a95b-cb28-440a-b39c-1c124d4e953e","resource":{"resourceType":"Organization","id":"f7da4368-fb6d-4d73-a75b-f78024cbb18d","meta":{"profile":["http://hl7.org/fhir/us/qicore/StructureDefinition/qicore-organization"]},"identifier":[{"use":"temp","system":"urn:oid:2.16.840.1.113883.4.4","value":"21-3259825"}],"active":true,"type":[{"coding":[{"system":"http://terminology.hl7.org/CodeSystem/organization-type","code":"pay","display":"Payer"}]}],"name":"Blue Cross Blue Shield of Texas","telecom":[{"system":"phone","value":"(+1) 972-766-6900"}],"address":[{"use":"billing","type":"postal","line":["P.O. Box 660044"],"city":"Dallas","state":"TX","postalCode":"75266-0044","country":"USA"}]},"request":{"method":"PUT","url":"Organization/f7da4368-fb6d-4d73-a75b-f78024cbb18d"}},{"fullUrl":"https://madie.cms.gov/Practitioner/3f4162b1-0b26-42b6-9db4-3c4cfa4f8c67","resource":{"resourceType":"Practitioner","id":"3f4162b1-0b26-42b6-9db4-3c4cfa4f8c67","identifier":[{"system":"http://hl7.org/fhir/sid/us-npi","value":"123456"}],"name":[{"family":"Evil","prefix":["Dr"]}]},"request":{"method":"PUT","url":"Practitioner/3f4162b1-0b26-42b6-9db4-3c4cfa4f8c67"}},{"fullUrl":"https://madie.cms.gov/MeasureReport/6d368f1a-6bb8-42df-b9cb-e1f34088ba31","resource":{"resourceType":"MeasureReport","id":"6d368f1a-6bb8-42df-b9cb-e1f34088ba31","meta":{"profile":["http://hl7.org/fhir/us/cqfmeasures/StructureDefinition/test-case-cqfm"]},"contained":[{"resourceType":"Parameters","id":"d8221b22-7280-46bc-8632-ce9f8382986c-parameters","parameter":[{"name":"subject","valueString":"2346628d-419a-491b-81d8-08c74ca8ea61"}]}],"extension":[{"url":"http://hl7.org/fhir/us/cqfmeasures/StructureDefinition/cqfm-inputParameters","valueReference":{"reference":"#d8221b22-7280-46bc-8632-ce9f8382986c-parameters"}},{"url":"http://hl7.org/fhir/us/cqfmeasures/StructureDefinition/cqfm-testCaseDescription","valueMarkdown":"test and cover servicerequest do not perform is false"}],"modifierExtension":[{"url":"http://hl7.org/fhir/us/cqfmeasures/StructureDefinition/cqfm-isTestCase","valueBoolean":true}],"status":"complete","type":"individual","measure":"https://madie.cms.gov/Measure/CMS190VTEProphylaxisICUFHIR","period":{"start":"2026-01-01","end":"2026-12-31"},"group":[{"population":[{"code":{"coding":[{"system":"http://terminology.hl7.org/CodeSystem/measure-population","code":"initial-population","display":"Initial Population"}]},"count":1},{"code":{"coding":[{"system":"http://terminology.hl7.org/CodeSystem/measure-population","code":"denominator","display":"Denominator"}]},"count":1},{"code":{"coding":[{"system":"http://terminology.hl7.org/CodeSystem/measure-population","code":"denominator-exclusion","display":"Denominator Exclusion"}]},"count":1},{"code":{"coding":[{"system":"http://terminology.hl7.org/CodeSystem/measure-population","code":"numerator","display":"Numerator"}]},"count":0},{"code":{"coding":[{"system":"http://terminology.hl7.org/CodeSystem/measure-population","code":"denominator-exception","display":"Denominator Exception"}]},"count":0}]}]},"request":{"method":"PUT","url":"MeasureReport/6d368f1a-6bb8-42df-b9cb-e1f34088ba31"}}]}