{"resourceType":"Bundle","id":"tests-1a272e8f-438f-4e2a-9785-77d41bbeb7dc-bundle","type":"transaction","entry":[{"fullUrl":"https://madie.cms.gov/Patient/1a272e8f-438f-4e2a-9785-77d41bbeb7dc","resource":{"resourceType":"Patient","id":"1a272e8f-438f-4e2a-9785-77d41bbeb7dc","meta":{"profile":["http://hl7.org/fhir/us/qicore/StructureDefinition/qicore-patient"]},"text":{"status":"generated","div":"<div xmlns=\"http://www.w3.org/1999/xhtml\"><div class=\"hapiHeaderText\">CMO2DaysAfterICU <b>DENEXFAIL </b></div><table class=\"hapiPropertyTable\"><tbody><tr><td>Identifier</td><td>74bf6554310ff4e21486ea2665992f0e</td></tr><tr><td>Date of birth</td><td><span>03 March 1974</span></td></tr></tbody></table></div>"},"extension":[{"url":"http://hl7.org/fhir/us/core/StructureDefinition/us-core-race","extension":[{"url":"ombCategory","valueCoding":{"system":"urn:oid:2.16.840.1.113883.6.238","code":"1002-5","display":"American Indian or Alaska Native","userSelected":true}},{"url":"text","valueString":"American Indian or Alaska Native"}]},{"url":"http://hl7.org/fhir/us/core/StructureDefinition/us-core-ethnicity","extension":[{"url":"ombCategory","valueCoding":{"system":"urn:oid:2.16.840.1.113883.6.238","code":"2135-2","display":"Hispanic or Latino","userSelected":true}},{"url":"text","valueString":"Hispanic or Latino"}]}],"identifier":[{"type":{"coding":[{"system":"http://terminology.hl7.org/CodeSystem/v2-0203","code":"MR"}]},"system":"https://bonnie-fhir.healthit.gov/","value":"612e6edf02c62a011f2efe71"}],"active":true,"name":[{"use":"usual","family":"DENEXFail","given":["CMO2DaysAfterICU"]}],"gender":"female","birthDate":"1975-03-03"},"request":{"method":"PUT","url":"Patient/1a272e8f-438f-4e2a-9785-77d41bbeb7dc"}},{"fullUrl":"https://madie.cms.gov/Encounter/423666e7-9ba7-47bf-93b2-e92ec68fe85f","resource":{"resourceType":"Encounter","id":"423666e7-9ba7-47bf-93b2-e92ec68fe85f","meta":{"profile":["http://hl7.org/fhir/us/qicore/StructureDefinition/qicore-encounter"]},"status":"finished","class":{"system":"http://terminology.hl7.org/CodeSystem/v3-ActCode","code":"IMP","display":"inpatient encounter"},"type":[{"coding":[{"system":"http://snomed.info/sct","code":"8715000"}]}],"subject":{"reference":"Patient/1a272e8f-438f-4e2a-9785-77d41bbeb7dc"},"period":{"start":"2026-12-04T08:00:00+00:00","end":"2026-12-30T08:15:00+00:00"},"length":{"value":26.0,"unit":"days"},"location":[{"location":{"reference":"Location/376a9118-1164-44e9-8f3f-8639b7a60c72"},"period":{"start":"2026-12-06T08:00:00.000+00:00","end":"2026-12-12T08:15:00.000+00:00"}}]},"request":{"method":"PUT","url":"Encounter/423666e7-9ba7-47bf-93b2-e92ec68fe85f"}},{"fullUrl":"https://madie.cms.gov/ServiceRequest/8304eb1e-9218-44c7-8ce2-83652169aa07","resource":{"resourceType":"ServiceRequest","id":"8304eb1e-9218-44c7-8ce2-83652169aa07","meta":{"profile":["http://hl7.org/fhir/us/qicore/StructureDefinition/qicore-servicerequest"]},"status":"completed","intent":"order","code":{"coding":[{"system":"http://snomed.info/sct","code":"133918004"}]},"subject":{"reference":"Patient/1a272e8f-438f-4e2a-9785-77d41bbeb7dc"},"authoredOn":"2026-12-08T10:00:00+00:00"},"request":{"method":"PUT","url":"ServiceRequest/8304eb1e-9218-44c7-8ce2-83652169aa07"}},{"fullUrl":"https://madie.cms.gov/Coverage/11ed3549-e496-45e4-a8ce-625236c86fa4","resource":{"resourceType":"Coverage","id":"11ed3549-e496-45e4-a8ce-625236c86fa4","status":"active","beneficiary":{"reference":"Patient/1a272e8f-438f-4e2a-9785-77d41bbeb7dc"},"period":{"start":"1975-03-03T08:00:00+00:00"},"payor":[{"reference":"Organization/3e899f33-84eb-4634-a770-a5a0bd7a80e7"}]},"request":{"method":"PUT","url":"Coverage/11ed3549-e496-45e4-a8ce-625236c86fa4"}},{"fullUrl":"https://madie.cms.gov/Location/376a9118-1164-44e9-8f3f-8639b7a60c72","resource":{"resourceType":"Location","id":"376a9118-1164-44e9-8f3f-8639b7a60c72","meta":{"profile":["http://hl7.org/fhir/us/qicore/StructureDefinition/qicore-location"]},"identifier":[{"use":"usual","system":"http://exampleoflocation.com","value":"B1-S.F2"}],"name":"Medical Surgical East, first floor","type":[{"coding":[{"system":"https://www.cdc.gov/nhsn/cdaportal/terminology/codesystem/hsloc.html","code":"1025-6","display":"Trauma Critical Care","userSelected":true}]}]},"request":{"method":"PUT","url":"Location/376a9118-1164-44e9-8f3f-8639b7a60c72"}},{"fullUrl":"https://madie.cms.gov/Organization/fa916321-8768-4ef1-b6d7-155df4da309b","resource":{"resourceType":"Organization","id":"3e899f33-84eb-4634-a770-a5a0bd7a80e7","meta":{"profile":["http://hl7.org/fhir/us/qicore/StructureDefinition/qicore-organization"]},"identifier":[{"use":"temp","system":"urn:oid:2.16.840.1.113883.4.4","value":"21-3259825"}],"active":true,"type":[{"coding":[{"system":"http://terminology.hl7.org/CodeSystem/organization-type","code":"pay","display":"Payer"}]}],"name":"Blue Cross Blue Shield of Texas","telecom":[{"system":"phone","value":"(+1) 972-766-6900"}],"address":[{"use":"billing","type":"postal","line":["P.O. Box 660044"],"city":"Dallas","state":"TX","postalCode":"75266-0044","country":"USA"}]},"request":{"method":"PUT","url":"Organization/3e899f33-84eb-4634-a770-a5a0bd7a80e7"}},{"fullUrl":"https://madie.cms.gov/Practitioner/1561515b-c074-4ccf-8350-96beec1390a7","resource":{"resourceType":"Practitioner","id":"1561515b-c074-4ccf-8350-96beec1390a7","identifier":[{"system":"http://hl7.org/fhir/sid/us-npi","value":"123456"}],"name":[{"family":"Evil","prefix":["Dr"]}]},"request":{"method":"PUT","url":"Practitioner/1561515b-c074-4ccf-8350-96beec1390a7"}},{"fullUrl":"https://madie.cms.gov/MeasureReport/21ee9007-6ace-4923-bdbe-4cdb13e1bd32","resource":{"resourceType":"MeasureReport","id":"21ee9007-6ace-4923-bdbe-4cdb13e1bd32","meta":{"profile":["http://hl7.org/fhir/us/cqfmeasures/StructureDefinition/test-case-cqfm"]},"contained":[{"resourceType":"Parameters","id":"5d2face9-8149-4847-bd10-3f62e8acf25a-parameters","parameter":[{"name":"subject","valueString":"1a272e8f-438f-4e2a-9785-77d41bbeb7dc"}]}],"extension":[{"url":"http://hl7.org/fhir/us/cqfmeasures/StructureDefinition/cqfm-inputParameters","valueReference":{"reference":"#5d2face9-8149-4847-bd10-3f62e8acf25a-parameters"}},{"url":"http://hl7.org/fhir/us/cqfmeasures/StructureDefinition/cqfm-testCaseDescription","valueMarkdown":"comfort measures 2 days after start of ICU admission\n"}],"modifierExtension":[{"url":"http://hl7.org/fhir/us/cqfmeasures/StructureDefinition/cqfm-isTestCase","valueBoolean":true}],"status":"complete","type":"individual","measure":"https://madie.cms.gov/Measure/CMS190VTEProphylaxisICUFHIR","period":{"start":"2026-01-01","end":"2026-12-31"},"group":[{"population":[{"code":{"coding":[{"system":"http://terminology.hl7.org/CodeSystem/measure-population","code":"initial-population","display":"Initial Population"}]},"count":1},{"code":{"coding":[{"system":"http://terminology.hl7.org/CodeSystem/measure-population","code":"denominator","display":"Denominator"}]},"count":1},{"code":{"coding":[{"system":"http://terminology.hl7.org/CodeSystem/measure-population","code":"denominator-exclusion","display":"Denominator Exclusion"}]},"count":0},{"code":{"coding":[{"system":"http://terminology.hl7.org/CodeSystem/measure-population","code":"numerator","display":"Numerator"}]},"count":0},{"code":{"coding":[{"system":"http://terminology.hl7.org/CodeSystem/measure-population","code":"denominator-exception","display":"Denominator Exception"}]},"count":0}]}]},"request":{"method":"PUT","url":"MeasureReport/21ee9007-6ace-4923-bdbe-4cdb13e1bd32"}}]}