{"resourceType":"Bundle","id":"tests-9cd5f0f5-5d45-4ba2-921c-37bd6e7822dd-bundle","type":"transaction","entry":[{"fullUrl":"https://madie.cms.gov/Patient/9cd5f0f5-5d45-4ba2-921c-37bd6e7822dd","resource":{"resourceType":"Patient","id":"9cd5f0f5-5d45-4ba2-921c-37bd6e7822dd","meta":{"profile":["http://hl7.org/fhir/us/qicore/StructureDefinition/qicore-patient"]},"text":{"status":"generated","div":"<div xmlns=\"http://www.w3.org/1999/xhtml\"><div class=\"hapiHeaderText\">PtRefMOWarfarinOnAnesRlvntDT <b>NUMERPASS </b></div><table class=\"hapiPropertyTable\"><tbody><tr><td>Identifier</td><td>0605317a287832394eb791622c2564f2</td></tr><tr><td>Date of birth</td><td><span>03 March 1974</span></td></tr></tbody></table></div>"},"extension":[{"url":"http://hl7.org/fhir/us/core/StructureDefinition/us-core-race","extension":[{"url":"ombCategory","valueCoding":{"system":"urn:oid:2.16.840.1.113883.6.238","code":"1002-5","display":"American Indian or Alaska Native","userSelected":true}},{"url":"text","valueString":"American Indian or Alaska Native"}]},{"url":"http://hl7.org/fhir/us/core/StructureDefinition/us-core-ethnicity","extension":[{"url":"ombCategory","valueCoding":{"system":"urn:oid:2.16.840.1.113883.6.238","code":"2135-2","display":"Hispanic or Latino","userSelected":true}},{"url":"text","valueString":"Hispanic or Latino"}]}],"identifier":[{"type":{"coding":[{"system":"http://terminology.hl7.org/CodeSystem/v2-0203","code":"MR"}]},"system":"https://bonnie-fhir.healthit.gov/","value":"612e6ea602c62a011f2ef2b4"}],"active":true,"name":[{"use":"usual","family":"NUMERPass","given":["PtRefMOWarfarinOnAnesRlvntDT"]}],"gender":"female","birthDate":"1975-03-03"},"request":{"method":"PUT","url":"Patient/9cd5f0f5-5d45-4ba2-921c-37bd6e7822dd"}},{"fullUrl":"https://madie.cms.gov/Encounter/83e541db-7506-4923-b6c1-2950c7dd858c","resource":{"resourceType":"Encounter","id":"83e541db-7506-4923-b6c1-2950c7dd858c","meta":{"profile":["http://hl7.org/fhir/us/qicore/StructureDefinition/qicore-encounter"]},"status":"finished","class":{"system":"http://terminology.hl7.org/CodeSystem/v3-ActCode","code":"IMP","display":"inpatient encounter"},"type":[{"coding":[{"system":"http://snomed.info/sct","code":"8715000"}]}],"subject":{"reference":"Patient/9cd5f0f5-5d45-4ba2-921c-37bd6e7822dd"},"period":{"start":"2026-12-04T08:00:00+00:00","end":"2026-12-30T08:15:00+00:00"},"length":{"value":26,"unit":"days"},"location":[{"location":{"reference":"Location/e4d37672-4501-4792-a9d9-606fa9fb9feb"},"period":{"start":"2026-12-06T08:00:00.000+00:00","end":"2026-12-08T08:15:00.000+00:00"}}]},"request":{"method":"PUT","url":"Encounter/83e541db-7506-4923-b6c1-2950c7dd858c"}},{"fullUrl":"https://madie.cms.gov/Coverage/73b0b26f-a2d0-42f1-b1c3-172db003c625","resource":{"resourceType":"Coverage","id":"73b0b26f-a2d0-42f1-b1c3-172db003c625","status":"active","beneficiary":{"reference":"Patient/9cd5f0f5-5d45-4ba2-921c-37bd6e7822dd"},"period":{"start":"1975-03-03T08:00:00+00:00"},"payor":[{"reference":"Organization/18ca435c-cae6-4c34-8033-af717477f9fc"}]},"request":{"method":"PUT","url":"Coverage/73b0b26f-a2d0-42f1-b1c3-172db003c625"}},{"fullUrl":"https://madie.cms.gov/MedicationRequest/34d7bf34-1a99-4dcf-9216-9def8def128e","resource":{"resourceType":"MedicationRequest","id":"34d7bf34-1a99-4dcf-9216-9def8def128e","meta":{"profile":["http://hl7.org/fhir/us/qicore/StructureDefinition/qicore-mednotrequested"]},"status":"completed","intent":"order","category":[{"coding":[{"system":"http://terminology.hl7.org/CodeSystem/medicationrequest-category","code":"community"}]}],"doNotPerform":true,"medicationCodeableConcept":{"coding":[{"system":"http://www.nlm.nih.gov/research/umls/rxnorm","code":"855288"}]},"subject":{"reference":"Patient/9cd5f0f5-5d45-4ba2-921c-37bd6e7822dd"},"authoredOn":"2026-12-07T19:00:00.000+00:00","requester":{"reference":"Practitioner/123456"},"reasonCode":[{"coding":[{"system":"http://snomed.info/sct","code":"443390004","display":"Refusal of treatment by patient (situation)","userSelected":true}]}]},"request":{"method":"PUT","url":"MedicationRequest/34d7bf34-1a99-4dcf-9216-9def8def128e"}},{"fullUrl":"https://madie.cms.gov/Procedure/73ae08b9-bf4a-450c-9044-e011a53ce62e","resource":{"resourceType":"Procedure","id":"73ae08b9-bf4a-450c-9044-e011a53ce62e","meta":{"profile":["http://hl7.org/fhir/us/qicore/StructureDefinition/qicore-procedure"]},"extension":[{"url":"http://hl7.org/fhir/us/qicore/StructureDefinition/qicore-recorded","valueDateTime":"2013-12-04T09:35:00-04:00"}],"status":"completed","code":{"coding":[{"system":"http://snomed.info/sct","code":"18946005"}]},"subject":{"reference":"Patient/9cd5f0f5-5d45-4ba2-921c-37bd6e7822dd"},"performedDateTime":"2026-12-07T19:00:00.000+00:00"},"request":{"method":"PUT","url":"Procedure/73ae08b9-bf4a-450c-9044-e011a53ce62e"}},{"fullUrl":"https://madie.cms.gov/Location/e4d37672-4501-4792-a9d9-606fa9fb9feb","resource":{"resourceType":"Location","id":"e4d37672-4501-4792-a9d9-606fa9fb9feb","meta":{"profile":["http://hl7.org/fhir/us/qicore/StructureDefinition/qicore-location"]},"identifier":[{"use":"usual","system":"http://exampleoflocation.com","value":"B1-S.F2"}],"name":"Medical Surgical East, first floor","type":[{"coding":[{"system":"https://www.cdc.gov/nhsn/cdaportal/terminology/codesystem/hsloc.html","code":"1025-6","display":"Trauma Critical Care","userSelected":true}]}]},"request":{"method":"PUT","url":"Location/e4d37672-4501-4792-a9d9-606fa9fb9feb"}},{"fullUrl":"https://madie.cms.gov/Organization/b387f241-02bb-4124-be1d-276462e64961","resource":{"resourceType":"Organization","id":"18ca435c-cae6-4c34-8033-af717477f9fc","meta":{"profile":["http://hl7.org/fhir/us/qicore/StructureDefinition/qicore-organization"]},"identifier":[{"use":"temp","system":"urn:oid:2.16.840.1.113883.4.4","value":"21-3259825"}],"active":true,"type":[{"coding":[{"system":"http://terminology.hl7.org/CodeSystem/organization-type","code":"pay","display":"Payer"}]}],"name":"Blue Cross Blue Shield of Texas","telecom":[{"system":"phone","value":"(+1) 972-766-6900"}],"address":[{"use":"billing","type":"postal","line":["P.O. Box 660044"],"city":"Dallas","state":"TX","postalCode":"75266-0044","country":"USA"}]},"request":{"method":"PUT","url":"Organization/18ca435c-cae6-4c34-8033-af717477f9fc"}},{"fullUrl":"https://madie.cms.gov/Practitioner/a257b932-f6a8-4cfd-bf86-6d5b13ecfd0d","resource":{"resourceType":"Practitioner","id":"a257b932-f6a8-4cfd-bf86-6d5b13ecfd0d","identifier":[{"system":"http://hl7.org/fhir/sid/us-npi","value":"123456"}],"name":[{"family":"Evil","prefix":["Dr"]}]},"request":{"method":"PUT","url":"Practitioner/a257b932-f6a8-4cfd-bf86-6d5b13ecfd0d"}},{"fullUrl":"https://madie.cms.gov/MeasureReport/81ca04a8-a3fb-4469-b352-f8926a2721ba","resource":{"resourceType":"MeasureReport","id":"81ca04a8-a3fb-4469-b352-f8926a2721ba","meta":{"profile":["http://hl7.org/fhir/us/cqfmeasures/StructureDefinition/test-case-cqfm"]},"contained":[{"resourceType":"Parameters","id":"f2824125-0894-4609-aa0f-673ca73206d3-parameters","parameter":[{"name":"subject","valueString":"9cd5f0f5-5d45-4ba2-921c-37bd6e7822dd"}]}],"extension":[{"url":"http://hl7.org/fhir/us/cqfmeasures/StructureDefinition/cqfm-inputParameters","valueReference":{"reference":"#f2824125-0894-4609-aa0f-673ca73206d3-parameters"}},{"url":"http://hl7.org/fhir/us/cqfmeasures/StructureDefinition/cqfm-testCaseDescription","valueMarkdown":"warfarin not done due to patient refusal concurrent with neuraxial anesthesia relevant DT\n"}],"modifierExtension":[{"url":"http://hl7.org/fhir/us/cqfmeasures/StructureDefinition/cqfm-isTestCase","valueBoolean":true}],"status":"complete","type":"individual","measure":"https://madie.cms.gov/Measure/CMS190VTEProphylaxisICUFHIR","period":{"start":"2026-01-01","end":"2026-12-31"},"group":[{"population":[{"code":{"coding":[{"system":"http://terminology.hl7.org/CodeSystem/measure-population","code":"initial-population","display":"Initial Population"}]},"count":1},{"code":{"coding":[{"system":"http://terminology.hl7.org/CodeSystem/measure-population","code":"denominator","display":"Denominator"}]},"count":1},{"code":{"coding":[{"system":"http://terminology.hl7.org/CodeSystem/measure-population","code":"denominator-exclusion","display":"Denominator Exclusion"}]},"count":0},{"code":{"coding":[{"system":"http://terminology.hl7.org/CodeSystem/measure-population","code":"numerator","display":"Numerator"}]},"count":1},{"code":{"coding":[{"system":"http://terminology.hl7.org/CodeSystem/measure-population","code":"denominator-exception","display":"Denominator Exception"}]},"count":0}]}]},"request":{"method":"PUT","url":"MeasureReport/81ca04a8-a3fb-4469-b352-f8926a2721ba"}}]}