{"resourceType":"Bundle","id":"tests-4cb01b91-c616-42bf-bee5-20bb0f94794b-bundle","type":"transaction","entry":[{"fullUrl":"https://madie.cms.gov/Patient/4cb01b91-c616-42bf-bee5-20bb0f94794b","resource":{"resourceType":"Patient","id":"4cb01b91-c616-42bf-bee5-20bb0f94794b","meta":{"profile":["http://hl7.org/fhir/us/qicore/StructureDefinition/qicore-patient"]},"text":{"status":"generated","div":"<div xmlns=\"http://www.w3.org/1999/xhtml\"><div class=\"hapiHeaderText\">FactorXaDuringICUDxVTEResolved<b>NUMERPASS </b></div><table class=\"hapiPropertyTable\"><tbody><tr><td>Identifier</td><td>ba9e367399672c89721f9d3c22d115ac</td></tr><tr><td>Date of birth</td><td><span>03 March 1974</span></td></tr></tbody></table></div>"},"extension":[{"url":"http://hl7.org/fhir/us/core/StructureDefinition/us-core-race","extension":[{"url":"ombCategory","valueCoding":{"system":"urn:oid:2.16.840.1.113883.6.238","code":"1002-5","display":"American Indian or Alaska Native","userSelected":true}},{"url":"text","valueString":"American Indian or Alaska Native"}]},{"url":"http://hl7.org/fhir/us/core/StructureDefinition/us-core-ethnicity","extension":[{"url":"ombCategory","valueCoding":{"system":"urn:oid:2.16.840.1.113883.6.238","code":"2135-2","display":"Hispanic or Latino","userSelected":true}},{"url":"text","valueString":"Hispanic or Latino"}]}],"identifier":[{"type":{"coding":[{"system":"http://terminology.hl7.org/CodeSystem/v2-0203","code":"MR"}]},"system":"https://bonnie-fhir.healthit.gov/","value":"926d2075-8536-4e61-9154-934460890b9d"}],"active":true,"name":[{"use":"usual","family":"NUMERPass","given":["FactorXaDuringICUDxVTEResolved"]}],"gender":"female","birthDate":"1975-03-03"},"request":{"method":"PUT","url":"Patient/4cb01b91-c616-42bf-bee5-20bb0f94794b"}},{"fullUrl":"https://madie.cms.gov/Encounter/bd44fbbc-4ad7-4dd8-8dcc-a8eabd754e7e","resource":{"resourceType":"Encounter","id":"bd44fbbc-4ad7-4dd8-8dcc-a8eabd754e7e","meta":{"profile":["http://hl7.org/fhir/us/qicore/StructureDefinition/qicore-encounter"]},"status":"finished","class":{"system":"http://terminology.hl7.org/CodeSystem/v3-ActCode","code":"IMP","display":"inpatient encounter"},"type":[{"coding":[{"system":"http://snomed.info/sct","code":"8715000"}]}],"subject":{"reference":"Patient/4cb01b91-c616-42bf-bee5-20bb0f94794b"},"period":{"start":"2026-12-04T08:00:00+00:00","end":"2026-12-30T08:15:00+00:00"},"length":{"value":26.0,"unit":"days"},"location":[{"location":{"reference":"Location/28fb0c95-d479-4bd4-936b-626a331d78e0"},"period":{"start":"2026-12-06T08:00:00.000+00:00","end":"2026-12-08T08:15:00.000+00:00"}}]},"request":{"method":"PUT","url":"Encounter/bd44fbbc-4ad7-4dd8-8dcc-a8eabd754e7e"}},{"fullUrl":"https://madie.cms.gov/Coverage/3b5fa4e7-ca84-453f-8317-a97806f48288","resource":{"resourceType":"Coverage","id":"3b5fa4e7-ca84-453f-8317-a97806f48288","status":"active","beneficiary":{"reference":"Patient/4cb01b91-c616-42bf-bee5-20bb0f94794b"},"period":{"start":"1975-03-03T08:00:00+00:00"},"payor":[{"reference":"Organization/f4907415-83c5-4eae-ab0b-cb63a840880d"}]},"request":{"method":"PUT","url":"Coverage/3b5fa4e7-ca84-453f-8317-a97806f48288"}},{"fullUrl":"https://madie.cms.gov/Condition/8f07ea00-835f-4db5-ad84-8f4db94f1d56","resource":{"resourceType":"Condition","id":"8f07ea00-835f-4db5-ad84-8f4db94f1d56","meta":{"profile":["http://hl7.org/fhir/us/qicore/StructureDefinition/qicore-condition"]},"clinicalStatus":{"coding":[{"system":"http://terminology.hl7.org/CodeSystem/condition-clinical","code":"resolved"}]},"verificationStatus":{"coding":[{"system":"http://terminology.hl7.org/CodeSystem/condition-ver-status","code":"confirmed"}]},"category":[{"coding":[{"system":"http://terminology.hl7.org/CodeSystem/condition-category","code":"problem-list-item","display":"Problem List Item"}]}],"code":{"coding":[{"system":"http://hl7.org/fhir/sid/icd-10-cm","code":"I26.09","display":"Other pulmonary embolism with acute cor pulmonale"}]},"subject":{"reference":"Patient/4cb01b91-c616-42bf-bee5-20bb0f94794b"},"onsetPeriod":{"start":"2026-11-03T08:00:00+00:00","end":"2026-12-03T08:00:00+00:00"}},"request":{"method":"PUT","url":"Condition/8f07ea00-835f-4db5-ad84-8f4db94f1d56"}},{"fullUrl":"https://madie.cms.gov/MedicationAdministration/86a6aeb0-02cf-48ec-88be-0d16973c305d","resource":{"resourceType":"MedicationAdministration","id":"86a6aeb0-02cf-48ec-88be-0d16973c305d","meta":{"profile":["http://hl7.org/fhir/us/qicore/StructureDefinition/qicore-medicationadministration"]},"status":"completed","medicationCodeableConcept":{"coding":[{"system":"http://www.nlm.nih.gov/research/umls/rxnorm","code":"1599543","display":"edoxaban 15 MG Oral Tablet"}]},"subject":{"reference":"Patient/4cb01b91-c616-42bf-bee5-20bb0f94794b"},"effectivePeriod":{"start":"2026-12-06T11:30:00+00:00","end":"2026-12-06T11:35:00+00:00"}},"request":{"method":"PUT","url":"MedicationAdministration/86a6aeb0-02cf-48ec-88be-0d16973c305d"}},{"fullUrl":"https://madie.cms.gov/Location/28fb0c95-d479-4bd4-936b-626a331d78e0","resource":{"resourceType":"Location","id":"28fb0c95-d479-4bd4-936b-626a331d78e0","meta":{"profile":["http://hl7.org/fhir/us/qicore/StructureDefinition/qicore-location"]},"identifier":[{"use":"usual","system":"http://exampleoflocation.com","value":"B1-S.F2"}],"name":"Medical Surgical East, first floor","type":[{"coding":[{"system":"https://www.cdc.gov/nhsn/cdaportal/terminology/codesystem/hsloc.html","version":"2020","code":"1025-6","display":"Trauma Critical Care","userSelected":true}]}]},"request":{"method":"PUT","url":"Location/28fb0c95-d479-4bd4-936b-626a331d78e0"}},{"fullUrl":"https://madie.cms.gov/Organization/6fe2b359-8acf-4fc6-9759-28a03b9a62e0","resource":{"resourceType":"Organization","id":"f4907415-83c5-4eae-ab0b-cb63a840880d","meta":{"profile":["http://hl7.org/fhir/us/qicore/StructureDefinition/qicore-organization"]},"identifier":[{"use":"temp","system":"urn:oid:2.16.840.1.113883.4.4","value":"21-3259825"}],"active":true,"type":[{"coding":[{"system":"http://terminology.hl7.org/CodeSystem/organization-type","code":"pay","display":"Payer"}]}],"name":"Blue Cross Blue Shield of Texas","telecom":[{"system":"phone","value":"(+1) 972-766-6900"}],"address":[{"use":"billing","type":"postal","line":["P.O. Box 660044"],"city":"Dallas","state":"TX","postalCode":"75266-0044","country":"USA"}]},"request":{"method":"PUT","url":"Organization/f4907415-83c5-4eae-ab0b-cb63a840880d"}},{"fullUrl":"https://madie.cms.gov/MeasureReport/9aca2afc-f1b3-420e-8f3d-6a1ff9558f59","resource":{"resourceType":"MeasureReport","id":"9aca2afc-f1b3-420e-8f3d-6a1ff9558f59","meta":{"profile":["http://hl7.org/fhir/us/cqfmeasures/StructureDefinition/test-case-cqfm"]},"contained":[{"resourceType":"Parameters","id":"dc01ad0c-e986-41a0-bc2e-679e694e9a32-parameters","parameter":[{"name":"subject","valueString":"4cb01b91-c616-42bf-bee5-20bb0f94794b"}]}],"extension":[{"url":"http://hl7.org/fhir/us/cqfmeasures/StructureDefinition/cqfm-inputParameters","valueReference":{"reference":"#dc01ad0c-e986-41a0-bc2e-679e694e9a32-parameters"}},{"url":"http://hl7.org/fhir/us/cqfmeasures/StructureDefinition/cqfm-testCaseDescription","valueMarkdown":"test and cover condition clinicalstatus is resolved"}],"modifierExtension":[{"url":"http://hl7.org/fhir/us/cqfmeasures/StructureDefinition/cqfm-isTestCase","valueBoolean":true}],"status":"complete","type":"individual","measure":"https://madie.cms.gov/Measure/CMS190VTEProphylaxisICUFHIR","period":{"start":"2026-01-01","end":"2026-12-31"},"group":[{"population":[{"code":{"coding":[{"system":"http://terminology.hl7.org/CodeSystem/measure-population","code":"initial-population","display":"Initial Population"}]},"count":1},{"code":{"coding":[{"system":"http://terminology.hl7.org/CodeSystem/measure-population","code":"denominator","display":"Denominator"}]},"count":1},{"code":{"coding":[{"system":"http://terminology.hl7.org/CodeSystem/measure-population","code":"denominator-exclusion","display":"Denominator Exclusion"}]},"count":0},{"code":{"coding":[{"system":"http://terminology.hl7.org/CodeSystem/measure-population","code":"numerator","display":"Numerator"}]},"count":1},{"code":{"coding":[{"system":"http://terminology.hl7.org/CodeSystem/measure-population","code":"denominator-exception","display":"Denominator Exception"}]},"count":0}]}]},"request":{"method":"PUT","url":"MeasureReport/9aca2afc-f1b3-420e-8f3d-6a1ff9558f59"}}]}