{"resourceType":"Bundle","id":"tests-298f3f92-5047-46fc-ad92-9f27887ffc55-bundle","type":"transaction","entry":[{"fullUrl":"https://madie.cms.gov/Patient/298f3f92-5047-46fc-ad92-9f27887ffc55","resource":{"resourceType":"Patient","id":"298f3f92-5047-46fc-ad92-9f27887ffc55","meta":{"profile":["http://hl7.org/fhir/us/qicore/StructureDefinition/qicore-patient"]},"text":{"status":"generated","div":"<div xmlns=\"http://www.w3.org/1999/xhtml\"><div class=\"hapiHeaderText\">MALDUH1DayAfterICU <b>NUMERPASS </b></div><table class=\"hapiPropertyTable\"><tbody><tr><td>Identifier</td><td>4a57e8e4a87323501c4bde2e71e8e471</td></tr><tr><td>Date of birth</td><td><span>03 March 1974</span></td></tr></tbody></table></div>"},"extension":[{"url":"http://hl7.org/fhir/us/core/StructureDefinition/us-core-race","extension":[{"url":"ombCategory","valueCoding":{"system":"urn:oid:2.16.840.1.113883.6.238","code":"1002-5","display":"American Indian or Alaska Native","userSelected":true}},{"url":"text","valueString":"American Indian or Alaska Native"}]},{"url":"http://hl7.org/fhir/us/core/StructureDefinition/us-core-ethnicity","extension":[{"url":"ombCategory","valueCoding":{"system":"urn:oid:2.16.840.1.113883.6.238","code":"2135-2","display":"Hispanic or Latino","userSelected":true}},{"url":"text","valueString":"Hispanic or Latino"}]}],"identifier":[{"type":{"coding":[{"system":"http://terminology.hl7.org/CodeSystem/v2-0203","code":"MR"}]},"system":"https://bonnie-fhir.healthit.gov/","value":"612e6eb702c62a011f2ef567"}],"active":true,"name":[{"use":"usual","family":"NUMERPass","given":["MALDUH1DayAfterICU"]}],"gender":"female","birthDate":"1975-03-03"},"request":{"method":"PUT","url":"Patient/298f3f92-5047-46fc-ad92-9f27887ffc55"}},{"fullUrl":"https://madie.cms.gov/Encounter/612e23e6-9848-48ad-b3ce-9fea210c2340","resource":{"resourceType":"Encounter","id":"612e23e6-9848-48ad-b3ce-9fea210c2340","meta":{"profile":["http://hl7.org/fhir/us/qicore/StructureDefinition/qicore-encounter"]},"status":"finished","class":{"system":"http://terminology.hl7.org/CodeSystem/v3-ActCode","code":"IMP","display":"inpatient encounter"},"type":[{"coding":[{"system":"http://snomed.info/sct","code":"8715000"}]}],"subject":{"reference":"Patient/298f3f92-5047-46fc-ad92-9f27887ffc55"},"period":{"start":"2026-12-01T00:00:00+00:00","end":"2026-12-31T23:59:00+00:00"},"length":{"value":30,"unit":"days"},"location":[{"location":{"reference":"Location/1e9a3917-434e-4f21-9842-d5a706fa0ca8"},"period":{"start":"2026-12-01T09:00:00.000+00:00","end":"2026-12-10T08:15:00.000+00:00"}}]},"request":{"method":"PUT","url":"Encounter/612e23e6-9848-48ad-b3ce-9fea210c2340"}},{"fullUrl":"https://madie.cms.gov/Coverage/1e354a84-6dec-4eb9-a492-37465b6132fe","resource":{"resourceType":"Coverage","id":"1e354a84-6dec-4eb9-a492-37465b6132fe","status":"active","beneficiary":{"reference":"Patient/298f3f92-5047-46fc-ad92-9f27887ffc55"},"period":{"start":"1975-03-03T08:00:00+00:00"},"payor":[{"reference":"Organization/3e899f33-84eb-4634-a770-a5a0bd7a80e7"}]},"request":{"method":"PUT","url":"Coverage/1e354a84-6dec-4eb9-a492-37465b6132fe"}},{"fullUrl":"https://madie.cms.gov/MedicationAdministration/9cdd2ab6-82f3-4591-a08f-b6415b471877","resource":{"resourceType":"MedicationAdministration","id":"9cdd2ab6-82f3-4591-a08f-b6415b471877","meta":{"profile":["http://hl7.org/fhir/us/qicore/StructureDefinition/qicore-medicationadministration"]},"status":"completed","medicationCodeableConcept":{"coding":[{"system":"http://www.nlm.nih.gov/research/umls/rxnorm","code":"1361574"}]},"subject":{"reference":"Patient/298f3f92-5047-46fc-ad92-9f27887ffc55"},"effectivePeriod":{"start":"2026-12-02T23:59:00+00:00"},"dosage":{"route":{"coding":[{"system":"http://snomed.info/sct","code":"34206005","display":"Subcutaneous route"}]},"dose":{"value":20000,"unit":"UNT/ML","system":"http://unitsofmeasure.org","code":"ML"}}},"request":{"method":"PUT","url":"MedicationAdministration/9cdd2ab6-82f3-4591-a08f-b6415b471877"}},{"fullUrl":"https://madie.cms.gov/Location/1e9a3917-434e-4f21-9842-d5a706fa0ca8","resource":{"resourceType":"Location","id":"1e9a3917-434e-4f21-9842-d5a706fa0ca8","meta":{"profile":["http://hl7.org/fhir/us/qicore/StructureDefinition/qicore-location"]},"identifier":[{"use":"usual","system":"http://exampleoflocation.com","value":"B1-S.F2"}],"name":"Medical Surgical East, first floor","type":[{"coding":[{"system":"https://www.cdc.gov/nhsn/cdaportal/terminology/codesystem/hsloc.html","version":"2020","code":"1025-6","display":"Trauma Critical Care","userSelected":true}]}]},"request":{"method":"PUT","url":"Location/1e9a3917-434e-4f21-9842-d5a706fa0ca8"}},{"fullUrl":"https://madie.cms.gov/Organization/7a49ec37-748c-4efe-8e48-d9c41b7e1f31","resource":{"resourceType":"Organization","id":"3e899f33-84eb-4634-a770-a5a0bd7a80e7","meta":{"profile":["http://hl7.org/fhir/us/qicore/StructureDefinition/qicore-organization"]},"identifier":[{"use":"temp","system":"urn:oid:2.16.840.1.113883.4.4","value":"21-3259825"}],"active":true,"type":[{"coding":[{"system":"http://terminology.hl7.org/CodeSystem/organization-type","code":"pay","display":"Payer"}]}],"name":"Blue Cross Blue Shield of Texas","telecom":[{"system":"phone","value":"(+1) 972-766-6900"}],"address":[{"use":"billing","type":"postal","line":["P.O. Box 660044"],"city":"Dallas","state":"TX","postalCode":"75266-0044","country":"USA"}]},"request":{"method":"PUT","url":"Organization/3e899f33-84eb-4634-a770-a5a0bd7a80e7"}},{"fullUrl":"https://madie.cms.gov/Practitioner/216b88d9-938f-4642-b35a-f14a51a211b9","resource":{"resourceType":"Practitioner","id":"216b88d9-938f-4642-b35a-f14a51a211b9","identifier":[{"system":"http://hl7.org/fhir/sid/us-npi","value":"123456"}],"name":[{"family":"Evil","prefix":["Dr"]}]},"request":{"method":"PUT","url":"Practitioner/216b88d9-938f-4642-b35a-f14a51a211b9"}},{"fullUrl":"https://madie.cms.gov/MeasureReport/385b29af-1b0b-4658-b3bf-1da0e3cc56bb","resource":{"resourceType":"MeasureReport","id":"385b29af-1b0b-4658-b3bf-1da0e3cc56bb","meta":{"profile":["http://hl7.org/fhir/us/cqfmeasures/StructureDefinition/test-case-cqfm"]},"contained":[{"resourceType":"Parameters","id":"8934652d-0361-4e5d-b1bf-6e36839a6172-parameters","parameter":[{"name":"subject","valueString":"298f3f92-5047-46fc-ad92-9f27887ffc55"}]}],"extension":[{"url":"http://hl7.org/fhir/us/cqfmeasures/StructureDefinition/cqfm-inputParameters","valueReference":{"reference":"#8934652d-0361-4e5d-b1bf-6e36839a6172-parameters"}},{"url":"http://hl7.org/fhir/us/cqfmeasures/StructureDefinition/cqfm-testCaseDescription","valueMarkdown":"LDUH 1 day after ICU admission, no anesthesia. \n"}],"modifierExtension":[{"url":"http://hl7.org/fhir/us/cqfmeasures/StructureDefinition/cqfm-isTestCase","valueBoolean":true}],"status":"complete","type":"individual","measure":"https://madie.cms.gov/Measure/CMS190VTEProphylaxisICUFHIR","period":{"start":"2026-01-01","end":"2026-12-31"},"group":[{"population":[{"code":{"coding":[{"system":"http://terminology.hl7.org/CodeSystem/measure-population","code":"initial-population","display":"Initial Population"}]},"count":1},{"code":{"coding":[{"system":"http://terminology.hl7.org/CodeSystem/measure-population","code":"denominator","display":"Denominator"}]},"count":1},{"code":{"coding":[{"system":"http://terminology.hl7.org/CodeSystem/measure-population","code":"denominator-exclusion","display":"Denominator Exclusion"}]},"count":0},{"code":{"coding":[{"system":"http://terminology.hl7.org/CodeSystem/measure-population","code":"numerator","display":"Numerator"}]},"count":1},{"code":{"coding":[{"system":"http://terminology.hl7.org/CodeSystem/measure-population","code":"denominator-exception","display":"Denominator Exception"}]},"count":0}]}]},"request":{"method":"PUT","url":"MeasureReport/385b29af-1b0b-4658-b3bf-1da0e3cc56bb"}}]}