{"resourceType":"Bundle","id":"tests-a1a991db-e4b4-46d4-bb51-befa8e7feaad-bundle","type":"transaction","entry":[{"fullUrl":"https://madie.cms.gov/Patient/a1a991db-e4b4-46d4-bb51-befa8e7feaad","resource":{"resourceType":"Patient","id":"a1a991db-e4b4-46d4-bb51-befa8e7feaad","meta":{"profile":["http://hl7.org/fhir/us/qicore/StructureDefinition/qicore-patient"]},"text":{"status":"generated","div":"<div xmlns=\"http://www.w3.org/1999/xhtml\"><div class=\"hapiHeaderText\">ThrombinDayAfterAneWRvlntDT <b>NUMERPASS </b></div><table class=\"hapiPropertyTable\"><tbody><tr><td>Identifier</td><td>477ee240f9d3831dbb4bc572c0c7b010</td></tr><tr><td>Date of birth</td><td><span>03 March 1974</span></td></tr></tbody></table></div>"},"extension":[{"url":"http://hl7.org/fhir/us/core/StructureDefinition/us-core-race","extension":[{"url":"ombCategory","valueCoding":{"system":"urn:oid:2.16.840.1.113883.6.238","code":"1002-5","display":"American Indian or Alaska Native","userSelected":true}},{"url":"text","valueString":"American Indian or Alaska Native"}]},{"url":"http://hl7.org/fhir/us/core/StructureDefinition/us-core-ethnicity","extension":[{"url":"ombCategory","valueCoding":{"system":"urn:oid:2.16.840.1.113883.6.238","code":"2135-2","display":"Hispanic or Latino","userSelected":true}},{"url":"text","valueString":"Hispanic or Latino"}]}],"identifier":[{"type":{"coding":[{"system":"http://terminology.hl7.org/CodeSystem/v2-0203","code":"MR"}]},"system":"https://bonnie-fhir.healthit.gov/","value":"612e6f9102c62a011f2f24d3"}],"active":true,"name":[{"use":"usual","family":"NUMERPass","given":["ThrombinDayAfterAneWRvlntDT"]}],"gender":"female","birthDate":"1975-03-03"},"request":{"method":"PUT","url":"Patient/a1a991db-e4b4-46d4-bb51-befa8e7feaad"}},{"fullUrl":"https://madie.cms.gov/Encounter/019017ae-1d73-46d0-98b3-72b567328279","resource":{"resourceType":"Encounter","id":"019017ae-1d73-46d0-98b3-72b567328279","meta":{"profile":["http://hl7.org/fhir/us/qicore/StructureDefinition/qicore-encounter"]},"status":"finished","class":{"system":"http://terminology.hl7.org/CodeSystem/v3-ActCode","code":"IMP","display":"inpatient encounter"},"type":[{"coding":[{"system":"http://snomed.info/sct","code":"8715000"}]}],"subject":{"reference":"Patient/a1a991db-e4b4-46d4-bb51-befa8e7feaad"},"period":{"start":"2026-12-04T08:00:00+00:00","end":"2026-12-30T08:15:00+00:00"},"length":{"value":26.0,"unit":"days"},"location":[{"location":{"reference":"Location/0c02e8ed-06ca-4440-92ab-50ab6207c409"},"period":{"start":"2026-12-06T08:00:00.000+00:00","end":"2026-12-12T08:15:00.000+00:00"}}]},"request":{"method":"PUT","url":"Encounter/019017ae-1d73-46d0-98b3-72b567328279"}},{"fullUrl":"https://madie.cms.gov/Coverage/3aa1444a-4611-4350-bef3-064b20c85aef","resource":{"resourceType":"Coverage","id":"3aa1444a-4611-4350-bef3-064b20c85aef","status":"active","beneficiary":{"reference":"Patient/a1a991db-e4b4-46d4-bb51-befa8e7feaad"},"period":{"start":"1975-03-03T08:00:00+00:00"},"payor":[{"reference":"Organization/f4907415-83c5-4eae-ab0b-cb63a840880d"}]},"request":{"method":"PUT","url":"Coverage/3aa1444a-4611-4350-bef3-064b20c85aef"}},{"fullUrl":"https://madie.cms.gov/MedicationAdministration/7658dcaf-4a5f-418f-8bed-c7ae7a4df35e","resource":{"resourceType":"MedicationAdministration","id":"7658dcaf-4a5f-418f-8bed-c7ae7a4df35e","meta":{"profile":["http://hl7.org/fhir/us/qicore/StructureDefinition/qicore-medicationadministration"]},"status":"completed","medicationCodeableConcept":{"coding":[{"system":"http://www.nlm.nih.gov/research/umls/rxnorm","code":"308351"}]},"subject":{"reference":"Patient/a1a991db-e4b4-46d4-bb51-befa8e7feaad"},"effectiveDateTime":"2026-12-08T11:30:00.000+00:00"},"request":{"method":"PUT","url":"MedicationAdministration/7658dcaf-4a5f-418f-8bed-c7ae7a4df35e"}},{"fullUrl":"https://madie.cms.gov/Procedure/4958178b-1ea0-4f70-b171-345fa3ede7b8","resource":{"resourceType":"Procedure","id":"4958178b-1ea0-4f70-b171-345fa3ede7b8","meta":{"profile":["http://hl7.org/fhir/us/qicore/StructureDefinition/qicore-procedure"]},"extension":[{"url":"http://hl7.org/fhir/us/qicore/StructureDefinition/qicore-recorded","valueDateTime":"2013-12-07T09:35:00-04:00"}],"status":"completed","code":{"coding":[{"system":"http://www.cms.gov/Medicare/Coding/ICD10","code":"3E030FZ"}]},"subject":{"reference":"Patient/a1a991db-e4b4-46d4-bb51-befa8e7feaad"},"performedDateTime":"2026-12-07T11:15:00.000+00:00"},"request":{"method":"PUT","url":"Procedure/4958178b-1ea0-4f70-b171-345fa3ede7b8"}},{"fullUrl":"https://madie.cms.gov/Location/0c02e8ed-06ca-4440-92ab-50ab6207c409","resource":{"resourceType":"Location","id":"0c02e8ed-06ca-4440-92ab-50ab6207c409","meta":{"profile":["http://hl7.org/fhir/us/qicore/StructureDefinition/qicore-location"]},"identifier":[{"use":"usual","system":"http://exampleoflocation.com","value":"B1-S.F2"}],"name":"Medical Surgical East, first floor","type":[{"coding":[{"system":"https://www.cdc.gov/nhsn/cdaportal/terminology/codesystem/hsloc.html","code":"1025-6","display":"Trauma Critical Care","userSelected":true}]}]},"request":{"method":"PUT","url":"Location/0c02e8ed-06ca-4440-92ab-50ab6207c409"}},{"fullUrl":"https://madie.cms.gov/Organization/deb69de2-6ab6-4c5e-a8bb-c9b7eec77721","resource":{"resourceType":"Organization","id":"f4907415-83c5-4eae-ab0b-cb63a840880d","meta":{"profile":["http://hl7.org/fhir/us/qicore/StructureDefinition/qicore-organization"]},"identifier":[{"use":"temp","system":"urn:oid:2.16.840.1.113883.4.4","value":"21-3259825"}],"active":true,"type":[{"coding":[{"system":"http://terminology.hl7.org/CodeSystem/organization-type","code":"pay","display":"Payer"}]}],"name":"Blue Cross Blue Shield of Texas","telecom":[{"system":"phone","value":"(+1) 972-766-6900"}],"address":[{"use":"billing","type":"postal","line":["P.O. Box 660044"],"city":"Dallas","state":"TX","postalCode":"75266-0044","country":"USA"}]},"request":{"method":"PUT","url":"Organization/f4907415-83c5-4eae-ab0b-cb63a840880d"}},{"fullUrl":"https://madie.cms.gov/Practitioner/23b9f39f-5c06-4e9c-ad23-dd33490a8ef8","resource":{"resourceType":"Practitioner","id":"23b9f39f-5c06-4e9c-ad23-dd33490a8ef8","identifier":[{"system":"http://hl7.org/fhir/sid/us-npi","value":"123456"}],"name":[{"family":"Evil","prefix":["Dr"]}]},"request":{"method":"PUT","url":"Practitioner/23b9f39f-5c06-4e9c-ad23-dd33490a8ef8"}},{"fullUrl":"https://madie.cms.gov/MeasureReport/2970debb-8506-428e-acf2-4ec59d5726b8","resource":{"resourceType":"MeasureReport","id":"2970debb-8506-428e-acf2-4ec59d5726b8","meta":{"profile":["http://hl7.org/fhir/us/cqfmeasures/StructureDefinition/test-case-cqfm"]},"contained":[{"resourceType":"Parameters","id":"2fb35581-3eab-4e90-87ca-d3f5dc6627d2-parameters","parameter":[{"name":"subject","valueString":"a1a991db-e4b4-46d4-bb51-befa8e7feaad"}]}],"extension":[{"url":"http://hl7.org/fhir/us/cqfmeasures/StructureDefinition/cqfm-inputParameters","valueReference":{"reference":"#2fb35581-3eab-4e90-87ca-d3f5dc6627d2-parameters"}},{"url":"http://hl7.org/fhir/us/cqfmeasures/StructureDefinition/cqfm-testCaseDescription","valueMarkdown":"ThrombinDayAfterAnes_MedAdmRvlntDT_PorcRvlntDT\n"}],"modifierExtension":[{"url":"http://hl7.org/fhir/us/cqfmeasures/StructureDefinition/cqfm-isTestCase","valueBoolean":true}],"status":"complete","type":"individual","measure":"https://madie.cms.gov/Measure/CMS190VTEProphylaxisICUFHIR","period":{"start":"2026-01-01","end":"2026-12-31"},"group":[{"population":[{"code":{"coding":[{"system":"http://terminology.hl7.org/CodeSystem/measure-population","code":"initial-population","display":"Initial Population"}]},"count":1},{"code":{"coding":[{"system":"http://terminology.hl7.org/CodeSystem/measure-population","code":"denominator","display":"Denominator"}]},"count":1},{"code":{"coding":[{"system":"http://terminology.hl7.org/CodeSystem/measure-population","code":"denominator-exclusion","display":"Denominator Exclusion"}]},"count":0},{"code":{"coding":[{"system":"http://terminology.hl7.org/CodeSystem/measure-population","code":"numerator","display":"Numerator"}]},"count":1},{"code":{"coding":[{"system":"http://terminology.hl7.org/CodeSystem/measure-population","code":"denominator-exception","display":"Denominator Exception"}]},"count":0}]}]},"request":{"method":"PUT","url":"MeasureReport/2970debb-8506-428e-acf2-4ec59d5726b8"}}]}