{"resourceType":"Bundle","id":"tests-5109af7f-4d95-4372-8857-71d800f53100-bundle","type":"transaction","entry":[{"fullUrl":"https://madie.cms.gov/Patient/5109af7f-4d95-4372-8857-71d800f53100","resource":{"resourceType":"Patient","id":"5109af7f-4d95-4372-8857-71d800f53100","meta":{"profile":["http://hl7.org/fhir/us/qicore/StructureDefinition/qicore-patient"]},"text":{"status":"generated","div":"<div xmlns=\"http://www.w3.org/1999/xhtml\"><div class=\"hapiHeaderText\">MedReasonMOInjXaDOIPCOnAnesEndTime <b>NUMERPASS </b></div><table class=\"hapiPropertyTable\"><tbody><tr><td>Identifier</td><td>2e65528d235225a29036bb2a5e6ef1d4</td></tr><tr><td>Date of birth</td><td><span>02 January 1974</span></td></tr></tbody></table></div>"},"extension":[{"url":"http://hl7.org/fhir/us/core/StructureDefinition/us-core-race","extension":[{"url":"ombCategory","valueCoding":{"system":"urn:oid:2.16.840.1.113883.6.238","code":"1002-5","display":"American Indian or Alaska Native","userSelected":true}},{"url":"text","valueString":"American Indian or Alaska Native"}]},{"url":"http://hl7.org/fhir/us/core/StructureDefinition/us-core-ethnicity","extension":[{"url":"ombCategory","valueCoding":{"system":"urn:oid:2.16.840.1.113883.6.238","code":"2135-2","display":"Hispanic or Latino","userSelected":true}},{"url":"text","valueString":"Hispanic or Latino"}]}],"identifier":[{"type":{"coding":[{"system":"http://terminology.hl7.org/CodeSystem/v2-0203","code":"MR"}]},"system":"https://bonnie-fhir.healthit.gov/","value":"612e6a9302c62a011f2ea6da"}],"active":true,"name":[{"use":"usual","family":"NUMERPass","given":["MedReasonMOInjXaDOIPCOnAnesEndTime"]}],"gender":"male","birthDate":"1975-01-02"},"request":{"method":"PUT","url":"Patient/5109af7f-4d95-4372-8857-71d800f53100"}},{"fullUrl":"https://madie.cms.gov/Encounter/30b75770-e0a5-4e53-ac12-d1f6eefc6b2e","resource":{"resourceType":"Encounter","id":"30b75770-e0a5-4e53-ac12-d1f6eefc6b2e","meta":{"profile":["http://hl7.org/fhir/us/qicore/StructureDefinition/qicore-encounter"]},"status":"finished","class":{"system":"http://terminology.hl7.org/CodeSystem/v3-ActCode","code":"IMP","display":"inpatient encounter"},"type":[{"coding":[{"system":"http://snomed.info/sct","code":"8715000"}]}],"subject":{"reference":"Patient/5109af7f-4d95-4372-8857-71d800f53100"},"period":{"start":"2026-11-01T08:00:00+00:00","end":"2026-11-26T08:15:00+00:00"},"length":{"value":25.0,"unit":"days"},"location":[{"location":{"reference":"Location/61b0a7fd-2e91-41c4-9b02-f305675aab49"},"period":{"start":"2026-11-01T09:00:00.000+00:00","end":"2026-11-02T08:15:00.000+00:00"}}]},"request":{"method":"PUT","url":"Encounter/30b75770-e0a5-4e53-ac12-d1f6eefc6b2e"}},{"fullUrl":"https://madie.cms.gov/Coverage/2e00f983-6073-4b54-b4c7-90d52e904c7f","resource":{"resourceType":"Coverage","id":"2e00f983-6073-4b54-b4c7-90d52e904c7f","status":"active","beneficiary":{"reference":"Patient/5109af7f-4d95-4372-8857-71d800f53100"},"period":{"start":"1975-01-02T08:00:00+00:00"},"payor":[{"reference":"Organization/f4907415-83c5-4eae-ab0b-cb63a840880d"}]},"request":{"method":"PUT","url":"Coverage/2e00f983-6073-4b54-b4c7-90d52e904c7f"}},{"fullUrl":"https://madie.cms.gov/ServiceRequest/3c969ed0-22a8-4dd2-9a57-ffb095dedca4","resource":{"resourceType":"ServiceRequest","id":"3c969ed0-22a8-4dd2-9a57-ffb095dedca4","meta":{"profile":["http://hl7.org/fhir/us/qicore/StructureDefinition/qicore-servicenotrequested"]},"extension":[{"url":"http://hl7.org/fhir/us/qicore/StructureDefinition/qicore-doNotPerformReason","valueCodeableConcept":{"coding":[{"system":"http://snomed.info/sct","code":"183932001","display":"Procedure contraindicated (situation)"}]}}],"status":"completed","intent":"order","doNotPerform":true,"code":{"coding":[{"system":"http://snomed.info/sct","code":"428411000124104","display":"Intermittent pneumatic compression boot (physical object)","userSelected":true}]},"subject":{"reference":"Patient/5109af7f-4d95-4372-8857-71d800f53100"},"authoredOn":"2026-11-02T09:15:00+00:00"},"request":{"method":"PUT","url":"ServiceRequest/3c969ed0-22a8-4dd2-9a57-ffb095dedca4"}},{"fullUrl":"https://madie.cms.gov/MedicationRequest/8b84c47a-955a-4498-849f-8d2150dc7366","resource":{"resourceType":"MedicationRequest","id":"8b84c47a-955a-4498-849f-8d2150dc7366","meta":{"profile":["http://hl7.org/fhir/us/qicore/StructureDefinition/qicore-mednotrequested"]},"status":"completed","intent":"order","category":[{"coding":[{"system":"http://terminology.hl7.org/CodeSystem/medicationrequest-category","code":"community"}]}],"doNotPerform":true,"medicationCodeableConcept":{"coding":[{"system":"http://www.nlm.nih.gov/research/umls/rxnorm","code":"861363"}]},"subject":{"reference":"Patient/5109af7f-4d95-4372-8857-71d800f53100"},"authoredOn":"2026-11-02T09:15:00+00:00","requester":{"reference":"Practitioner/123456"},"reasonCode":[{"coding":[{"system":"http://snomed.info/sct","code":"183932001","display":"Procedure contraindicated (situation)","userSelected":true}]}],"dosageInstruction":[{"timing":{"repeat":{"boundsPeriod":{"start":"2026-11-03T09:00:00+00:00"}}}}]},"request":{"method":"PUT","url":"MedicationRequest/8b84c47a-955a-4498-849f-8d2150dc7366"}},{"fullUrl":"https://madie.cms.gov/Procedure/94428ed8-af4a-49a9-b9cb-7227322b5138","resource":{"resourceType":"Procedure","id":"94428ed8-af4a-49a9-b9cb-7227322b5138","meta":{"profile":["http://hl7.org/fhir/us/qicore/StructureDefinition/qicore-procedure"]},"extension":[{"url":"http://hl7.org/fhir/us/qicore/StructureDefinition/qicore-recorded","valueDateTime":"2013-11-04T09:35:00-04:00"}],"status":"completed","code":{"coding":[{"system":"http://snomed.info/sct","code":"18946005"}]},"subject":{"reference":"Patient/5109af7f-4d95-4372-8857-71d800f53100"},"performedPeriod":{"start":"2026-11-02T09:00:00+00:00","end":"2026-11-02T09:15:00+00:00"}},"request":{"method":"PUT","url":"Procedure/94428ed8-af4a-49a9-b9cb-7227322b5138"}},{"fullUrl":"https://madie.cms.gov/Location/61b0a7fd-2e91-41c4-9b02-f305675aab49","resource":{"resourceType":"Location","id":"61b0a7fd-2e91-41c4-9b02-f305675aab49","meta":{"profile":["http://hl7.org/fhir/us/qicore/StructureDefinition/qicore-location"]},"identifier":[{"use":"usual","system":"http://exampleoflocation.com","value":"B1-S.F2"}],"name":"Medical Surgical East, first floor","type":[{"coding":[{"system":"https://www.cdc.gov/nhsn/cdaportal/terminology/codesystem/hsloc.html","code":"1025-6","display":"Trauma Critical Care","userSelected":true}]}]},"request":{"method":"PUT","url":"Location/61b0a7fd-2e91-41c4-9b02-f305675aab49"}},{"fullUrl":"https://madie.cms.gov/Organization/ee3ca033-9891-4804-9134-7b22bd347ded","resource":{"resourceType":"Organization","id":"f4907415-83c5-4eae-ab0b-cb63a840880d","meta":{"profile":["http://hl7.org/fhir/us/qicore/StructureDefinition/qicore-organization"]},"identifier":[{"use":"temp","system":"urn:oid:2.16.840.1.113883.4.4","value":"21-3259825"}],"active":true,"type":[{"coding":[{"system":"http://terminology.hl7.org/CodeSystem/organization-type","code":"pay","display":"Payer"}]}],"name":"Blue Cross Blue Shield of Texas","telecom":[{"system":"phone","value":"(+1) 972-766-6900"}],"address":[{"use":"billing","type":"postal","line":["P.O. Box 660044"],"city":"Dallas","state":"TX","postalCode":"75266-0044","country":"USA"}]},"request":{"method":"PUT","url":"Organization/f4907415-83c5-4eae-ab0b-cb63a840880d"}},{"fullUrl":"https://madie.cms.gov/Practitioner/331d489d-2399-47d9-8085-430b643d76f7","resource":{"resourceType":"Practitioner","id":"331d489d-2399-47d9-8085-430b643d76f7","identifier":[{"system":"http://hl7.org/fhir/sid/us-npi","value":"123456"}],"name":[{"family":"Evil","prefix":["Dr"]}]},"request":{"method":"PUT","url":"Practitioner/331d489d-2399-47d9-8085-430b643d76f7"}},{"fullUrl":"https://madie.cms.gov/MeasureReport/58ade82d-748f-4cdc-ba91-766784f34079","resource":{"resourceType":"MeasureReport","id":"58ade82d-748f-4cdc-ba91-766784f34079","meta":{"profile":["http://hl7.org/fhir/us/cqfmeasures/StructureDefinition/test-case-cqfm"]},"contained":[{"resourceType":"Parameters","id":"85d2c57c-5bde-4e6d-922f-7e738a0b15c3-parameters","parameter":[{"name":"subject","valueString":"5109af7f-4d95-4372-8857-71d800f53100"}]}],"extension":[{"url":"http://hl7.org/fhir/us/cqfmeasures/StructureDefinition/cqfm-inputParameters","valueReference":{"reference":"#85d2c57c-5bde-4e6d-922f-7e738a0b15c3-parameters"}},{"url":"http://hl7.org/fhir/us/cqfmeasures/StructureDefinition/cqfm-testCaseDescription","valueMarkdown":"Injectable Factor Xa and IPC  not ordered dt medical reason concurrent neuraxial anesthesia\n"}],"modifierExtension":[{"url":"http://hl7.org/fhir/us/cqfmeasures/StructureDefinition/cqfm-isTestCase","valueBoolean":true}],"status":"complete","type":"individual","measure":"https://madie.cms.gov/Measure/CMS190VTEProphylaxisICUFHIR","period":{"start":"2026-01-01","end":"2026-12-31"},"group":[{"population":[{"code":{"coding":[{"system":"http://terminology.hl7.org/CodeSystem/measure-population","code":"initial-population","display":"Initial Population"}]},"count":1},{"code":{"coding":[{"system":"http://terminology.hl7.org/CodeSystem/measure-population","code":"denominator","display":"Denominator"}]},"count":1},{"code":{"coding":[{"system":"http://terminology.hl7.org/CodeSystem/measure-population","code":"denominator-exclusion","display":"Denominator Exclusion"}]},"count":0},{"code":{"coding":[{"system":"http://terminology.hl7.org/CodeSystem/measure-population","code":"numerator","display":"Numerator"}]},"count":1},{"code":{"coding":[{"system":"http://terminology.hl7.org/CodeSystem/measure-population","code":"denominator-exception","display":"Denominator Exception"}]},"count":0}]}]},"request":{"method":"PUT","url":"MeasureReport/58ade82d-748f-4cdc-ba91-766784f34079"}}]}