{"resourceType":"Bundle","id":"tests-362755f7-cf57-4178-b0c0-a0fc22b376fe-bundle","type":"transaction","entry":[{"fullUrl":"https://madie.cms.gov/Patient/362755f7-cf57-4178-b0c0-a0fc22b376fe","resource":{"resourceType":"Patient","id":"362755f7-cf57-4178-b0c0-a0fc22b376fe","meta":{"profile":["http://hl7.org/fhir/us/qicore/StructureDefinition/qicore-patient"]},"text":{"status":"generated","div":"<div xmlns=\"http://www.w3.org/1999/xhtml\"><div class=\"hapiHeaderText\">OralXa2DaysAFICU1DayAfAnesHipWRvlntDT <b>NUMERPASS </b></div><table class=\"hapiPropertyTable\"><tbody><tr><td>Identifier</td><td>8693e02c1b94abdc9b9428b41412eae6</td></tr><tr><td>Date of birth</td><td><span>03 March 1974</span></td></tr></tbody></table></div>"},"extension":[{"url":"http://hl7.org/fhir/us/core/StructureDefinition/us-core-race","extension":[{"url":"ombCategory","valueCoding":{"system":"urn:oid:2.16.840.1.113883.6.238","code":"1002-5","display":"American Indian or Alaska Native","userSelected":true}},{"url":"text","valueString":"American Indian or Alaska Native"}]},{"url":"http://hl7.org/fhir/us/core/StructureDefinition/us-core-ethnicity","extension":[{"url":"ombCategory","valueCoding":{"system":"urn:oid:2.16.840.1.113883.6.238","code":"2135-2","display":"Hispanic or Latino","userSelected":true}},{"url":"text","valueString":"Hispanic or Latino"}]}],"identifier":[{"type":{"coding":[{"system":"http://terminology.hl7.org/CodeSystem/v2-0203","code":"MR"}]},"system":"https://bonnie-fhir.healthit.gov/","value":"612e6ea302c62a011f2ef23d"}],"active":true,"name":[{"use":"usual","family":"NUMERPass","given":["OralXa2DaysAFICU1DayAfAnesHipWRvlntDT"]}],"gender":"female","birthDate":"1975-03-03"},"request":{"method":"PUT","url":"Patient/362755f7-cf57-4178-b0c0-a0fc22b376fe"}},{"fullUrl":"https://madie.cms.gov/Encounter/e0457830-4fca-4ba5-8185-477e65f167e8","resource":{"resourceType":"Encounter","id":"e0457830-4fca-4ba5-8185-477e65f167e8","meta":{"profile":["http://hl7.org/fhir/us/qicore/StructureDefinition/qicore-encounter"]},"status":"finished","class":{"system":"http://terminology.hl7.org/CodeSystem/v3-ActCode","code":"IMP","display":"inpatient encounter"},"type":[{"coding":[{"system":"http://snomed.info/sct","code":"8715000"}]}],"subject":{"reference":"Patient/362755f7-cf57-4178-b0c0-a0fc22b376fe"},"period":{"start":"2026-12-04T08:00:00+00:00","end":"2026-12-30T08:15:00+00:00"},"length":{"value":26.0,"unit":"days"},"location":[{"location":{"reference":"Location/b10e0d81-d0b3-496e-97b0-5bada8b90912"},"period":{"start":"2026-12-06T08:00:00.000+00:00","end":"2026-12-08T08:15:00.000+00:00"}}]},"request":{"method":"PUT","url":"Encounter/e0457830-4fca-4ba5-8185-477e65f167e8"}},{"fullUrl":"https://madie.cms.gov/Coverage/9ab8bd01-82e9-4e8f-a086-4de311c91cfe","resource":{"resourceType":"Coverage","id":"9ab8bd01-82e9-4e8f-a086-4de311c91cfe","status":"active","beneficiary":{"reference":"Patient/362755f7-cf57-4178-b0c0-a0fc22b376fe"},"period":{"start":"1975-03-03T08:00:00+00:00"},"payor":[{"reference":"Organization/18ca435c-cae6-4c34-8033-af717477f9fc"}]},"request":{"method":"PUT","url":"Coverage/9ab8bd01-82e9-4e8f-a086-4de311c91cfe"}},{"fullUrl":"https://madie.cms.gov/MedicationAdministration/e86a48e7-acd7-4aa4-b1b9-0b3b71c5a433","resource":{"resourceType":"MedicationAdministration","id":"e86a48e7-acd7-4aa4-b1b9-0b3b71c5a433","meta":{"profile":["http://hl7.org/fhir/us/qicore/StructureDefinition/qicore-medicationadministration"]},"status":"completed","medicationCodeableConcept":{"coding":[{"system":"http://www.nlm.nih.gov/research/umls/rxnorm","code":"1364435","display":"apixaban 2.5 MG Oral Tablet","userSelected":true}]},"subject":{"reference":"Patient/362755f7-cf57-4178-b0c0-a0fc22b376fe"},"effectiveDateTime":"2026-12-08T08:00:00.000+00:00"},"request":{"method":"PUT","url":"MedicationAdministration/e86a48e7-acd7-4aa4-b1b9-0b3b71c5a433"}},{"fullUrl":"https://madie.cms.gov/Procedure/d6b149b7-857b-48b7-a185-1fafa4de5f26","resource":{"resourceType":"Procedure","id":"d6b149b7-857b-48b7-a185-1fafa4de5f26","meta":{"profile":["http://hl7.org/fhir/us/qicore/StructureDefinition/qicore-procedure"]},"extension":[{"url":"http://hl7.org/fhir/us/qicore/StructureDefinition/qicore-recorded","valueDateTime":"2013-12-04T09:35:00-04:00"}],"status":"completed","code":{"coding":[{"system":"http://snomed.info/sct","code":"7989006"}]},"subject":{"reference":"Patient/362755f7-cf57-4178-b0c0-a0fc22b376fe"},"performedPeriod":{"start":"2026-12-07T05:00:00+00:00","end":"2026-12-07T08:15:00+00:00"}},"request":{"method":"PUT","url":"Procedure/d6b149b7-857b-48b7-a185-1fafa4de5f26"}},{"fullUrl":"https://madie.cms.gov/Procedure/71d50768-6324-4c79-b9ce-94b2c5ba8074","resource":{"resourceType":"Procedure","id":"71d50768-6324-4c79-b9ce-94b2c5ba8074","meta":{"profile":["http://hl7.org/fhir/us/qicore/StructureDefinition/qicore-procedure"]},"extension":[{"url":"http://hl7.org/fhir/us/qicore/StructureDefinition/qicore-recorded","valueDateTime":"2013-12-08T09:35:00-04:00"}],"status":"completed","code":{"coding":[{"system":"http://snomed.info/sct","code":"18946005"}]},"subject":{"reference":"Patient/362755f7-cf57-4178-b0c0-a0fc22b376fe"},"performedDateTime":"2026-12-07T05:00:00+00:00"},"request":{"method":"PUT","url":"Procedure/71d50768-6324-4c79-b9ce-94b2c5ba8074"}},{"fullUrl":"https://madie.cms.gov/Location/b10e0d81-d0b3-496e-97b0-5bada8b90912","resource":{"resourceType":"Location","id":"b10e0d81-d0b3-496e-97b0-5bada8b90912","meta":{"profile":["http://hl7.org/fhir/us/qicore/StructureDefinition/qicore-location"]},"identifier":[{"use":"usual","system":"http://exampleoflocation.com","value":"B1-S.F2"}],"name":"Medical Surgical East, first floor","type":[{"coding":[{"system":"https://www.cdc.gov/nhsn/cdaportal/terminology/codesystem/hsloc.html","code":"1025-6","display":"Trauma Critical Care","userSelected":true}]}]},"request":{"method":"PUT","url":"Location/b10e0d81-d0b3-496e-97b0-5bada8b90912"}},{"fullUrl":"https://madie.cms.gov/Organization/df9239ab-92f6-49b4-be4b-a3931e069dab","resource":{"resourceType":"Organization","id":"18ca435c-cae6-4c34-8033-af717477f9fc","meta":{"profile":["http://hl7.org/fhir/us/qicore/StructureDefinition/qicore-organization"]},"identifier":[{"use":"temp","system":"urn:oid:2.16.840.1.113883.4.4","value":"21-3259825"}],"active":true,"type":[{"coding":[{"system":"http://terminology.hl7.org/CodeSystem/organization-type","code":"pay","display":"Payer"}]}],"name":"Blue Cross Blue Shield of Texas","telecom":[{"system":"phone","value":"(+1) 972-766-6900"}],"address":[{"use":"billing","type":"postal","line":["P.O. Box 660044"],"city":"Dallas","state":"TX","postalCode":"75266-0044","country":"USA"}]},"request":{"method":"PUT","url":"Organization/18ca435c-cae6-4c34-8033-af717477f9fc"}},{"fullUrl":"https://madie.cms.gov/Practitioner/894563e0-1925-4e10-8502-4a507f023e70","resource":{"resourceType":"Practitioner","id":"894563e0-1925-4e10-8502-4a507f023e70","identifier":[{"system":"http://hl7.org/fhir/sid/us-npi","value":"123456"}],"name":[{"family":"Evil","prefix":["Dr"]}]},"request":{"method":"PUT","url":"Practitioner/894563e0-1925-4e10-8502-4a507f023e70"}},{"fullUrl":"https://madie.cms.gov/MeasureReport/0a0b3aec-d808-406b-894d-dc63764b1c60","resource":{"resourceType":"MeasureReport","id":"0a0b3aec-d808-406b-894d-dc63764b1c60","meta":{"profile":["http://hl7.org/fhir/us/cqfmeasures/StructureDefinition/test-case-cqfm"]},"contained":[{"resourceType":"Parameters","id":"4e68264f-2fc2-43c5-9e63-f48e2019fb93-parameters","parameter":[{"name":"subject","valueString":"362755f7-cf57-4178-b0c0-a0fc22b376fe"}]}],"extension":[{"url":"http://hl7.org/fhir/us/cqfmeasures/StructureDefinition/cqfm-inputParameters","valueReference":{"reference":"#4e68264f-2fc2-43c5-9e63-f48e2019fb93-parameters"}},{"url":"http://hl7.org/fhir/us/cqfmeasures/StructureDefinition/cqfm-testCaseDescription","valueMarkdown":"Oral Factor Xa Inhibitor administered 1 day after neuraxial anesthesia, which is 1 day after ICU start. Hip Fx not principal by using Medication Adm and Procedure performed anesthesia  relevant Datetime\n"}],"modifierExtension":[{"url":"http://hl7.org/fhir/us/cqfmeasures/StructureDefinition/cqfm-isTestCase","valueBoolean":true}],"status":"complete","type":"individual","measure":"https://madie.cms.gov/Measure/CMS190VTEProphylaxisICUFHIR","period":{"start":"2026-01-01","end":"2026-12-31"},"group":[{"population":[{"code":{"coding":[{"system":"http://terminology.hl7.org/CodeSystem/measure-population","code":"initial-population","display":"Initial Population"}]},"count":1},{"code":{"coding":[{"system":"http://terminology.hl7.org/CodeSystem/measure-population","code":"denominator","display":"Denominator"}]},"count":1},{"code":{"coding":[{"system":"http://terminology.hl7.org/CodeSystem/measure-population","code":"denominator-exclusion","display":"Denominator Exclusion"}]},"count":0},{"code":{"coding":[{"system":"http://terminology.hl7.org/CodeSystem/measure-population","code":"numerator","display":"Numerator"}]},"count":1},{"code":{"coding":[{"system":"http://terminology.hl7.org/CodeSystem/measure-population","code":"denominator-exception","display":"Denominator Exception"}]},"count":0}]}]},"request":{"method":"PUT","url":"MeasureReport/0a0b3aec-d808-406b-894d-dc63764b1c60"}}]}