{"resourceType":"Bundle","id":"tests-ec88b695-15b1-4ba3-b032-b04e191b97a4-bundle","type":"transaction","entry":[{"fullUrl":"https://madie.cms.gov/Patient/ec88b695-15b1-4ba3-b032-b04e191b97a4","resource":{"resourceType":"Patient","id":"ec88b695-15b1-4ba3-b032-b04e191b97a4","meta":{"profile":["http://hl7.org/fhir/us/qicore/StructureDefinition/qicore-patient"]},"text":{"status":"generated","div":"<div xmlns=\"http://www.w3.org/1999/xhtml\"><div class=\"hapiHeaderText\">PtRefMARixDAIPC2DayAfterAnes <b>NUMERFAIL </b></div><table class=\"hapiPropertyTable\"><tbody><tr><td>Identifier</td><td>39c81b9bc72445874f3c2841a7094a3f</td></tr><tr><td>Date of birth</td><td><span>03 March 1974</span></td></tr></tbody></table></div>"},"extension":[{"url":"http://hl7.org/fhir/us/core/StructureDefinition/us-core-race","extension":[{"url":"ombCategory","valueCoding":{"system":"urn:oid:2.16.840.1.113883.6.238","code":"1002-5","display":"American Indian or Alaska Native","userSelected":true}},{"url":"text","valueString":"American Indian or Alaska Native"}]},{"url":"http://hl7.org/fhir/us/core/StructureDefinition/us-core-ethnicity","extension":[{"url":"ombCategory","valueCoding":{"system":"urn:oid:2.16.840.1.113883.6.238","code":"2135-2","display":"Hispanic or Latino","userSelected":true}},{"url":"text","valueString":"Hispanic or Latino"}]}],"identifier":[{"type":{"coding":[{"system":"http://terminology.hl7.org/CodeSystem/v2-0203","code":"MR"}]},"system":"https://bonnie-fhir.healthit.gov/","value":"612e6ee202c62a011f2eff14"}],"active":true,"name":[{"use":"usual","family":"NUMERFail","given":["PtRefMARixDAIPC2DayAfterAnes"]}],"gender":"female","birthDate":"1975-03-03"},"request":{"method":"PUT","url":"Patient/ec88b695-15b1-4ba3-b032-b04e191b97a4"}},{"fullUrl":"https://madie.cms.gov/Encounter/af9442ea-7ddd-470d-ac60-c7d6c1a753d4","resource":{"resourceType":"Encounter","id":"af9442ea-7ddd-470d-ac60-c7d6c1a753d4","meta":{"profile":["http://hl7.org/fhir/us/qicore/StructureDefinition/qicore-encounter"]},"status":"finished","class":{"system":"http://terminology.hl7.org/CodeSystem/v3-ActCode","code":"IMP","display":"inpatient encounter"},"type":[{"coding":[{"system":"http://snomed.info/sct","code":"8715000"}]}],"subject":{"reference":"Patient/ec88b695-15b1-4ba3-b032-b04e191b97a4"},"period":{"start":"2026-12-04T08:00:00+00:00","end":"2026-12-30T08:15:00+00:00"},"length":{"value":26,"unit":"days"},"location":[{"location":{"reference":"Location/fecc89e8-3d05-4c43-bf66-845cfaafaa11"},"period":{"start":"2026-12-06T08:00:00.000+00:00","end":"2026-12-12T08:15:00.000+00:00"}}]},"request":{"method":"PUT","url":"Encounter/af9442ea-7ddd-470d-ac60-c7d6c1a753d4"}},{"fullUrl":"https://madie.cms.gov/Coverage/268a57dd-953a-447c-a4e8-c51ccf203f1e","resource":{"resourceType":"Coverage","id":"268a57dd-953a-447c-a4e8-c51ccf203f1e","status":"active","beneficiary":{"reference":"Patient/ec88b695-15b1-4ba3-b032-b04e191b97a4"},"period":{"start":"1975-03-03T08:00:00+00:00"},"payor":[{"reference":"Organization/4da248b0-6e59-49b7-b80e-338aa21d299f"}]},"request":{"method":"PUT","url":"Coverage/268a57dd-953a-447c-a4e8-c51ccf203f1e"}},{"fullUrl":"https://madie.cms.gov/Procedure/f24096de-2263-44ef-b778-e99f9e2c3fbc","resource":{"resourceType":"Procedure","id":"f24096de-2263-44ef-b778-e99f9e2c3fbc","meta":{"profile":["http://hl7.org/fhir/us/qicore/StructureDefinition/qicore-procedurenotdone"]},"extension":[{"url":"http://hl7.org/fhir/us/qicore/StructureDefinition/qicore-recorded","valueDateTime":"2026-11-01T07:00:00+00:00"}],"status":"not-done","statusReason":{"coding":[{"system":"http://snomed.info/sct","code":"443390004","display":"Procedure contraindicated (situation)","userSelected":true}]},"code":{"coding":[{"system":"http://snomed.info/sct","code":"443448006","display":"Application of intermittent pneumatic compression device (procedure)","userSelected":true}]},"subject":{"reference":"Patient/ec88b695-15b1-4ba3-b032-b04e191b97a4"},"_performedDateTime":{"extension":[{"url":"http://hl7.org/fhir/StructureDefinition/data-absent-reason","valueCode":"not-performed"}]}},"request":{"method":"PUT","url":"Procedure/f24096de-2263-44ef-b778-e99f9e2c3fbc"}},{"fullUrl":"https://madie.cms.gov/MedicationAdministration/80648661-2838-456a-81d8-e480053e80d8","resource":{"resourceType":"MedicationAdministration","id":"80648661-2838-456a-81d8-e480053e80d8","meta":{"profile":["http://hl7.org/fhir/us/qicore/StructureDefinition/qicore-mednotadministered"]},"extension":[{"url":"http://hl7.org/fhir/us/qicore/StructureDefinition/qicore-recorded","valueDateTime":"2026-12-08T07:00:00+00:00"}],"status":"not-done","statusReason":[{"coding":[{"system":"http://snomed.info/sct","code":"183932001"}]}],"medicationCodeableConcept":{"coding":[{"system":"http://www.nlm.nih.gov/research/umls/rxnorm","code":"2588062","display":"rivaroxaban 1 MG/ML Oral Suspension"}]},"subject":{"reference":"Patient/ec88b695-15b1-4ba3-b032-b04e191b97a4"},"effectivePeriod":{"start":"2026-12-08T11:30:00+00:00"}},"request":{"method":"PUT","url":"MedicationAdministration/80648661-2838-456a-81d8-e480053e80d8"}},{"fullUrl":"https://madie.cms.gov/Procedure/096b3c4c-1d8b-426b-b6fb-2a6f5517c3b8","resource":{"resourceType":"Procedure","id":"096b3c4c-1d8b-426b-b6fb-2a6f5517c3b8","status":"completed","code":{"coding":[{"system":"http://www.icd10data.com/icd10pcs","code":"3E030FZ"},{"system":"http://snomed.info/sct","code":"18946005"}]},"subject":{"reference":"Patient/ec88b695-15b1-4ba3-b032-b04e191b97a4"},"performedPeriod":{"start":"2026-12-04T11:00:00+00:00","end":"2026-12-06T11:15:00+00:00"}},"request":{"method":"PUT","url":"Procedure/096b3c4c-1d8b-426b-b6fb-2a6f5517c3b8"}},{"fullUrl":"https://madie.cms.gov/Location/fecc89e8-3d05-4c43-bf66-845cfaafaa11","resource":{"resourceType":"Location","id":"fecc89e8-3d05-4c43-bf66-845cfaafaa11","meta":{"profile":["http://hl7.org/fhir/us/qicore/StructureDefinition/qicore-location"]},"identifier":[{"use":"usual","system":"http://exampleoflocation.com","value":"B1-S.F2"}],"name":"Medical Surgical East, first floor","type":[{"coding":[{"system":"https://www.cdc.gov/nhsn/cdaportal/terminology/codesystem/hsloc.html","code":"1025-6","display":"Trauma Critical Care","userSelected":true}]}]},"request":{"method":"PUT","url":"Location/fecc89e8-3d05-4c43-bf66-845cfaafaa11"}},{"fullUrl":"https://madie.cms.gov/Organization/23f5398d-93a5-4d3e-9f73-396006d6e894","resource":{"resourceType":"Organization","id":"4da248b0-6e59-49b7-b80e-338aa21d299f","meta":{"profile":["http://hl7.org/fhir/us/qicore/StructureDefinition/qicore-organization"]},"identifier":[{"use":"temp","system":"urn:oid:2.16.840.1.113883.4.4","value":"21-3259825"}],"active":true,"type":[{"coding":[{"system":"http://terminology.hl7.org/CodeSystem/organization-type","code":"pay","display":"Payer"}]}],"name":"Blue Cross Blue Shield of Texas","telecom":[{"system":"phone","value":"(+1) 972-766-6900"}],"address":[{"use":"billing","type":"postal","line":["P.O. Box 660044"],"city":"Dallas","state":"TX","postalCode":"75266-0044","country":"USA"}]},"request":{"method":"PUT","url":"Organization/4da248b0-6e59-49b7-b80e-338aa21d299f"}},{"fullUrl":"https://madie.cms.gov/Practitioner/8136ce32-7ec1-4ae7-8815-9dac95e2f10f","resource":{"resourceType":"Practitioner","id":"8136ce32-7ec1-4ae7-8815-9dac95e2f10f","identifier":[{"system":"http://hl7.org/fhir/sid/us-npi","value":"123456"}],"name":[{"family":"Evil","prefix":["Dr"]}]},"request":{"method":"PUT","url":"Practitioner/8136ce32-7ec1-4ae7-8815-9dac95e2f10f"}},{"fullUrl":"https://madie.cms.gov/MeasureReport/51bf9fa4-b587-481d-869f-b89f416ba6cd","resource":{"resourceType":"MeasureReport","id":"51bf9fa4-b587-481d-869f-b89f416ba6cd","meta":{"profile":["http://hl7.org/fhir/us/cqfmeasures/StructureDefinition/test-case-cqfm"]},"contained":[{"resourceType":"Parameters","id":"e60f6cc7-7928-46ef-b931-d9f4a20e9c7b-parameters","parameter":[{"name":"subject","valueString":"ec88b695-15b1-4ba3-b032-b04e191b97a4"}]}],"extension":[{"url":"http://hl7.org/fhir/us/cqfmeasures/StructureDefinition/cqfm-inputParameters","valueReference":{"reference":"#e60f6cc7-7928-46ef-b931-d9f4a20e9c7b-parameters"}},{"url":"http://hl7.org/fhir/us/cqfmeasures/StructureDefinition/cqfm-testCaseDescription","valueMarkdown":"NoIPCNoRixBexPtRefusal both administered 2 Day After Anes\n"}],"modifierExtension":[{"url":"http://hl7.org/fhir/us/cqfmeasures/StructureDefinition/cqfm-isTestCase","valueBoolean":true}],"status":"complete","type":"individual","measure":"https://madie.cms.gov/Measure/CMS190VTEProphylaxisICUFHIR","period":{"start":"2026-01-01","end":"2026-12-31"},"group":[{"population":[{"code":{"coding":[{"system":"http://terminology.hl7.org/CodeSystem/measure-population","code":"initial-population","display":"Initial Population"}]},"count":1},{"code":{"coding":[{"system":"http://terminology.hl7.org/CodeSystem/measure-population","code":"denominator","display":"Denominator"}]},"count":1},{"code":{"coding":[{"system":"http://terminology.hl7.org/CodeSystem/measure-population","code":"denominator-exclusion","display":"Denominator Exclusion"}]},"count":0},{"code":{"coding":[{"system":"http://terminology.hl7.org/CodeSystem/measure-population","code":"numerator","display":"Numerator"}]},"count":0},{"code":{"coding":[{"system":"http://terminology.hl7.org/CodeSystem/measure-population","code":"denominator-exception","display":"Denominator Exception"}]},"count":0}]}]},"request":{"method":"PUT","url":"MeasureReport/51bf9fa4-b587-481d-869f-b89f416ba6cd"}}]}