{"resourceType":"Bundle","id":"tests-4d76c150-b6a5-4a1a-8801-81c24ce398b7-bundle","type":"transaction","entry":[{"fullUrl":"https://madie.cms.gov/Patient/4d76c150-b6a5-4a1a-8801-81c24ce398b7","resource":{"resourceType":"Patient","id":"4d76c150-b6a5-4a1a-8801-81c24ce398b7","meta":{"profile":["http://hl7.org/fhir/us/qicore/StructureDefinition/qicore-patient"]},"text":{"status":"generated","div":"<div xmlns=\"http://www.w3.org/1999/xhtml\"><div class=\"hapiHeaderText\">GlycoOnAnesEndDayAfterICU <b>NUMERPASS </b></div><table class=\"hapiPropertyTable\"><tbody><tr><td>Identifier</td><td>749173f2040124b092bc1729ffb06eac</td></tr><tr><td>Date of birth</td><td><span>03 March 1974</span></td></tr></tbody></table></div>"},"extension":[{"url":"http://hl7.org/fhir/us/core/StructureDefinition/us-core-race","extension":[{"url":"ombCategory","valueCoding":{"system":"urn:oid:2.16.840.1.113883.6.238","code":"1002-5","display":"American Indian or Alaska Native","userSelected":true}},{"url":"text","valueString":"American Indian or Alaska Native"}]},{"url":"http://hl7.org/fhir/us/core/StructureDefinition/us-core-ethnicity","extension":[{"url":"ombCategory","valueCoding":{"system":"urn:oid:2.16.840.1.113883.6.238","code":"2135-2","display":"Hispanic or Latino","userSelected":true}},{"url":"text","valueString":"Hispanic or Latino"}]}],"identifier":[{"type":{"coding":[{"system":"http://terminology.hl7.org/CodeSystem/v2-0203","code":"MR"}]},"system":"https://bonnie-fhir.healthit.gov/","value":"612e6f5002c62a011f2f15ec"}],"active":true,"name":[{"use":"usual","family":"NUMERPass","given":["GlycoOnAnesEndDayAfterICU"]}],"gender":"female","birthDate":"1975-03-03"},"request":{"method":"PUT","url":"Patient/4d76c150-b6a5-4a1a-8801-81c24ce398b7"}},{"fullUrl":"https://madie.cms.gov/Encounter/d005cde0-5ee9-4186-95df-b3c8619573a2","resource":{"resourceType":"Encounter","id":"d005cde0-5ee9-4186-95df-b3c8619573a2","meta":{"profile":["http://hl7.org/fhir/us/qicore/StructureDefinition/qicore-encounter"]},"status":"finished","class":{"system":"http://terminology.hl7.org/CodeSystem/v3-ActCode","code":"IMP","display":"inpatient encounter"},"type":[{"coding":[{"system":"http://snomed.info/sct","code":"8715000"}]}],"subject":{"reference":"Patient/4d76c150-b6a5-4a1a-8801-81c24ce398b7"},"period":{"start":"2026-12-04T08:00:00+00:00","end":"2026-12-30T08:15:00+00:00"},"length":{"value":26.0,"unit":"days"},"location":[{"location":{"reference":"Location/9821495b-e41f-4ca6-90a8-2a7b2399db8a"},"period":{"start":"2026-12-06T08:00:00.000+00:00","end":"2026-12-12T08:15:00.000+00:00"}}]},"request":{"method":"PUT","url":"Encounter/d005cde0-5ee9-4186-95df-b3c8619573a2"}},{"fullUrl":"https://madie.cms.gov/Coverage/fdfce8b1-4f1a-4a7f-a610-14e4c9cee641","resource":{"resourceType":"Coverage","id":"fdfce8b1-4f1a-4a7f-a610-14e4c9cee641","status":"active","beneficiary":{"reference":"Patient/4d76c150-b6a5-4a1a-8801-81c24ce398b7"},"period":{"start":"1975-03-03T08:00:00+00:00"},"payor":[{"reference":"Organization/e75793c9-fdf6-463a-8c1d-4ee44320dc25"}]},"request":{"method":"PUT","url":"Coverage/fdfce8b1-4f1a-4a7f-a610-14e4c9cee641"}},{"fullUrl":"https://madie.cms.gov/MedicationAdministration/25a9ebda-e428-41d5-a56d-f2597b1ef47e","resource":{"resourceType":"MedicationAdministration","id":"25a9ebda-e428-41d5-a56d-f2597b1ef47e","meta":{"profile":["http://hl7.org/fhir/us/qicore/StructureDefinition/qicore-medicationadministration"]},"status":"completed","medicationCodeableConcept":{"coding":[{"system":"http://www.nlm.nih.gov/research/umls/rxnorm","code":"200349"}]},"subject":{"reference":"Patient/4d76c150-b6a5-4a1a-8801-81c24ce398b7"},"effectivePeriod":{"start":"2026-12-07T11:15:00+00:00"}},"request":{"method":"PUT","url":"MedicationAdministration/25a9ebda-e428-41d5-a56d-f2597b1ef47e"}},{"fullUrl":"https://madie.cms.gov/Procedure/139626af-ff43-43fc-9d52-1690d0bbd017","resource":{"resourceType":"Procedure","id":"139626af-ff43-43fc-9d52-1690d0bbd017","meta":{"profile":["http://hl7.org/fhir/us/qicore/StructureDefinition/qicore-procedure"]},"extension":[{"url":"http://hl7.org/fhir/us/qicore/StructureDefinition/qicore-recorded","valueDateTime":"2013-12-07T09:35:00-04:00"}],"status":"completed","code":{"coding":[{"system":"http://snomed.info/sct","code":"18946005"}]},"subject":{"reference":"Patient/4d76c150-b6a5-4a1a-8801-81c24ce398b7"},"performedPeriod":{"start":"2026-12-07T10:00:00+00:00","end":"2026-12-07T11:15:00+00:00"}},"request":{"method":"PUT","url":"Procedure/139626af-ff43-43fc-9d52-1690d0bbd017"}},{"fullUrl":"https://madie.cms.gov/Location/9821495b-e41f-4ca6-90a8-2a7b2399db8a","resource":{"resourceType":"Location","id":"9821495b-e41f-4ca6-90a8-2a7b2399db8a","meta":{"profile":["http://hl7.org/fhir/us/qicore/StructureDefinition/qicore-location"]},"identifier":[{"use":"usual","system":"http://exampleoflocation.com","value":"B1-S.F2"}],"name":"Medical Surgical East, first floor","type":[{"coding":[{"system":"https://www.cdc.gov/nhsn/cdaportal/terminology/codesystem/hsloc.html","code":"1025-6","display":"Trauma Critical Care","userSelected":true}]}]},"request":{"method":"PUT","url":"Location/9821495b-e41f-4ca6-90a8-2a7b2399db8a"}},{"fullUrl":"https://madie.cms.gov/Organization/dd734a73-9841-4ab9-b3eb-35f5de1c48c1","resource":{"resourceType":"Organization","id":"e75793c9-fdf6-463a-8c1d-4ee44320dc25","meta":{"profile":["http://hl7.org/fhir/us/qicore/StructureDefinition/qicore-organization"]},"identifier":[{"use":"temp","system":"urn:oid:2.16.840.1.113883.4.4","value":"21-3259825"}],"active":true,"type":[{"coding":[{"system":"http://terminology.hl7.org/CodeSystem/organization-type","code":"pay","display":"Payer"}]}],"name":"Blue Cross Blue Shield of Texas","telecom":[{"system":"phone","value":"(+1) 972-766-6900"}],"address":[{"use":"billing","type":"postal","line":["P.O. Box 660044"],"city":"Dallas","state":"TX","postalCode":"75266-0044","country":"USA"}]},"request":{"method":"PUT","url":"Organization/e75793c9-fdf6-463a-8c1d-4ee44320dc25"}},{"fullUrl":"https://madie.cms.gov/Practitioner/c3a187b3-43f4-4ed2-adac-5c5f305ef2b6","resource":{"resourceType":"Practitioner","id":"c3a187b3-43f4-4ed2-adac-5c5f305ef2b6","identifier":[{"system":"http://hl7.org/fhir/sid/us-npi","value":"123456"}],"name":[{"family":"Evil","prefix":["Dr"]}]},"request":{"method":"PUT","url":"Practitioner/c3a187b3-43f4-4ed2-adac-5c5f305ef2b6"}},{"fullUrl":"https://madie.cms.gov/MeasureReport/95a99af0-3150-49e1-afb4-b901895d3114","resource":{"resourceType":"MeasureReport","id":"95a99af0-3150-49e1-afb4-b901895d3114","meta":{"profile":["http://hl7.org/fhir/us/cqfmeasures/StructureDefinition/test-case-cqfm"]},"contained":[{"resourceType":"Parameters","id":"8769bc54-f219-4347-bd0f-7676aa3b6608-parameters","parameter":[{"name":"subject","valueString":"4d76c150-b6a5-4a1a-8801-81c24ce398b7"}]}],"extension":[{"url":"http://hl7.org/fhir/us/cqfmeasures/StructureDefinition/cqfm-inputParameters","valueReference":{"reference":"#8769bc54-f219-4347-bd0f-7676aa3b6608-parameters"}},{"url":"http://hl7.org/fhir/us/cqfmeasures/StructureDefinition/cqfm-testCaseDescription","valueMarkdown":"Glycoprotein IIb/IIIa Inhibitors administered concurrentwith end of neuraxial anesthesia\n"}],"modifierExtension":[{"url":"http://hl7.org/fhir/us/cqfmeasures/StructureDefinition/cqfm-isTestCase","valueBoolean":true}],"status":"complete","type":"individual","measure":"https://madie.cms.gov/Measure/CMS190VTEProphylaxisICUFHIR","period":{"start":"2026-01-01","end":"2026-12-31"},"group":[{"population":[{"code":{"coding":[{"system":"http://terminology.hl7.org/CodeSystem/measure-population","code":"initial-population","display":"Initial Population"}]},"count":1},{"code":{"coding":[{"system":"http://terminology.hl7.org/CodeSystem/measure-population","code":"denominator","display":"Denominator"}]},"count":1},{"code":{"coding":[{"system":"http://terminology.hl7.org/CodeSystem/measure-population","code":"denominator-exclusion","display":"Denominator Exclusion"}]},"count":0},{"code":{"coding":[{"system":"http://terminology.hl7.org/CodeSystem/measure-population","code":"numerator","display":"Numerator"}]},"count":1},{"code":{"coding":[{"system":"http://terminology.hl7.org/CodeSystem/measure-population","code":"denominator-exception","display":"Denominator Exception"}]},"count":0}]}]},"request":{"method":"PUT","url":"MeasureReport/95a99af0-3150-49e1-afb4-b901895d3114"}}]}