{"resourceType":"Bundle","id":"tests-64353924-37ba-4a43-b651-ceb3a0fa7f29-bundle","type":"transaction","entry":[{"fullUrl":"https://madie.cms.gov/Patient/64353924-37ba-4a43-b651-ceb3a0fa7f29","resource":{"resourceType":"Patient","id":"64353924-37ba-4a43-b651-ceb3a0fa7f29","meta":{"profile":["http://hl7.org/fhir/us/qicore/StructureDefinition/qicore-patient"]},"text":{"status":"generated","div":"<div xmlns=\"http://www.w3.org/1999/xhtml\"><div class=\"hapiHeaderText\">Age18AfterEncStart <b>IPFAIL </b></div><table class=\"hapiPropertyTable\"><tbody><tr><td>Identifier</td><td>a13f1f4498c2fb92e48e2a73c439593d</td></tr><tr><td>Date of birth</td><td><span>02 December 2003</span></td></tr></tbody></table></div>"},"extension":[{"url":"http://hl7.org/fhir/us/core/StructureDefinition/us-core-race","extension":[{"url":"ombCategory","valueCoding":{"system":"urn:oid:2.16.840.1.113883.6.238","code":"1002-5","display":"American Indian or Alaska Native","userSelected":true}},{"url":"text","valueString":"American Indian or Alaska Native"}]},{"url":"http://hl7.org/fhir/us/core/StructureDefinition/us-core-ethnicity","extension":[{"url":"ombCategory","valueCoding":{"system":"urn:oid:2.16.840.1.113883.6.238","code":"2135-2","display":"Hispanic or Latino","userSelected":true}},{"url":"text","valueString":"Hispanic or Latino"}]}],"identifier":[{"type":{"coding":[{"system":"http://terminology.hl7.org/CodeSystem/v2-0203","code":"MR"}]},"system":"https://bonnie-fhir.healthit.gov/","value":"612e6eaa02c62a011f2ef349"}],"active":true,"name":[{"use":"usual","family":"IPFail ","given":["Age18AfterEncStart"]}],"gender":"male","birthDate":"2008-12-02"},"request":{"method":"PUT","url":"Patient/64353924-37ba-4a43-b651-ceb3a0fa7f29"}},{"fullUrl":"https://madie.cms.gov/Encounter/029e2d27-c54c-4bad-9404-b98b2a79341f","resource":{"resourceType":"Encounter","id":"029e2d27-c54c-4bad-9404-b98b2a79341f","meta":{"profile":["http://hl7.org/fhir/us/qicore/StructureDefinition/qicore-encounter"]},"status":"finished","class":{"system":"http://terminology.hl7.org/CodeSystem/v3-ActCode","code":"IMP","display":"inpatient encounter"},"type":[{"coding":[{"system":"http://snomed.info/sct","code":"8715000"}]}],"subject":{"reference":"Patient/64353924-37ba-4a43-b651-ceb3a0fa7f29"},"period":{"start":"2026-12-01T00:00:00+00:00","end":"2026-12-31T23:59:00+00:00"},"length":{"value":30.0,"unit":"days"}},"request":{"method":"PUT","url":"Encounter/029e2d27-c54c-4bad-9404-b98b2a79341f"}},{"fullUrl":"https://madie.cms.gov/Coverage/425dae84-106d-4aa8-85e4-8698994830d6","resource":{"resourceType":"Coverage","id":"425dae84-106d-4aa8-85e4-8698994830d6","status":"active","beneficiary":{"reference":"Patient/64353924-37ba-4a43-b651-ceb3a0fa7f29"},"period":{"start":"2004-12-02T23:59:00+00:00"},"payor":[{"reference":"Organization/3e899f33-84eb-4634-a770-a5a0bd7a80e7"}]},"request":{"method":"PUT","url":"Coverage/425dae84-106d-4aa8-85e4-8698994830d6"}},{"fullUrl":"https://madie.cms.gov/Organization/88433fed-15e5-4a20-bcf0-66acb88bce00","resource":{"resourceType":"Organization","id":"3e899f33-84eb-4634-a770-a5a0bd7a80e7","meta":{"profile":["http://hl7.org/fhir/us/qicore/StructureDefinition/qicore-organization"]},"identifier":[{"use":"temp","system":"urn:oid:2.16.840.1.113883.4.4","value":"21-3259825"}],"active":true,"type":[{"coding":[{"system":"http://terminology.hl7.org/CodeSystem/organization-type","code":"pay","display":"Payer"}]}],"name":"Blue Cross Blue Shield of Texas","telecom":[{"system":"phone","value":"(+1) 972-766-6900"}],"address":[{"use":"billing","type":"postal","line":["P.O. Box 660044"],"city":"Dallas","state":"TX","postalCode":"75266-0044","country":"USA"}]},"request":{"method":"PUT","url":"Organization/3e899f33-84eb-4634-a770-a5a0bd7a80e7"}},{"fullUrl":"https://madie.cms.gov/Practitioner/7163e3e5-3ab7-48fb-8c21-5dc5c1604749","resource":{"resourceType":"Practitioner","id":"7163e3e5-3ab7-48fb-8c21-5dc5c1604749","identifier":[{"system":"http://hl7.org/fhir/sid/us-npi","value":"123456"}],"name":[{"family":"Evil","prefix":["Dr"]}]},"request":{"method":"PUT","url":"Practitioner/7163e3e5-3ab7-48fb-8c21-5dc5c1604749"}},{"fullUrl":"https://madie.cms.gov/MeasureReport/3726fc69-1127-4126-a6eb-02ccc567c358","resource":{"resourceType":"MeasureReport","id":"3726fc69-1127-4126-a6eb-02ccc567c358","meta":{"profile":["http://hl7.org/fhir/us/cqfmeasures/StructureDefinition/test-case-cqfm"]},"contained":[{"resourceType":"Parameters","id":"f898b1a3-4f7d-4a00-b396-86a58619f780-parameters","parameter":[{"name":"subject","valueString":"64353924-37ba-4a43-b651-ceb3a0fa7f29"}]}],"extension":[{"url":"http://hl7.org/fhir/us/cqfmeasures/StructureDefinition/cqfm-inputParameters","valueReference":{"reference":"#f898b1a3-4f7d-4a00-b396-86a58619f780-parameters"}},{"url":"http://hl7.org/fhir/us/cqfmeasures/StructureDefinition/cqfm-testCaseDescription","valueMarkdown":"Patient turns 18 on the day after admission\n"}],"modifierExtension":[{"url":"http://hl7.org/fhir/us/cqfmeasures/StructureDefinition/cqfm-isTestCase","valueBoolean":true}],"status":"complete","type":"individual","measure":"https://madie.cms.gov/Measure/CMS190VTEProphylaxisICUFHIR","period":{"start":"2026-01-01","end":"2026-12-31"},"group":[{"population":[{"code":{"coding":[{"system":"http://terminology.hl7.org/CodeSystem/measure-population","code":"initial-population","display":"Initial Population"}]},"count":0},{"code":{"coding":[{"system":"http://terminology.hl7.org/CodeSystem/measure-population","code":"denominator","display":"Denominator"}]},"count":0},{"code":{"coding":[{"system":"http://terminology.hl7.org/CodeSystem/measure-population","code":"denominator-exclusion","display":"Denominator Exclusion"}]},"count":0},{"code":{"coding":[{"system":"http://terminology.hl7.org/CodeSystem/measure-population","code":"numerator","display":"Numerator"}]},"count":0},{"code":{"coding":[{"system":"http://terminology.hl7.org/CodeSystem/measure-population","code":"denominator-exception","display":"Denominator Exception"}]},"count":0}]}]},"request":{"method":"PUT","url":"MeasureReport/3726fc69-1127-4126-a6eb-02ccc567c358"}}]}