{"resourceType":"Bundle","id":"tests-c27146c8-1482-44da-8674-f67fd37ee2e0-bundle","type":"transaction","entry":[{"fullUrl":"https://madie.cms.gov/Patient/c27146c8-1482-44da-8674-f67fd37ee2e0","resource":{"resourceType":"Patient","id":"c27146c8-1482-44da-8674-f67fd37ee2e0","meta":{"profile":["http://hl7.org/fhir/us/qicore/StructureDefinition/qicore-patient"]},"text":{"status":"generated","div":"<div xmlns=\"http://www.w3.org/1999/xhtml\"><div class=\"hapiHeaderText\">MALMWHDayOfAnes<b>NUMERPASS </b></div><table class=\"hapiPropertyTable\"><tbody><tr><td>Identifier</td><td>477ee240f9d3831dbb4bc572c0c7b010</td></tr><tr><td>Date of birth</td><td><span>03 March 1974</span></td></tr></tbody></table></div>"},"extension":[{"url":"http://hl7.org/fhir/us/core/StructureDefinition/us-core-race","extension":[{"url":"ombCategory","valueCoding":{"system":"urn:oid:2.16.840.1.113883.6.238","code":"1002-5","display":"American Indian or Alaska Native","userSelected":true}},{"url":"text","valueString":"American Indian or Alaska Native"}]},{"url":"http://hl7.org/fhir/us/core/StructureDefinition/us-core-ethnicity","extension":[{"url":"ombCategory","valueCoding":{"system":"urn:oid:2.16.840.1.113883.6.238","code":"2135-2","display":"Hispanic or Latino","userSelected":true}},{"url":"text","valueString":"Hispanic or Latino"}]}],"identifier":[{"type":{"coding":[{"system":"http://terminology.hl7.org/CodeSystem/v2-0203","code":"MR"}]},"system":"https://bonnie-fhir.healthit.gov/","value":"612e6f9102c62a011f2f24d3"}],"active":true,"name":[{"use":"usual","family":"NUMERPass","given":["MALMWHDayOfAnes"]}],"gender":"female","birthDate":"1975-03-03"},"request":{"method":"PUT","url":"Patient/c27146c8-1482-44da-8674-f67fd37ee2e0"}},{"fullUrl":"https://madie.cms.gov/Encounter/6f7a1e60-a747-44ce-9f31-f48f9ba5e503","resource":{"resourceType":"Encounter","id":"6f7a1e60-a747-44ce-9f31-f48f9ba5e503","meta":{"profile":["http://hl7.org/fhir/us/qicore/StructureDefinition/qicore-encounter"]},"status":"finished","class":{"system":"http://terminology.hl7.org/CodeSystem/v3-ActCode","code":"IMP","display":"inpatient encounter"},"type":[{"coding":[{"system":"http://snomed.info/sct","code":"8715000"}]}],"subject":{"reference":"Patient/c27146c8-1482-44da-8674-f67fd37ee2e0"},"period":{"start":"2026-12-04T08:00:00+00:00","end":"2026-12-30T08:15:00+00:00"},"length":{"value":26.0,"unit":"days"},"location":[{"location":{"reference":"Location/d65e3716-8645-4ee2-92fb-f542963320a5"},"period":{"start":"2026-12-06T08:00:00.000+00:00","end":"2026-12-12T08:15:00.000+00:00"}}]},"request":{"method":"PUT","url":"Encounter/6f7a1e60-a747-44ce-9f31-f48f9ba5e503"}},{"fullUrl":"https://madie.cms.gov/Coverage/aacf90cf-3805-4a8b-b37d-a533de2956a0","resource":{"resourceType":"Coverage","id":"aacf90cf-3805-4a8b-b37d-a533de2956a0","status":"active","beneficiary":{"reference":"Patient/c27146c8-1482-44da-8674-f67fd37ee2e0"},"period":{"start":"1975-03-03T08:00:00+00:00"},"payor":[{"reference":"Organization/db141f66-a1cc-407b-9e95-adac27adee14"}]},"request":{"method":"PUT","url":"Coverage/aacf90cf-3805-4a8b-b37d-a533de2956a0"}},{"fullUrl":"https://madie.cms.gov/MedicationAdministration/2574adda-a9c7-4529-9ab9-2f2e233256e2","resource":{"resourceType":"MedicationAdministration","id":"2574adda-a9c7-4529-9ab9-2f2e233256e2","meta":{"profile":["http://hl7.org/fhir/us/qicore/StructureDefinition/qicore-medicationadministration"]},"status":"completed","medicationCodeableConcept":{"coding":[{"system":"http://www.nlm.nih.gov/research/umls/rxnorm","code":"854228"}]},"subject":{"reference":"Patient/c27146c8-1482-44da-8674-f67fd37ee2e0"},"effectiveDateTime":"2026-12-07T11:30:00.000+00:00"},"request":{"method":"PUT","url":"MedicationAdministration/2574adda-a9c7-4529-9ab9-2f2e233256e2"}},{"fullUrl":"https://madie.cms.gov/Procedure/5b46e5ba-ebab-4e22-a8b0-b1f45931a009","resource":{"resourceType":"Procedure","id":"5b46e5ba-ebab-4e22-a8b0-b1f45931a009","meta":{"profile":["http://hl7.org/fhir/us/qicore/StructureDefinition/qicore-procedure"]},"extension":[{"url":"http://hl7.org/fhir/us/qicore/StructureDefinition/qicore-recorded","valueDateTime":"2013-12-07T09:35:00-04:00"}],"status":"completed","code":{"coding":[{"system":"http://www.cms.gov/Medicare/Coding/ICD10","code":"3E030FZ"}]},"subject":{"reference":"Patient/c27146c8-1482-44da-8674-f67fd37ee2e0"},"performedDateTime":"2026-12-07T11:15:00.000+00:00"},"request":{"method":"PUT","url":"Procedure/5b46e5ba-ebab-4e22-a8b0-b1f45931a009"}},{"fullUrl":"https://madie.cms.gov/Location/d65e3716-8645-4ee2-92fb-f542963320a5","resource":{"resourceType":"Location","id":"d65e3716-8645-4ee2-92fb-f542963320a5","meta":{"profile":["http://hl7.org/fhir/us/qicore/StructureDefinition/qicore-location"]},"identifier":[{"use":"usual","system":"http://exampleoflocation.com","value":"B1-S.F2"}],"name":"Medical Surgical East, first floor","type":[{"coding":[{"system":"https://www.cdc.gov/nhsn/cdaportal/terminology/codesystem/hsloc.html","code":"1025-6","display":"Trauma Critical Care","userSelected":true}]}]},"request":{"method":"PUT","url":"Location/d65e3716-8645-4ee2-92fb-f542963320a5"}},{"fullUrl":"https://madie.cms.gov/Organization/091013bd-0c4e-4e6b-bb0f-ac74af66182e","resource":{"resourceType":"Organization","id":"db141f66-a1cc-407b-9e95-adac27adee14","meta":{"profile":["http://hl7.org/fhir/us/qicore/StructureDefinition/qicore-organization"]},"identifier":[{"use":"temp","system":"urn:oid:2.16.840.1.113883.4.4","value":"21-3259825"}],"active":true,"type":[{"coding":[{"system":"http://terminology.hl7.org/CodeSystem/organization-type","code":"pay","display":"Payer"}]}],"name":"Blue Cross Blue Shield of Texas","telecom":[{"system":"phone","value":"(+1) 972-766-6900"}],"address":[{"use":"billing","type":"postal","line":["P.O. Box 660044"],"city":"Dallas","state":"TX","postalCode":"75266-0044","country":"USA"}]},"request":{"method":"PUT","url":"Organization/db141f66-a1cc-407b-9e95-adac27adee14"}},{"fullUrl":"https://madie.cms.gov/Practitioner/8d453092-616b-4a0f-b8e4-300378ddf0bc","resource":{"resourceType":"Practitioner","id":"8d453092-616b-4a0f-b8e4-300378ddf0bc","identifier":[{"system":"http://hl7.org/fhir/sid/us-npi","value":"123456"}],"name":[{"family":"Evil","prefix":["Dr"]}]},"request":{"method":"PUT","url":"Practitioner/8d453092-616b-4a0f-b8e4-300378ddf0bc"}},{"fullUrl":"https://madie.cms.gov/MeasureReport/a01d6a19-0aa4-4bd7-bf8c-319369cc5a7d","resource":{"resourceType":"MeasureReport","id":"a01d6a19-0aa4-4bd7-bf8c-319369cc5a7d","meta":{"profile":["http://hl7.org/fhir/us/cqfmeasures/StructureDefinition/test-case-cqfm"]},"contained":[{"resourceType":"Parameters","id":"e07d9b36-e185-4cce-b0e1-5a2bc77c0f06-parameters","parameter":[{"name":"subject","valueString":"c27146c8-1482-44da-8674-f67fd37ee2e0"}]}],"extension":[{"url":"http://hl7.org/fhir/us/cqfmeasures/StructureDefinition/cqfm-inputParameters","valueReference":{"reference":"#e07d9b36-e185-4cce-b0e1-5a2bc77c0f06-parameters"}},{"url":"http://hl7.org/fhir/us/cqfmeasures/StructureDefinition/cqfm-testCaseDescription","valueMarkdown":"LMWH administered on day of  neuraxial anesthesia\n"}],"modifierExtension":[{"url":"http://hl7.org/fhir/us/cqfmeasures/StructureDefinition/cqfm-isTestCase","valueBoolean":true}],"status":"complete","type":"individual","measure":"https://madie.cms.gov/Measure/CMS190VTEProphylaxisICUFHIR","period":{"start":"2026-01-01","end":"2026-12-31"},"group":[{"population":[{"code":{"coding":[{"system":"http://terminology.hl7.org/CodeSystem/measure-population","code":"initial-population","display":"Initial Population"}]},"count":1},{"code":{"coding":[{"system":"http://terminology.hl7.org/CodeSystem/measure-population","code":"denominator","display":"Denominator"}]},"count":1},{"code":{"coding":[{"system":"http://terminology.hl7.org/CodeSystem/measure-population","code":"denominator-exclusion","display":"Denominator Exclusion"}]},"count":0},{"code":{"coding":[{"system":"http://terminology.hl7.org/CodeSystem/measure-population","code":"numerator","display":"Numerator"}]},"count":1},{"code":{"coding":[{"system":"http://terminology.hl7.org/CodeSystem/measure-population","code":"denominator-exception","display":"Denominator Exception"}]},"count":0}]}]},"request":{"method":"PUT","url":"MeasureReport/a01d6a19-0aa4-4bd7-bf8c-319369cc5a7d"}}]}