{"resourceType":"Bundle","id":"tests-24068f4d-3179-4f2f-872e-02e3b362cac0-bundle","type":"transaction","entry":[{"fullUrl":"https://madie.cms.gov/Patient/24068f4d-3179-4f2f-872e-02e3b362cac0","resource":{"resourceType":"Patient","id":"24068f4d-3179-4f2f-872e-02e3b362cac0","meta":{"profile":["http://hl7.org/fhir/us/qicore/StructureDefinition/qicore-patient"]},"text":{"status":"generated","div":"<div xmlns=\"http://www.w3.org/1999/xhtml\"><div class=\"hapiHeaderText\">CMOPerf1minB4EncEd2DayB4Enc <b>DENEXPASS </b></div><table class=\"hapiPropertyTable\"><tbody><tr><td>Identifier</td><td>c418ae51a353c7bea9882dfcbe25293a0248f676c9c3a21849ac6b06ce037aaa</td></tr><tr><td>Date of birth</td><td><span>03 March 1974</span></td></tr></tbody></table></div>"},"extension":[{"url":"http://hl7.org/fhir/us/core/StructureDefinition/us-core-race","extension":[{"url":"ombCategory","valueCoding":{"system":"urn:oid:2.16.840.1.113883.6.238","code":"1002-5","display":"American Indian or Alaska Native","userSelected":true}},{"url":"text","valueString":"American Indian or Alaska Native"}]},{"url":"http://hl7.org/fhir/us/core/StructureDefinition/us-core-ethnicity","extension":[{"url":"ombCategory","valueCoding":{"system":"urn:oid:2.16.840.1.113883.6.238","code":"2135-2","display":"Hispanic or Latino","userSelected":true}},{"url":"text","valueString":"Hispanic or Latino"}]}],"identifier":[{"type":{"coding":[{"system":"http://terminology.hl7.org/CodeSystem/v2-0203","code":"MR"}]},"system":"https://bonnie-fhir.healthit.gov/","value":"612e6e7802c62a011f2ee7c5"}],"active":true,"name":[{"use":"usual","family":"DENEXPass","given":["CMOPerf1minB4EncEd2DayB4Enc"]}],"gender":"female","birthDate":"1975-03-03"},"request":{"method":"PUT","url":"Patient/24068f4d-3179-4f2f-872e-02e3b362cac0"}},{"fullUrl":"https://madie.cms.gov/Encounter/53ef7df0-928d-4c79-ae1a-6e5af4218cb4","resource":{"resourceType":"Encounter","id":"53ef7df0-928d-4c79-ae1a-6e5af4218cb4","meta":{"profile":["http://hl7.org/fhir/us/qicore/StructureDefinition/qicore-encounter"]},"status":"finished","class":{"system":"http://terminology.hl7.org/CodeSystem/v3-ActCode","code":"EMER","display":"emergency"},"type":[{"coding":[{"system":"http://snomed.info/sct","code":"4525004"}]}],"subject":{"reference":"Patient/24068f4d-3179-4f2f-872e-02e3b362cac0"},"period":{"start":"2026-12-02T06:00:00+00:00","end":"2026-12-02T18:30:00+00:00"},"length":{"value":0.0,"unit":"days"}},"request":{"method":"PUT","url":"Encounter/53ef7df0-928d-4c79-ae1a-6e5af4218cb4"}},{"fullUrl":"https://madie.cms.gov/Encounter/77ee3086-7397-4f73-8ffe-174703f5fdde","resource":{"resourceType":"Encounter","id":"77ee3086-7397-4f73-8ffe-174703f5fdde","meta":{"profile":["http://hl7.org/fhir/us/qicore/StructureDefinition/qicore-encounter"]},"status":"finished","class":{"system":"http://terminology.hl7.org/CodeSystem/v3-ActCode","code":"IMP","display":"inpatient encounter"},"type":[{"coding":[{"system":"http://snomed.info/sct","code":"8715000"}]}],"subject":{"reference":"Patient/24068f4d-3179-4f2f-872e-02e3b362cac0"},"period":{"start":"2026-12-04T08:00:00+00:00","end":"2026-12-30T08:15:00+00:00"},"length":{"value":26.0,"unit":"days"},"location":[{"location":{"reference":"Location/939f9987-ca7f-4fb6-890a-f2efbec57cc2"},"period":{"start":"2026-12-26T08:00:00.000+00:00","end":"2026-12-28T08:15:00.000+00:00"}}]},"request":{"method":"PUT","url":"Encounter/77ee3086-7397-4f73-8ffe-174703f5fdde"}},{"fullUrl":"https://madie.cms.gov/Procedure/235b5d10-45ed-468d-965c-2d1be9e789e7","resource":{"resourceType":"Procedure","id":"235b5d10-45ed-468d-965c-2d1be9e789e7","meta":{"profile":["http://hl7.org/fhir/us/qicore/StructureDefinition/qicore-procedure"]},"extension":[{"url":"http://hl7.org/fhir/us/qicore/StructureDefinition/qicore-recorded","valueDateTime":"2013-12-05T09:35:00-04:00"}],"status":"completed","code":{"coding":[{"system":"http://snomed.info/sct","code":"133918004"}]},"subject":{"reference":"Patient/24068f4d-3179-4f2f-872e-02e3b362cac0"},"performedPeriod":{"start":"2026-12-04T07:59:00+00:00"}},"request":{"method":"PUT","url":"Procedure/235b5d10-45ed-468d-965c-2d1be9e789e7"}},{"fullUrl":"https://madie.cms.gov/Coverage/adbd34fd-3699-4f16-92d5-613c7bade83d","resource":{"resourceType":"Coverage","id":"adbd34fd-3699-4f16-92d5-613c7bade83d","status":"active","beneficiary":{"reference":"Patient/24068f4d-3179-4f2f-872e-02e3b362cac0"},"period":{"start":"1975-03-03T08:00:00+00:00"},"payor":[{"reference":"Organization/f7da4368-fb6d-4d73-a75b-f78024cbb18d"}]},"request":{"method":"PUT","url":"Coverage/adbd34fd-3699-4f16-92d5-613c7bade83d"}},{"fullUrl":"https://madie.cms.gov/Location/939f9987-ca7f-4fb6-890a-f2efbec57cc2","resource":{"resourceType":"Location","id":"939f9987-ca7f-4fb6-890a-f2efbec57cc2","meta":{"profile":["http://hl7.org/fhir/us/qicore/StructureDefinition/qicore-location"]},"identifier":[{"use":"usual","system":"http://exampleoflocation.com","value":"B1-S.F2"}],"name":"Medical Surgical East, first floor","type":[{"coding":[{"system":"https://www.cdc.gov/nhsn/cdaportal/terminology/codesystem/hsloc.html","code":"1025-6","display":"Trauma Critical Care","userSelected":true}]}]},"request":{"method":"PUT","url":"Location/939f9987-ca7f-4fb6-890a-f2efbec57cc2"}},{"fullUrl":"https://madie.cms.gov/Organization/13445909-570e-4044-85d6-6dd9490fb532","resource":{"resourceType":"Organization","id":"f7da4368-fb6d-4d73-a75b-f78024cbb18d","meta":{"profile":["http://hl7.org/fhir/us/qicore/StructureDefinition/qicore-organization"]},"identifier":[{"use":"temp","system":"urn:oid:2.16.840.1.113883.4.4","value":"21-3259825"}],"active":true,"type":[{"coding":[{"system":"http://terminology.hl7.org/CodeSystem/organization-type","code":"pay","display":"Payer"}]}],"name":"Blue Cross Blue Shield of Texas","telecom":[{"system":"phone","value":"(+1) 972-766-6900"}],"address":[{"use":"billing","type":"postal","line":["P.O. Box 660044"],"city":"Dallas","state":"TX","postalCode":"75266-0044","country":"USA"}]},"request":{"method":"PUT","url":"Organization/f7da4368-fb6d-4d73-a75b-f78024cbb18d"}},{"fullUrl":"https://madie.cms.gov/Practitioner/fa0c67a4-a42f-4997-a8e1-41fe405ad2bf","resource":{"resourceType":"Practitioner","id":"fa0c67a4-a42f-4997-a8e1-41fe405ad2bf","identifier":[{"system":"http://hl7.org/fhir/sid/us-npi","value":"123456"}],"name":[{"family":"Evil","prefix":["Dr"]}]},"request":{"method":"PUT","url":"Practitioner/fa0c67a4-a42f-4997-a8e1-41fe405ad2bf"}},{"fullUrl":"https://madie.cms.gov/MeasureReport/9746c143-ebde-4379-813b-1d228ea683ee","resource":{"resourceType":"MeasureReport","id":"9746c143-ebde-4379-813b-1d228ea683ee","meta":{"profile":["http://hl7.org/fhir/us/cqfmeasures/StructureDefinition/test-case-cqfm"]},"contained":[{"resourceType":"Parameters","id":"4afd1eb2-113c-4739-b50a-646c93cd05dc-parameters","parameter":[{"name":"subject","valueString":"24068f4d-3179-4f2f-872e-02e3b362cac0"}]}],"extension":[{"url":"http://hl7.org/fhir/us/cqfmeasures/StructureDefinition/cqfm-inputParameters","valueReference":{"reference":"#4afd1eb2-113c-4739-b50a-646c93cd05dc-parameters"}},{"url":"http://hl7.org/fhir/us/cqfmeasures/StructureDefinition/cqfm-testCaseDescription","valueMarkdown":"meets IPP and Denominator, inpatient visit starts >1 day after the end of ED visit(Global Hosp without Ed) AND Comfort Measures are performed 1 min before EncIP,. This case passes DENEXCL because CMO is on the same day as Adm\n"}],"modifierExtension":[{"url":"http://hl7.org/fhir/us/cqfmeasures/StructureDefinition/cqfm-isTestCase","valueBoolean":true}],"status":"complete","type":"individual","measure":"https://madie.cms.gov/Measure/CMS190VTEProphylaxisICUFHIR","period":{"start":"2026-01-01","end":"2026-12-31"},"group":[{"population":[{"code":{"coding":[{"system":"http://terminology.hl7.org/CodeSystem/measure-population","code":"initial-population","display":"Initial Population"}]},"count":1},{"code":{"coding":[{"system":"http://terminology.hl7.org/CodeSystem/measure-population","code":"denominator","display":"Denominator"}]},"count":1},{"code":{"coding":[{"system":"http://terminology.hl7.org/CodeSystem/measure-population","code":"denominator-exclusion","display":"Denominator Exclusion"}]},"count":1},{"code":{"coding":[{"system":"http://terminology.hl7.org/CodeSystem/measure-population","code":"numerator","display":"Numerator"}]},"count":0},{"code":{"coding":[{"system":"http://terminology.hl7.org/CodeSystem/measure-population","code":"denominator-exception","display":"Denominator Exception"}]},"count":0}]}]},"request":{"method":"PUT","url":"MeasureReport/9746c143-ebde-4379-813b-1d228ea683ee"}}]}