{"resourceType":"Bundle","id":"tests-a82cd0c1-900e-4ab3-a498-840ac1608486-bundle","type":"transaction","entry":[{"fullUrl":"https://madie.cms.gov/Patient/a82cd0c1-900e-4ab3-a498-840ac1608486","resource":{"resourceType":"Patient","id":"a82cd0c1-900e-4ab3-a498-840ac1608486","meta":{"profile":["http://hl7.org/fhir/us/qicore/StructureDefinition/qicore-patient"]},"text":{"status":"generated","div":"<div xmlns=\"http://www.w3.org/1999/xhtml\"><div class=\"hapiHeaderText\">CMODuringEDDoNotPerformTrue <b>DENEXFail </b></div><table class=\"hapiPropertyTable\"><tbody><tr><td>Identifier</td><td>45452ea1dc23640e1878befc89e45fab</td></tr><tr><td>Date of birth</td><td><span>03 March 1974</span></td></tr></tbody></table></div>"},"extension":[{"url":"http://hl7.org/fhir/us/core/StructureDefinition/us-core-race","extension":[{"url":"ombCategory","valueCoding":{"system":"urn:oid:2.16.840.1.113883.6.238","code":"1002-5","display":"American Indian or Alaska Native","userSelected":true}},{"url":"text","valueString":"American Indian or Alaska Native"}]},{"url":"http://hl7.org/fhir/us/core/StructureDefinition/us-core-ethnicity","extension":[{"url":"ombCategory","valueCoding":{"system":"urn:oid:2.16.840.1.113883.6.238","code":"2135-2","display":"Hispanic or Latino","userSelected":true}},{"url":"text","valueString":"Hispanic or Latino"}]}],"identifier":[{"type":{"coding":[{"system":"http://terminology.hl7.org/CodeSystem/v2-0203","code":"MR"}]},"system":"https://bonnie-fhir.healthit.gov/","value":"612e6e7d02c62a011f2ee908"}],"active":true,"name":[{"use":"usual","family":"DENEXFail","given":["CMODuringEDDoNotPerformTrue"]}],"gender":"female","birthDate":"1975-03-03"},"request":{"method":"PUT","url":"Patient/a82cd0c1-900e-4ab3-a498-840ac1608486"}},{"fullUrl":"https://madie.cms.gov/Encounter/c0f69511-c789-43fe-89fa-f971fc406482","resource":{"resourceType":"Encounter","id":"c0f69511-c789-43fe-89fa-f971fc406482","meta":{"profile":["http://hl7.org/fhir/us/qicore/StructureDefinition/qicore-encounter"]},"status":"finished","class":{"system":"http://terminology.hl7.org/CodeSystem/v3-ActCode","code":"EMER","display":"emergency"},"type":[{"coding":[{"system":"http://snomed.info/sct","code":"4525004"}]}],"subject":{"reference":"Patient/a82cd0c1-900e-4ab3-a498-840ac1608486"},"period":{"start":"2026-12-04T06:00:00+00:00","end":"2026-12-04T07:15:00+00:00"},"length":{"value":0,"unit":"days"}},"request":{"method":"PUT","url":"Encounter/c0f69511-c789-43fe-89fa-f971fc406482"}},{"fullUrl":"https://madie.cms.gov/Encounter/fe04db32-ec43-4850-b95b-a528230b7a91","resource":{"resourceType":"Encounter","id":"fe04db32-ec43-4850-b95b-a528230b7a91","meta":{"profile":["http://hl7.org/fhir/us/qicore/StructureDefinition/qicore-encounter"]},"status":"finished","class":{"system":"http://terminology.hl7.org/CodeSystem/v3-ActCode","code":"IMP","display":"inpatient encounter"},"type":[{"coding":[{"system":"http://snomed.info/sct","code":"8715000"}]}],"subject":{"reference":"Patient/a82cd0c1-900e-4ab3-a498-840ac1608486"},"period":{"start":"2026-12-04T08:00:00+00:00","end":"2026-12-30T08:15:00+00:00"},"length":{"value":26,"unit":"days"},"location":[{"location":{"reference":"Location/3a0623a0-6627-4e83-9638-d6266ba1cd6b"},"period":{"start":"2026-12-26T08:00:00.000+00:00","end":"2026-12-28T08:15:00.000+00:00"}}]},"request":{"method":"PUT","url":"Encounter/fe04db32-ec43-4850-b95b-a528230b7a91"}},{"fullUrl":"https://madie.cms.gov/ServiceRequest/66ae11b9-d175-4aab-8a3b-c80d37591e31","resource":{"resourceType":"ServiceRequest","id":"66ae11b9-d175-4aab-8a3b-c80d37591e31","meta":{"profile":["http://hl7.org/fhir/us/qicore/StructureDefinition/qicore-servicerequest"]},"status":"completed","intent":"order","doNotPerform":true,"code":{"coding":[{"system":"http://snomed.info/sct","code":"133918004"}]},"subject":{"reference":"Patient/a82cd0c1-900e-4ab3-a498-840ac1608486"},"authoredOn":"2026-12-04T06:30:00+00:00"},"request":{"method":"PUT","url":"ServiceRequest/66ae11b9-d175-4aab-8a3b-c80d37591e31"}},{"fullUrl":"https://madie.cms.gov/Coverage/ec2bdeae-3890-46ab-8ec4-cf1e3e52a5a5","resource":{"resourceType":"Coverage","id":"ec2bdeae-3890-46ab-8ec4-cf1e3e52a5a5","status":"active","beneficiary":{"reference":"Patient/a82cd0c1-900e-4ab3-a498-840ac1608486"},"period":{"start":"1975-03-03T08:00:00+00:00"},"payor":[{"reference":"Organization/3778262e-e084-4bb5-9a47-1a144735f786"}]},"request":{"method":"PUT","url":"Coverage/ec2bdeae-3890-46ab-8ec4-cf1e3e52a5a5"}},{"fullUrl":"https://madie.cms.gov/Location/cd7f9ce1-0ce4-4ef2-b383-8656f0798981","resource":{"resourceType":"Location","id":"cd7f9ce1-0ce4-4ef2-b383-8656f0798981","type":[{"coding":[{"system":"http://cts.nlm.nih.gov/fhir/cs/hsloc","version":"2020","code":"1025-6","display":"Trauma Critical Care","userSelected":true}]}]},"request":{"method":"PUT","url":"Location/cd7f9ce1-0ce4-4ef2-b383-8656f0798981"}},{"fullUrl":"https://madie.cms.gov/Location/3a0623a0-6627-4e83-9638-d6266ba1cd6b","resource":{"resourceType":"Location","id":"3a0623a0-6627-4e83-9638-d6266ba1cd6b","meta":{"profile":["http://hl7.org/fhir/us/qicore/StructureDefinition/qicore-location"]},"identifier":[{"use":"usual","system":"http://exampleoflocation.com","value":"B1-S.F2"}],"name":"Medical Surgical East, first floor","type":[{"coding":[{"system":"https://www.cdc.gov/nhsn/cdaportal/terminology/codesystem/hsloc.html","code":"1025-6","display":"Trauma Critical Care","userSelected":true}]}]},"request":{"method":"PUT","url":"Location/3a0623a0-6627-4e83-9638-d6266ba1cd6b"}},{"fullUrl":"https://madie.cms.gov/Organization/31f23e48-85f5-4368-9d02-f5b40d08c1e4","resource":{"resourceType":"Organization","id":"3778262e-e084-4bb5-9a47-1a144735f786","meta":{"profile":["http://hl7.org/fhir/us/qicore/StructureDefinition/qicore-organization"]},"identifier":[{"use":"temp","system":"urn:oid:2.16.840.1.113883.4.4","value":"21-3259825"}],"active":true,"type":[{"coding":[{"system":"http://terminology.hl7.org/CodeSystem/organization-type","code":"pay","display":"Payer"}]}],"name":"Blue Cross Blue Shield of Texas","telecom":[{"system":"phone","value":"(+1) 972-766-6900"}],"address":[{"use":"billing","type":"postal","line":["P.O. Box 660044"],"city":"Dallas","state":"TX","postalCode":"75266-0044","country":"USA"}]},"request":{"method":"PUT","url":"Organization/3778262e-e084-4bb5-9a47-1a144735f786"}},{"fullUrl":"https://madie.cms.gov/Practitioner/6535435c-5745-4bc0-aa95-3a0b84542ec2","resource":{"resourceType":"Practitioner","id":"6535435c-5745-4bc0-aa95-3a0b84542ec2","identifier":[{"system":"http://hl7.org/fhir/sid/us-npi","value":"123456"}],"name":[{"family":"Evil","prefix":["Dr"]}]},"request":{"method":"PUT","url":"Practitioner/6535435c-5745-4bc0-aa95-3a0b84542ec2"}},{"fullUrl":"https://madie.cms.gov/MeasureReport/805a2094-67c1-489d-8bb9-ff1bc26fe99b","resource":{"resourceType":"MeasureReport","id":"805a2094-67c1-489d-8bb9-ff1bc26fe99b","meta":{"profile":["http://hl7.org/fhir/us/cqfmeasures/StructureDefinition/test-case-cqfm"]},"contained":[{"resourceType":"Parameters","id":"06b6eb4d-c578-46f7-a73e-b32e388629bd-parameters","parameter":[{"name":"subject","valueString":"a82cd0c1-900e-4ab3-a498-840ac1608486"}]}],"extension":[{"url":"http://hl7.org/fhir/us/cqfmeasures/StructureDefinition/cqfm-inputParameters","valueReference":{"reference":"#06b6eb4d-c578-46f7-a73e-b32e388629bd-parameters"}},{"url":"http://hl7.org/fhir/us/cqfmeasures/StructureDefinition/cqfm-testCaseDescription","valueMarkdown":"To test and cover CMO doNotPerform is true"}],"modifierExtension":[{"url":"http://hl7.org/fhir/us/cqfmeasures/StructureDefinition/cqfm-isTestCase","valueBoolean":true}],"status":"complete","type":"individual","measure":"https://madie.cms.gov/Measure/CMS190VTEProphylaxisICUFHIR","period":{"start":"2026-01-01","end":"2026-12-31"},"group":[{"population":[{"code":{"coding":[{"system":"http://terminology.hl7.org/CodeSystem/measure-population","code":"initial-population","display":"Initial Population"}]},"count":1},{"code":{"coding":[{"system":"http://terminology.hl7.org/CodeSystem/measure-population","code":"denominator","display":"Denominator"}]},"count":1},{"code":{"coding":[{"system":"http://terminology.hl7.org/CodeSystem/measure-population","code":"denominator-exclusion","display":"Denominator Exclusion"}]},"count":0},{"code":{"coding":[{"system":"http://terminology.hl7.org/CodeSystem/measure-population","code":"numerator","display":"Numerator"}]},"count":0},{"code":{"coding":[{"system":"http://terminology.hl7.org/CodeSystem/measure-population","code":"denominator-exception","display":"Denominator Exception"}]},"count":0}]}]},"request":{"method":"PUT","url":"MeasureReport/805a2094-67c1-489d-8bb9-ff1bc26fe99b"}}]}