{"resourceType":"Bundle","id":"tests-4ad66db5-d557-4199-9b82-dfd9cc013c9f-bundle","type":"transaction","entry":[{"fullUrl":"https://madie.cms.gov/Patient/4ad66db5-d557-4199-9b82-dfd9cc013c9f","resource":{"resourceType":"Patient","id":"4ad66db5-d557-4199-9b82-dfd9cc013c9f","meta":{"profile":["http://hl7.org/fhir/us/qicore/StructureDefinition/qicore-patient"]},"text":{"status":"generated","div":"<div xmlns=\"http://www.w3.org/1999/xhtml\"><div class=\"hapiHeaderText\">PtRefDOGCSMedReasonMALDUHOnEDEnd <b>NUMERPASS </b></div><table class=\"hapiPropertyTable\"><tbody><tr><td>Identifier</td><td>24fc1ce85ce14557dd4d9eba17df9f17</td></tr><tr><td>Date of birth</td><td><span>02 January 1974</span></td></tr></tbody></table></div>"},"extension":[{"url":"http://hl7.org/fhir/us/core/StructureDefinition/us-core-race","extension":[{"url":"ombCategory","valueCoding":{"system":"urn:oid:2.16.840.1.113883.6.238","code":"1002-5","display":"American Indian or Alaska Native","userSelected":true}},{"url":"text","valueString":"American Indian or Alaska Native"}]},{"url":"http://hl7.org/fhir/us/core/StructureDefinition/us-core-ethnicity","extension":[{"url":"ombCategory","valueCoding":{"system":"urn:oid:2.16.840.1.113883.6.238","code":"2135-2","display":"Hispanic or Latino","userSelected":true}},{"url":"text","valueString":"Hispanic or Latino"}]}],"identifier":[{"type":{"coding":[{"system":"http://terminology.hl7.org/CodeSystem/v2-0203","code":"MR"}]},"system":"https://bonnie-fhir.healthit.gov/","value":"612e6a7002c62a011f2ea15f"}],"active":true,"name":[{"use":"usual","family":"NUMERPass","given":["PtRefDOGCSMedReasonMALDUHOnEDEnd"]}],"gender":"male","birthDate":"1975-01-02"},"request":{"method":"PUT","url":"Patient/4ad66db5-d557-4199-9b82-dfd9cc013c9f"}},{"fullUrl":"https://madie.cms.gov/Encounter/d1c1d7da-599c-42dc-a674-ebd187a3483b","resource":{"resourceType":"Encounter","id":"d1c1d7da-599c-42dc-a674-ebd187a3483b","meta":{"profile":["http://hl7.org/fhir/us/qicore/StructureDefinition/qicore-encounter"]},"status":"finished","class":{"system":"http://terminology.hl7.org/CodeSystem/v3-ActCode","code":"EMER","display":"emergency"},"type":[{"coding":[{"system":"http://snomed.info/sct","code":"4525004"}]}],"subject":{"reference":"Patient/4ad66db5-d557-4199-9b82-dfd9cc013c9f"},"period":{"start":"2026-10-31T05:00:00+00:00","end":"2026-11-01T07:15:00+00:00"},"length":{"value":1,"unit":"days"}},"request":{"method":"PUT","url":"Encounter/d1c1d7da-599c-42dc-a674-ebd187a3483b"}},{"fullUrl":"https://madie.cms.gov/Encounter/bca1fd7c-56a4-4226-8b6e-61b889d17c00","resource":{"resourceType":"Encounter","id":"bca1fd7c-56a4-4226-8b6e-61b889d17c00","meta":{"profile":["http://hl7.org/fhir/us/qicore/StructureDefinition/qicore-encounter"]},"status":"finished","class":{"system":"http://terminology.hl7.org/CodeSystem/v3-ActCode","code":"IMP","display":"inpatient encounter"},"type":[{"coding":[{"system":"http://snomed.info/sct","code":"8715000"}]}],"subject":{"reference":"Patient/4ad66db5-d557-4199-9b82-dfd9cc013c9f"},"period":{"start":"2026-11-01T08:00:00+00:00","end":"2026-11-26T08:15:00+00:00"},"length":{"value":25,"unit":"days"},"location":[{"location":{"reference":"Location/3ea7cfd1-16d6-47ee-819d-ad9cda936ca0"},"period":{"start":"2026-11-03T09:00:00.000+00:00","end":"2026-11-05T08:15:00.000+00:00"}}]},"request":{"method":"PUT","url":"Encounter/bca1fd7c-56a4-4226-8b6e-61b889d17c00"}},{"fullUrl":"https://madie.cms.gov/Coverage/1d2e35f3-c133-401a-af92-f08fda6085a1","resource":{"resourceType":"Coverage","id":"1d2e35f3-c133-401a-af92-f08fda6085a1","status":"active","beneficiary":{"reference":"Patient/4ad66db5-d557-4199-9b82-dfd9cc013c9f"},"period":{"start":"1975-01-02T08:00:00+00:00"},"payor":[{"reference":"Organization/e75793c9-fdf6-463a-8c1d-4ee44320dc25"}]},"request":{"method":"PUT","url":"Coverage/1d2e35f3-c133-401a-af92-f08fda6085a1"}},{"fullUrl":"https://madie.cms.gov/ServiceRequest/8689a8ab-1c9b-4e3a-8740-f6494a4d3737","resource":{"resourceType":"ServiceRequest","id":"8689a8ab-1c9b-4e3a-8740-f6494a4d3737","meta":{"profile":["http://hl7.org/fhir/us/qicore/StructureDefinition/qicore-servicenotrequested"]},"extension":[{"url":"http://hl7.org/fhir/us/qicore/StructureDefinition/qicore-doNotPerformReason","valueCodeableConcept":{"coding":[{"system":"http://snomed.info/sct","code":"443390004","display":"Refusal of treatment by patient (situation)"}]}}],"status":"completed","intent":"order","doNotPerform":true,"code":{"coding":[{"system":"http://snomed.info/sct","version":"2025-03","code":"348681001","display":"Graduated compression elastic hosiery (physical object)","userSelected":true}]},"subject":{"reference":"Patient/4ad66db5-d557-4199-9b82-dfd9cc013c9f"},"authoredOn":"2026-11-01T07:15:00+00:00"},"request":{"method":"PUT","url":"ServiceRequest/8689a8ab-1c9b-4e3a-8740-f6494a4d3737"}},{"fullUrl":"https://madie.cms.gov/MedicationAdministration/c3070af4-812c-4c79-913e-05e8a9fa0044","resource":{"resourceType":"MedicationAdministration","id":"c3070af4-812c-4c79-913e-05e8a9fa0044","meta":{"profile":["http://hl7.org/fhir/us/qicore/StructureDefinition/qicore-mednotadministered"]},"extension":[{"url":"http://hl7.org/fhir/us/qicore/StructureDefinition/qicore-recorded","valueDateTime":"2026-11-02T11:00:00+00:00"}],"status":"not-done","statusReason":[{"coding":[{"system":"http://snomed.info/sct","code":"183932001"}]}],"medicationCodeableConcept":{"coding":[{"system":"http://www.nlm.nih.gov/research/umls/rxnorm","code":"1361574"}]},"subject":{"reference":"Patient/4ad66db5-d557-4199-9b82-dfd9cc013c9f"},"effectivePeriod":{"start":"2026-11-02T11:00:00+00:00"}},"request":{"method":"PUT","url":"MedicationAdministration/c3070af4-812c-4c79-913e-05e8a9fa0044"}},{"fullUrl":"https://madie.cms.gov/Location/3ea7cfd1-16d6-47ee-819d-ad9cda936ca0","resource":{"resourceType":"Location","id":"3ea7cfd1-16d6-47ee-819d-ad9cda936ca0","meta":{"profile":["http://hl7.org/fhir/us/qicore/StructureDefinition/qicore-location"]},"identifier":[{"use":"usual","system":"http://exampleoflocation.com","value":"B1-S.F2"}],"name":"Medical Surgical East, first floor","type":[{"coding":[{"system":"https://www.cdc.gov/nhsn/cdaportal/terminology/codesystem/hsloc.html","code":"1025-6","display":"Trauma Critical Care","userSelected":true}]}]},"request":{"method":"PUT","url":"Location/3ea7cfd1-16d6-47ee-819d-ad9cda936ca0"}},{"fullUrl":"https://madie.cms.gov/Organization/d21be0d9-65be-40f5-98b3-5c0732ac48c6","resource":{"resourceType":"Organization","id":"e75793c9-fdf6-463a-8c1d-4ee44320dc25","meta":{"profile":["http://hl7.org/fhir/us/qicore/StructureDefinition/qicore-organization"]},"identifier":[{"use":"temp","system":"urn:oid:2.16.840.1.113883.4.4","value":"21-3259825"}],"active":true,"type":[{"coding":[{"system":"http://terminology.hl7.org/CodeSystem/organization-type","code":"pay","display":"Payer"}]}],"name":"Blue Cross Blue Shield of Texas","telecom":[{"system":"phone","value":"(+1) 972-766-6900"}],"address":[{"use":"billing","type":"postal","line":["P.O. Box 660044"],"city":"Dallas","state":"TX","postalCode":"75266-0044","country":"USA"}]},"request":{"method":"PUT","url":"Organization/e75793c9-fdf6-463a-8c1d-4ee44320dc25"}},{"fullUrl":"https://madie.cms.gov/Practitioner/2dfc21f8-4eb6-4e58-a070-0e22df9de5c0","resource":{"resourceType":"Practitioner","id":"2dfc21f8-4eb6-4e58-a070-0e22df9de5c0","identifier":[{"system":"http://hl7.org/fhir/sid/us-npi","value":"123456"}],"name":[{"family":"Evil","prefix":["Dr"]}]},"request":{"method":"PUT","url":"Practitioner/2dfc21f8-4eb6-4e58-a070-0e22df9de5c0"}},{"fullUrl":"https://madie.cms.gov/MeasureReport/b9f1cc9c-1baa-4678-aec2-1dcd4e30441a","resource":{"resourceType":"MeasureReport","id":"b9f1cc9c-1baa-4678-aec2-1dcd4e30441a","meta":{"profile":["http://hl7.org/fhir/us/cqfmeasures/StructureDefinition/test-case-cqfm"]},"contained":[{"resourceType":"Parameters","id":"820afc16-2fb8-43da-ab6e-232b84c8dc81-parameters","parameter":[{"name":"subject","valueString":"4ad66db5-d557-4199-9b82-dfd9cc013c9f"}]}],"extension":[{"url":"http://hl7.org/fhir/us/cqfmeasures/StructureDefinition/cqfm-inputParameters","valueReference":{"reference":"#820afc16-2fb8-43da-ab6e-232b84c8dc81-parameters"}},{"url":"http://hl7.org/fhir/us/cqfmeasures/StructureDefinition/cqfm-testCaseDescription","valueMarkdown":"meets IPP, meets Denominator, GCS ordered not done PatRfsl and Unfractionated Heparin not done MedRsn - on ED EndTime\n"}],"modifierExtension":[{"url":"http://hl7.org/fhir/us/cqfmeasures/StructureDefinition/cqfm-isTestCase","valueBoolean":true}],"status":"complete","type":"individual","measure":"https://madie.cms.gov/Measure/CMS190VTEProphylaxisICUFHIR","period":{"start":"2026-01-01","end":"2026-12-31"},"group":[{"population":[{"code":{"coding":[{"system":"http://terminology.hl7.org/CodeSystem/measure-population","code":"initial-population","display":"Initial Population"}]},"count":1},{"code":{"coding":[{"system":"http://terminology.hl7.org/CodeSystem/measure-population","code":"denominator","display":"Denominator"}]},"count":1},{"code":{"coding":[{"system":"http://terminology.hl7.org/CodeSystem/measure-population","code":"denominator-exclusion","display":"Denominator Exclusion"}]},"count":0},{"code":{"coding":[{"system":"http://terminology.hl7.org/CodeSystem/measure-population","code":"numerator","display":"Numerator"}]},"count":1},{"code":{"coding":[{"system":"http://terminology.hl7.org/CodeSystem/measure-population","code":"denominator-exception","display":"Denominator Exception"}]},"count":0}]}]},"request":{"method":"PUT","url":"MeasureReport/b9f1cc9c-1baa-4678-aec2-1dcd4e30441a"}}]}