{"resourceType":"Bundle","id":"tests-002fcec4-89ed-42be-a7b7-41fa0acddf8c-bundle","type":"transaction","entry":[{"fullUrl":"https://madie.cms.gov/Patient/002fcec4-89ed-42be-a7b7-41fa0acddf8c","resource":{"resourceType":"Patient","id":"002fcec4-89ed-42be-a7b7-41fa0acddf8c","meta":{"profile":["http://hl7.org/fhir/us/qicore/StructureDefinition/qicore-patient"]},"text":{"status":"generated","div":"<div xmlns=\"http://www.w3.org/1999/xhtml\"><div class=\"hapiHeaderText\">TestMultipleOccur1inExcl1inNum <b>NUMERPASS </b></div><table class=\"hapiPropertyTable\"><tbody><tr><td>Identifier</td><td>1d32025f189fa435c8f5577d60ac33ec63a4414947e2aa89a0a7970a5a451ef3</td></tr><tr><td>Date of birth</td><td><span>03 March 1974</span></td></tr></tbody></table></div>"},"extension":[{"url":"http://hl7.org/fhir/us/core/StructureDefinition/us-core-race","extension":[{"url":"ombCategory","valueCoding":{"system":"urn:oid:2.16.840.1.113883.6.238","code":"1002-5","display":"American Indian or Alaska Native","userSelected":true}},{"url":"text","valueString":"American Indian or Alaska Native"}]},{"url":"http://hl7.org/fhir/us/core/StructureDefinition/us-core-ethnicity","extension":[{"url":"ombCategory","valueCoding":{"system":"urn:oid:2.16.840.1.113883.6.238","code":"2135-2","display":"Hispanic or Latino","userSelected":true}},{"url":"text","valueString":"Hispanic or Latino"}]}],"identifier":[{"type":{"coding":[{"system":"http://terminology.hl7.org/CodeSystem/v2-0203","code":"MR"}]},"system":"https://bonnie-fhir.healthit.gov/","value":"612e6f6f02c62a011f2f1da2"}],"active":true,"name":[{"use":"usual","family":"NUMERPass","given":["TestMultipleOccur1inExcl1inNum"]}],"gender":"female","birthDate":"1975-03-03"},"request":{"method":"PUT","url":"Patient/002fcec4-89ed-42be-a7b7-41fa0acddf8c"}},{"fullUrl":"https://madie.cms.gov/Encounter/35c293cc-77c8-4304-b6c6-75086764ed58","resource":{"resourceType":"Encounter","id":"35c293cc-77c8-4304-b6c6-75086764ed58","meta":{"profile":["http://hl7.org/fhir/us/qicore/StructureDefinition/qicore-encounter"]},"status":"finished","class":{"system":"http://terminology.hl7.org/CodeSystem/v3-ActCode","code":"IMP","display":"inpatient encounter"},"type":[{"coding":[{"system":"http://snomed.info/sct","code":"183452005"}]}],"subject":{"reference":"Patient/002fcec4-89ed-42be-a7b7-41fa0acddf8c"},"period":{"start":"2026-03-22T08:00:00+00:00","end":"2026-03-26T08:15:00+00:00"},"length":{"value":4,"unit":"days"},"location":[{"location":{"reference":"Location/5c21d0d2-7a4f-45d5-8ed0-7c73659fe1ae"},"period":{"start":"2026-03-23T09:00:00.000+00:00","end":"2026-03-24T08:15:00.000+00:00"}}]},"request":{"method":"PUT","url":"Encounter/35c293cc-77c8-4304-b6c6-75086764ed58"}},{"fullUrl":"https://madie.cms.gov/Encounter/ec8bb221-6056-40ad-933d-bfb085ec84ba","resource":{"resourceType":"Encounter","id":"ec8bb221-6056-40ad-933d-bfb085ec84ba","meta":{"profile":["http://hl7.org/fhir/us/qicore/StructureDefinition/qicore-encounter"]},"status":"finished","class":{"system":"http://terminology.hl7.org/CodeSystem/v3-ActCode","code":"EMER","display":"emergency"},"type":[{"coding":[{"system":"http://snomed.info/sct","code":"4525004"}]}],"subject":{"reference":"Patient/002fcec4-89ed-42be-a7b7-41fa0acddf8c"},"period":{"start":"2026-12-06T02:00:00+00:00","end":"2026-12-06T08:15:00+00:00"},"length":{"value":0,"unit":"days"}},"request":{"method":"PUT","url":"Encounter/ec8bb221-6056-40ad-933d-bfb085ec84ba"}},{"fullUrl":"https://madie.cms.gov/Encounter/ae67d75d-f175-44a5-aad5-c766e5a7e569","resource":{"resourceType":"Encounter","id":"ae67d75d-f175-44a5-aad5-c766e5a7e569","meta":{"profile":["http://hl7.org/fhir/us/qicore/StructureDefinition/qicore-encounter"]},"status":"finished","class":{"system":"http://terminology.hl7.org/CodeSystem/v3-ActCode","code":"IMP","display":"inpatient encounter"},"type":[{"coding":[{"system":"http://snomed.info/sct","code":"8715000"}]}],"subject":{"reference":"Patient/002fcec4-89ed-42be-a7b7-41fa0acddf8c"},"period":{"start":"2026-12-06T08:45:00+00:00","end":"2026-12-30T08:15:00+00:00"},"length":{"value":24,"unit":"days"},"location":[{"location":{"reference":"Location/1d807fb8-4002-419f-8fe9-3a459f01616b"},"period":{"start":"2026-12-06T09:00:00.000+00:00","end":"2026-12-12T08:15:00.000+00:00"}}]},"request":{"method":"PUT","url":"Encounter/ae67d75d-f175-44a5-aad5-c766e5a7e569"}},{"fullUrl":"https://madie.cms.gov/ServiceRequest/2974eb58-95ec-44f2-9f30-728c25eb5fa1","resource":{"resourceType":"ServiceRequest","id":"2974eb58-95ec-44f2-9f30-728c25eb5fa1","meta":{"profile":["http://hl7.org/fhir/us/qicore/StructureDefinition/qicore-servicerequest"]},"status":"active","intent":"order","code":{"coding":[{"system":"http://snomed.info/sct","code":"133918004"}]},"subject":{"reference":"Patient/002fcec4-89ed-42be-a7b7-41fa0acddf8c"},"authoredOn":"2026-03-22T08:00:00+00:00"},"request":{"method":"PUT","url":"ServiceRequest/2974eb58-95ec-44f2-9f30-728c25eb5fa1"}},{"fullUrl":"https://madie.cms.gov/Coverage/695b5ea7-dc08-4bde-bd39-1a6cc58aa557","resource":{"resourceType":"Coverage","id":"695b5ea7-dc08-4bde-bd39-1a6cc58aa557","status":"active","beneficiary":{"reference":"Patient/002fcec4-89ed-42be-a7b7-41fa0acddf8c"},"period":{"start":"1975-03-03T08:00:00+00:00"},"payor":[{"reference":"Organization/3778262e-e084-4bb5-9a47-1a144735f786"}]},"request":{"method":"PUT","url":"Coverage/695b5ea7-dc08-4bde-bd39-1a6cc58aa557"}},{"fullUrl":"https://madie.cms.gov/MedicationAdministration/8edd3c3b-b83a-4068-bafd-3c3461ac5073","resource":{"resourceType":"MedicationAdministration","id":"8edd3c3b-b83a-4068-bafd-3c3461ac5073","meta":{"profile":["http://hl7.org/fhir/us/qicore/StructureDefinition/qicore-medicationadministration"]},"status":"completed","medicationCodeableConcept":{"coding":[{"system":"http://www.nlm.nih.gov/research/umls/rxnorm","code":"308351"}]},"subject":{"reference":"Patient/002fcec4-89ed-42be-a7b7-41fa0acddf8c"},"effectivePeriod":{"start":"2026-12-06T06:30:00+00:00"}},"request":{"method":"PUT","url":"MedicationAdministration/8edd3c3b-b83a-4068-bafd-3c3461ac5073"}},{"fullUrl":"https://madie.cms.gov/Location/5c21d0d2-7a4f-45d5-8ed0-7c73659fe1ae","resource":{"resourceType":"Location","id":"5c21d0d2-7a4f-45d5-8ed0-7c73659fe1ae","meta":{"profile":["http://hl7.org/fhir/us/qicore/StructureDefinition/qicore-location"]},"identifier":[{"use":"usual","system":"http://exampleoflocation.com","value":"B1-S.F2"}],"name":"Medical Surgical East, first floor","type":[{"coding":[{"system":"https://www.cdc.gov/nhsn/cdaportal/terminology/codesystem/hsloc.html","code":"1025-6","display":"Trauma Critical Care","userSelected":true}]}]},"request":{"method":"PUT","url":"Location/5c21d0d2-7a4f-45d5-8ed0-7c73659fe1ae"}},{"fullUrl":"https://madie.cms.gov/Location/1d807fb8-4002-419f-8fe9-3a459f01616b","resource":{"resourceType":"Location","id":"1d807fb8-4002-419f-8fe9-3a459f01616b","meta":{"profile":["http://hl7.org/fhir/us/qicore/StructureDefinition/qicore-location"]},"identifier":[{"use":"usual","system":"http://exampleoflocation.com","value":"B1-S.F2"}],"name":"Medical Surgical East, first floor","type":[{"coding":[{"system":"https://www.cdc.gov/nhsn/cdaportal/terminology/codesystem/hsloc.html","code":"1025-6","display":"Trauma Critical Care","userSelected":true}]}]},"request":{"method":"PUT","url":"Location/1d807fb8-4002-419f-8fe9-3a459f01616b"}},{"fullUrl":"https://madie.cms.gov/Organization/47237900-d094-455f-97da-6402b5c5ce59","resource":{"resourceType":"Organization","id":"3778262e-e084-4bb5-9a47-1a144735f786","meta":{"profile":["http://hl7.org/fhir/us/qicore/StructureDefinition/qicore-organization"]},"identifier":[{"use":"temp","system":"urn:oid:2.16.840.1.113883.4.4","value":"21-3259825"}],"active":true,"type":[{"coding":[{"system":"http://terminology.hl7.org/CodeSystem/organization-type","code":"pay","display":"Payer"}]}],"name":"Blue Cross Blue Shield of Texas","telecom":[{"system":"phone","value":"(+1) 972-766-6900"}],"address":[{"use":"billing","type":"postal","line":["P.O. Box 660044"],"city":"Dallas","state":"TX","postalCode":"75266-0044","country":"USA"}]},"request":{"method":"PUT","url":"Organization/3778262e-e084-4bb5-9a47-1a144735f786"}},{"fullUrl":"https://madie.cms.gov/Practitioner/855c9d75-e957-45c2-adff-0114cc66b661","resource":{"resourceType":"Practitioner","id":"855c9d75-e957-45c2-adff-0114cc66b661","identifier":[{"system":"http://hl7.org/fhir/sid/us-npi","value":"123456"}],"name":[{"family":"Evil","prefix":["Dr"]}]},"request":{"method":"PUT","url":"Practitioner/855c9d75-e957-45c2-adff-0114cc66b661"}},{"fullUrl":"https://madie.cms.gov/MeasureReport/7eb0fc25-2536-46ff-8bfd-335284109d74","resource":{"resourceType":"MeasureReport","id":"7eb0fc25-2536-46ff-8bfd-335284109d74","meta":{"profile":["http://hl7.org/fhir/us/cqfmeasures/StructureDefinition/test-case-cqfm"]},"contained":[{"resourceType":"Parameters","id":"d11e47f2-14e0-4eee-bf20-fc48235a3d5b-parameters","parameter":[{"name":"subject","valueString":"002fcec4-89ed-42be-a7b7-41fa0acddf8c"}]}],"extension":[{"url":"http://hl7.org/fhir/us/cqfmeasures/StructureDefinition/cqfm-inputParameters","valueReference":{"reference":"#d11e47f2-14e0-4eee-bf20-fc48235a3d5b-parameters"}},{"url":"http://hl7.org/fhir/us/cqfmeasures/StructureDefinition/cqfm-testCaseDescription","valueMarkdown":" Patient has 2 encounters, one in DENEX due to CMO and another pass Numerator \n"}],"modifierExtension":[{"url":"http://hl7.org/fhir/us/cqfmeasures/StructureDefinition/cqfm-isTestCase","valueBoolean":true}],"status":"complete","type":"individual","measure":"https://madie.cms.gov/Measure/CMS190VTEProphylaxisICUFHIR","period":{"start":"2026-01-01","end":"2026-12-31"},"group":[{"population":[{"code":{"coding":[{"system":"http://terminology.hl7.org/CodeSystem/measure-population","code":"initial-population","display":"Initial Population"}]},"count":2},{"code":{"coding":[{"system":"http://terminology.hl7.org/CodeSystem/measure-population","code":"denominator","display":"Denominator"}]},"count":2},{"code":{"coding":[{"system":"http://terminology.hl7.org/CodeSystem/measure-population","code":"denominator-exclusion","display":"Denominator Exclusion"}]},"count":1},{"code":{"coding":[{"system":"http://terminology.hl7.org/CodeSystem/measure-population","code":"numerator","display":"Numerator"}]},"count":1},{"code":{"coding":[{"system":"http://terminology.hl7.org/CodeSystem/measure-population","code":"denominator-exception","display":"Denominator Exception"}]},"count":0}]}]},"request":{"method":"PUT","url":"MeasureReport/7eb0fc25-2536-46ff-8bfd-335284109d74"}}]}