{"resourceType":"Bundle","id":"tests-0d48b3b3-c5f0-4955-810d-eb4f1b8714ca-bundle","type":"transaction","entry":[{"fullUrl":"https://madie.cms.gov/Patient/0d48b3b3-c5f0-4955-810d-eb4f1b8714ca","resource":{"resourceType":"Patient","id":"0d48b3b3-c5f0-4955-810d-eb4f1b8714ca","meta":{"profile":["http://hl7.org/fhir/us/qicore/StructureDefinition/qicore-patient"]},"text":{"status":"generated","div":"<div xmlns=\"http://www.w3.org/1999/xhtml\"><div class=\"hapiHeaderText\">FactorXa1MinAfterICUStartEncDxAFib <b>NUMERPASS </b></div><table class=\"hapiPropertyTable\"><tbody><tr><td>Identifier</td><td>213d087eb3bd92b3f3f6cdf55e6533f5</td></tr><tr><td>Date of birth</td><td><span>03 March 1974</span></td></tr></tbody></table></div>"},"extension":[{"url":"http://hl7.org/fhir/us/core/StructureDefinition/us-core-race","extension":[{"url":"ombCategory","valueCoding":{"system":"urn:oid:2.16.840.1.113883.6.238","code":"1002-5","display":"American Indian or Alaska Native","userSelected":true}},{"url":"text","valueString":"American Indian or Alaska Native"}]},{"url":"http://hl7.org/fhir/us/core/StructureDefinition/us-core-ethnicity","extension":[{"url":"ombCategory","valueCoding":{"system":"urn:oid:2.16.840.1.113883.6.238","code":"2135-2","display":"Hispanic or Latino","userSelected":true}},{"url":"text","valueString":"Hispanic or Latino"}]}],"identifier":[{"type":{"coding":[{"system":"http://terminology.hl7.org/CodeSystem/v2-0203","code":"MR"}]},"system":"https://bonnie-fhir.healthit.gov/","value":"612e6f3902c62a011f2f1183"}],"active":true,"name":[{"use":"usual","family":"NUMERPass","given":["FactorXa1MinAfterICUStartEncDxAFib"]}],"gender":"female","birthDate":"1975-03-03"},"request":{"method":"PUT","url":"Patient/0d48b3b3-c5f0-4955-810d-eb4f1b8714ca"}},{"fullUrl":"https://madie.cms.gov/Encounter/583e1c41-8530-4a85-b914-5baa3b60cc4c","resource":{"resourceType":"Encounter","id":"583e1c41-8530-4a85-b914-5baa3b60cc4c","meta":{"profile":["http://hl7.org/fhir/us/qicore/StructureDefinition/qicore-encounter"]},"status":"finished","class":{"system":"http://terminology.hl7.org/CodeSystem/v3-ActCode","code":"IMP","display":"inpatient encounter"},"type":[{"coding":[{"system":"http://snomed.info/sct","code":"8715000"}]}],"subject":{"reference":"Patient/0d48b3b3-c5f0-4955-810d-eb4f1b8714ca"},"period":{"start":"2026-12-04T08:00:00+00:00","end":"2026-12-30T08:15:00+00:00"},"length":{"value":26.0,"unit":"days"},"diagnosis":[{"condition":{"reference":"Condition/08a03815-609a-45fd-9263-578945da06bc"}}],"location":[{"location":{"reference":"Location/27ccf7ac-9964-444d-80ef-14450748182d"},"period":{"start":"2026-12-06T08:00:00.000+00:00","end":"2026-12-08T08:15:00.000+00:00"}}]},"request":{"method":"PUT","url":"Encounter/583e1c41-8530-4a85-b914-5baa3b60cc4c"}},{"fullUrl":"https://madie.cms.gov/Coverage/282b9ddc-4469-4bf9-a9ec-f7d9a36ec7c2","resource":{"resourceType":"Coverage","id":"282b9ddc-4469-4bf9-a9ec-f7d9a36ec7c2","status":"active","beneficiary":{"reference":"Patient/0d48b3b3-c5f0-4955-810d-eb4f1b8714ca"},"period":{"start":"1975-03-03T08:00:00+00:00"},"payor":[{"reference":"Organization/607fdef9-3983-4cef-ab1a-95434d29b463"}]},"request":{"method":"PUT","url":"Coverage/282b9ddc-4469-4bf9-a9ec-f7d9a36ec7c2"}},{"fullUrl":"https://madie.cms.gov/MedicationAdministration/70b238ca-2652-4a1d-869b-3b3fd0d26cb4","resource":{"resourceType":"MedicationAdministration","id":"70b238ca-2652-4a1d-869b-3b3fd0d26cb4","meta":{"profile":["http://hl7.org/fhir/us/qicore/StructureDefinition/qicore-medicationadministration"]},"status":"completed","medicationCodeableConcept":{"coding":[{"system":"http://www.nlm.nih.gov/research/umls/rxnorm","code":"1364435","display":"apixaban 2.5 MG Oral Tablet","userSelected":true}]},"subject":{"reference":"Patient/0d48b3b3-c5f0-4955-810d-eb4f1b8714ca"},"effectivePeriod":{"start":"2026-12-06T08:01:00+00:00"}},"request":{"method":"PUT","url":"MedicationAdministration/70b238ca-2652-4a1d-869b-3b3fd0d26cb4"}},{"fullUrl":"https://madie.cms.gov/Location/27ccf7ac-9964-444d-80ef-14450748182d","resource":{"resourceType":"Location","id":"27ccf7ac-9964-444d-80ef-14450748182d","meta":{"profile":["http://hl7.org/fhir/us/qicore/StructureDefinition/qicore-location"]},"identifier":[{"use":"usual","system":"http://exampleoflocation.com","value":"B1-S.F2"}],"name":"Medical Surgical East, first floor","type":[{"coding":[{"system":"https://www.cdc.gov/nhsn/cdaportal/terminology/codesystem/hsloc.html","code":"1025-6","display":"Trauma Critical Care","userSelected":true}]}]},"request":{"method":"PUT","url":"Location/27ccf7ac-9964-444d-80ef-14450748182d"}},{"fullUrl":"https://madie.cms.gov/Condition/08a03815-609a-45fd-9263-578945da06bc","resource":{"resourceType":"Condition","id":"08a03815-609a-45fd-9263-578945da06bc","meta":{"profile":["http://hl7.org/fhir/us/qicore/StructureDefinition/qicore-condition"]},"category":[{"coding":[{"system":"http://terminology.hl7.org/CodeSystem/condition-category","code":"encounter-diagnosis","display":"Encounter Diagnosis"}]}],"code":{"coding":[{"system":"http://snomed.info/sct","version":"2025-09","code":"120041000119109","display":"Atrial fibrillation with rapid ventricular response (disorder)","userSelected":true}]},"subject":{"reference":"Patient/0d48b3b3-c5f0-4955-810d-eb4f1b8714ca"},"recordedDate":"2026-10-20T08:00:00.000+00:00"},"request":{"method":"PUT","url":"Condition/08a03815-609a-45fd-9263-578945da06bc"}},{"fullUrl":"https://madie.cms.gov/Organization/82d89b4b-7135-4090-b7c2-39e3052b941d","resource":{"resourceType":"Organization","id":"607fdef9-3983-4cef-ab1a-95434d29b463","meta":{"profile":["http://hl7.org/fhir/us/qicore/StructureDefinition/qicore-organization"]},"identifier":[{"use":"temp","system":"urn:oid:2.16.840.1.113883.4.4","value":"21-3259825"}],"active":true,"type":[{"coding":[{"system":"http://terminology.hl7.org/CodeSystem/organization-type","code":"pay","display":"Payer"}]}],"name":"Blue Cross Blue Shield of Texas","telecom":[{"system":"phone","value":"(+1) 972-766-6900"}],"address":[{"use":"billing","type":"postal","line":["P.O. Box 660044"],"city":"Dallas","state":"TX","postalCode":"75266-0044","country":"USA"}]},"request":{"method":"PUT","url":"Organization/607fdef9-3983-4cef-ab1a-95434d29b463"}},{"fullUrl":"https://madie.cms.gov/Practitioner/2de33c0e-c191-474d-9a4e-cee6cb8b9efd","resource":{"resourceType":"Practitioner","id":"2de33c0e-c191-474d-9a4e-cee6cb8b9efd","identifier":[{"system":"http://hl7.org/fhir/sid/us-npi","value":"123456"}],"name":[{"family":"Evil","prefix":["Dr"]}]},"request":{"method":"PUT","url":"Practitioner/2de33c0e-c191-474d-9a4e-cee6cb8b9efd"}},{"fullUrl":"https://madie.cms.gov/MeasureReport/8f3eed53-1222-480f-957f-ecddef544ae2","resource":{"resourceType":"MeasureReport","id":"8f3eed53-1222-480f-957f-ecddef544ae2","meta":{"profile":["http://hl7.org/fhir/us/cqfmeasures/StructureDefinition/test-case-cqfm"]},"contained":[{"resourceType":"Parameters","id":"8e7e5454-2449-45ce-a166-99b9e3932756-parameters","parameter":[{"name":"subject","valueString":"0d48b3b3-c5f0-4955-810d-eb4f1b8714ca"}]}],"extension":[{"url":"http://hl7.org/fhir/us/cqfmeasures/StructureDefinition/cqfm-inputParameters","valueReference":{"reference":"#8e7e5454-2449-45ce-a166-99b9e3932756-parameters"}},{"url":"http://hl7.org/fhir/us/cqfmeasures/StructureDefinition/cqfm-testCaseDescription","valueMarkdown":"Oral factor Xa administered 1 min after ICU.start, Enc Dx of atrial fibrillation.\n"}],"modifierExtension":[{"url":"http://hl7.org/fhir/us/cqfmeasures/StructureDefinition/cqfm-isTestCase","valueBoolean":true}],"status":"complete","type":"individual","measure":"https://madie.cms.gov/Measure/CMS190VTEProphylaxisICUFHIR","period":{"start":"2026-01-01","end":"2026-12-31"},"group":[{"population":[{"code":{"coding":[{"system":"http://terminology.hl7.org/CodeSystem/measure-population","code":"initial-population","display":"Initial Population"}]},"count":1},{"code":{"coding":[{"system":"http://terminology.hl7.org/CodeSystem/measure-population","code":"denominator","display":"Denominator"}]},"count":1},{"code":{"coding":[{"system":"http://terminology.hl7.org/CodeSystem/measure-population","code":"denominator-exclusion","display":"Denominator Exclusion"}]},"count":0},{"code":{"coding":[{"system":"http://terminology.hl7.org/CodeSystem/measure-population","code":"numerator","display":"Numerator"}]},"count":1},{"code":{"coding":[{"system":"http://terminology.hl7.org/CodeSystem/measure-population","code":"denominator-exception","display":"Denominator Exception"}]},"count":0}]}]},"request":{"method":"PUT","url":"MeasureReport/8f3eed53-1222-480f-957f-ecddef544ae2"}}]}