{"resourceType":"Bundle","id":"tests-208cb0f9-a6e9-4207-b6a4-3325fb463099-bundle","type":"transaction","entry":[{"fullUrl":"https://madie.cms.gov/Patient/208cb0f9-a6e9-4207-b6a4-3325fb463099","resource":{"resourceType":"Patient","id":"208cb0f9-a6e9-4207-b6a4-3325fb463099","meta":{"profile":["http://hl7.org/fhir/us/qicore/StructureDefinition/qicore-patient"]},"text":{"status":"generated","div":"<div xmlns=\"http://www.w3.org/1999/xhtml\"><div class=\"hapiHeaderText\">MedReasonMAWarfDOIPCDayOfAnes <b>NUMERPASS </b></div><table class=\"hapiPropertyTable\"><tbody><tr><td>Identifier</td><td>7b1692125190d12df658f3578aa84ca8</td></tr><tr><td>Date of birth</td><td><span>02 January 1974</span></td></tr></tbody></table></div>"},"extension":[{"url":"http://hl7.org/fhir/us/core/StructureDefinition/us-core-race","extension":[{"url":"ombCategory","valueCoding":{"system":"urn:oid:2.16.840.1.113883.6.238","code":"1002-5","display":"American Indian or Alaska Native","userSelected":true}},{"url":"text","valueString":"American Indian or Alaska Native"}]},{"url":"http://hl7.org/fhir/us/core/StructureDefinition/us-core-ethnicity","extension":[{"url":"ombCategory","valueCoding":{"system":"urn:oid:2.16.840.1.113883.6.238","code":"2135-2","display":"Hispanic or Latino","userSelected":true}},{"url":"text","valueString":"Hispanic or Latino"}]}],"identifier":[{"type":{"coding":[{"system":"http://terminology.hl7.org/CodeSystem/v2-0203","code":"MR"}]},"system":"https://bonnie-fhir.healthit.gov/","value":"612e6a9402c62a011f2ea747"}],"active":true,"name":[{"use":"usual","family":"NUMERPass","given":["MedReasonMAWarfDOIPCDayOfAnes"]}],"gender":"male","birthDate":"1975-01-02"},"request":{"method":"PUT","url":"Patient/208cb0f9-a6e9-4207-b6a4-3325fb463099"}},{"fullUrl":"https://madie.cms.gov/Encounter/da535d25-65e9-4336-a329-c17b6752772c","resource":{"resourceType":"Encounter","id":"da535d25-65e9-4336-a329-c17b6752772c","meta":{"profile":["http://hl7.org/fhir/us/qicore/StructureDefinition/qicore-encounter"]},"status":"finished","class":{"system":"http://terminology.hl7.org/CodeSystem/v3-ActCode","code":"IMP","display":"inpatient encounter"},"type":[{"coding":[{"system":"http://snomed.info/sct","code":"8715000"}]}],"subject":{"reference":"Patient/208cb0f9-a6e9-4207-b6a4-3325fb463099"},"period":{"start":"2026-11-01T08:00:00+00:00","end":"2026-11-26T08:15:00+00:00"},"length":{"value":25.0,"unit":"days"},"location":[{"location":{"reference":"Location/540266d2-e82c-4a11-aee1-8b3f44c31c69"},"period":{"start":"2026-11-01T09:00:00.000+00:00","end":"2026-11-02T08:15:00.000+00:00"}}]},"request":{"method":"PUT","url":"Encounter/da535d25-65e9-4336-a329-c17b6752772c"}},{"fullUrl":"https://madie.cms.gov/Coverage/cdca8d74-fabd-4b7b-ad06-320f999497a7","resource":{"resourceType":"Coverage","id":"cdca8d74-fabd-4b7b-ad06-320f999497a7","status":"active","beneficiary":{"reference":"Patient/208cb0f9-a6e9-4207-b6a4-3325fb463099"},"period":{"start":"1975-01-02T08:00:00+00:00"},"payor":[{"reference":"Organization/5ad6ea38-07e9-4482-9e1b-c09eee595be9"}]},"request":{"method":"PUT","url":"Coverage/cdca8d74-fabd-4b7b-ad06-320f999497a7"}},{"fullUrl":"https://madie.cms.gov/MedicationAdministration/752e2e28-35d8-4f4d-b5a9-12600e7697f9","resource":{"resourceType":"MedicationAdministration","id":"752e2e28-35d8-4f4d-b5a9-12600e7697f9","meta":{"profile":["http://hl7.org/fhir/us/qicore/StructureDefinition/qicore-mednotadministered"]},"extension":[{"url":"http://hl7.org/fhir/us/qicore/StructureDefinition/qicore-recorded","valueDateTime":"2026-11-02T11:00:00+00:00"}],"status":"not-done","statusReason":[{"coding":[{"system":"http://snomed.info/sct","code":"183932001"}]}],"medicationCodeableConcept":{"coding":[{"system":"http://www.nlm.nih.gov/research/umls/rxnorm","code":"855288"}]},"subject":{"reference":"Patient/208cb0f9-a6e9-4207-b6a4-3325fb463099"},"effectivePeriod":{"start":"2026-11-02T11:00:00+00:00"}},"request":{"method":"PUT","url":"MedicationAdministration/752e2e28-35d8-4f4d-b5a9-12600e7697f9"}},{"fullUrl":"https://madie.cms.gov/Procedure/4a6596f7-170c-4f15-a6fc-24e6bb7d4a72","resource":{"resourceType":"Procedure","id":"4a6596f7-170c-4f15-a6fc-24e6bb7d4a72","meta":{"profile":["http://hl7.org/fhir/us/qicore/StructureDefinition/qicore-procedure"]},"extension":[{"url":"http://hl7.org/fhir/us/qicore/StructureDefinition/qicore-recorded","valueDateTime":"2013-11-02T09:35:00-04:00"}],"status":"completed","code":{"coding":[{"system":"http://snomed.info/sct","code":"18946005"}]},"subject":{"reference":"Patient/208cb0f9-a6e9-4207-b6a4-3325fb463099"},"performedPeriod":{"start":"2026-11-02T09:00:00+00:00","end":"2026-11-02T09:15:00+00:00"}},"request":{"method":"PUT","url":"Procedure/4a6596f7-170c-4f15-a6fc-24e6bb7d4a72"}},{"fullUrl":"https://madie.cms.gov/ServiceRequest/e5251660-f6cf-48e9-b81a-7fe08f819b1f","resource":{"resourceType":"ServiceRequest","id":"e5251660-f6cf-48e9-b81a-7fe08f819b1f","meta":{"profile":["http://hl7.org/fhir/us/qicore/StructureDefinition/qicore-servicenotrequested"]},"extension":[{"url":"http://hl7.org/fhir/us/qicore/StructureDefinition/qicore-doNotPerformReason","valueCodeableConcept":{"coding":[{"system":"http://snomed.info/sct","code":"183932001","display":"Procedure contraindicated (situation)"}]}}],"status":"completed","intent":"order","doNotPerform":true,"code":{"coding":[{"system":"http://snomed.info/sct","version":"2025-03","code":"428411000124104","display":"Intermittent pneumatic compression boot (physical object)","userSelected":true}]},"subject":{"reference":"Patient/208cb0f9-a6e9-4207-b6a4-3325fb463099"},"authoredOn":"2026-11-02T10:00:00.000+00:00"},"request":{"method":"PUT","url":"ServiceRequest/e5251660-f6cf-48e9-b81a-7fe08f819b1f"}},{"fullUrl":"https://madie.cms.gov/Location/540266d2-e82c-4a11-aee1-8b3f44c31c69","resource":{"resourceType":"Location","id":"540266d2-e82c-4a11-aee1-8b3f44c31c69","meta":{"profile":["http://hl7.org/fhir/us/qicore/StructureDefinition/qicore-location"]},"identifier":[{"use":"usual","system":"http://exampleoflocation.com","value":"B1-S.F2"}],"name":"Medical Surgical East, first floor","type":[{"coding":[{"system":"https://www.cdc.gov/nhsn/cdaportal/terminology/codesystem/hsloc.html","code":"1025-6","display":"Trauma Critical Care","userSelected":true}]}]},"request":{"method":"PUT","url":"Location/540266d2-e82c-4a11-aee1-8b3f44c31c69"}},{"fullUrl":"https://madie.cms.gov/Organization/8d0d535a-f2e6-4185-888b-311279bebbdb","resource":{"resourceType":"Organization","id":"5ad6ea38-07e9-4482-9e1b-c09eee595be9","meta":{"profile":["http://hl7.org/fhir/us/qicore/StructureDefinition/qicore-organization"]},"identifier":[{"use":"temp","system":"urn:oid:2.16.840.1.113883.4.4","value":"21-3259825"}],"active":true,"type":[{"coding":[{"system":"http://terminology.hl7.org/CodeSystem/organization-type","code":"pay","display":"Payer"}]}],"name":"Blue Cross Blue Shield of Texas","telecom":[{"system":"phone","value":"(+1) 972-766-6900"}],"address":[{"use":"billing","type":"postal","line":["P.O. Box 660044"],"city":"Dallas","state":"TX","postalCode":"75266-0044","country":"USA"}]},"request":{"method":"PUT","url":"Organization/5ad6ea38-07e9-4482-9e1b-c09eee595be9"}},{"fullUrl":"https://madie.cms.gov/Practitioner/97b95081-d85c-437c-897b-d6f1686a8c6f","resource":{"resourceType":"Practitioner","id":"97b95081-d85c-437c-897b-d6f1686a8c6f","identifier":[{"system":"http://hl7.org/fhir/sid/us-npi","value":"123456"}],"name":[{"family":"Evil","prefix":["Dr"]}]},"request":{"method":"PUT","url":"Practitioner/97b95081-d85c-437c-897b-d6f1686a8c6f"}},{"fullUrl":"https://madie.cms.gov/MeasureReport/4d9fffa4-6c76-41e1-bcd1-ad8f0c167ced","resource":{"resourceType":"MeasureReport","id":"4d9fffa4-6c76-41e1-bcd1-ad8f0c167ced","meta":{"profile":["http://hl7.org/fhir/us/cqfmeasures/StructureDefinition/test-case-cqfm"]},"contained":[{"resourceType":"Parameters","id":"6fd1c978-814b-49c9-8c8d-d5fbac37d95f-parameters","parameter":[{"name":"subject","valueString":"208cb0f9-a6e9-4207-b6a4-3325fb463099"}]}],"extension":[{"url":"http://hl7.org/fhir/us/cqfmeasures/StructureDefinition/cqfm-inputParameters","valueReference":{"reference":"#6fd1c978-814b-49c9-8c8d-d5fbac37d95f-parameters"}},{"url":"http://hl7.org/fhir/us/cqfmeasures/StructureDefinition/cqfm-testCaseDescription","valueMarkdown":"meets IPP, meets Denominator, IPC ordered not done  and Warfarin adm not done medical reason on the day of Anes\n"}],"modifierExtension":[{"url":"http://hl7.org/fhir/us/cqfmeasures/StructureDefinition/cqfm-isTestCase","valueBoolean":true}],"status":"complete","type":"individual","measure":"https://madie.cms.gov/Measure/CMS190VTEProphylaxisICUFHIR","period":{"start":"2026-01-01","end":"2026-12-31"},"group":[{"population":[{"code":{"coding":[{"system":"http://terminology.hl7.org/CodeSystem/measure-population","code":"initial-population","display":"Initial Population"}]},"count":1},{"code":{"coding":[{"system":"http://terminology.hl7.org/CodeSystem/measure-population","code":"denominator","display":"Denominator"}]},"count":1},{"code":{"coding":[{"system":"http://terminology.hl7.org/CodeSystem/measure-population","code":"denominator-exclusion","display":"Denominator Exclusion"}]},"count":0},{"code":{"coding":[{"system":"http://terminology.hl7.org/CodeSystem/measure-population","code":"numerator","display":"Numerator"}]},"count":1},{"code":{"coding":[{"system":"http://terminology.hl7.org/CodeSystem/measure-population","code":"denominator-exception","display":"Denominator Exception"}]},"count":0}]}]},"request":{"method":"PUT","url":"MeasureReport/4d9fffa4-6c76-41e1-bcd1-ad8f0c167ced"}}]}