{
  "resourceType": "Bundle",
  "id": "tests-NUMERPass-Num3EncWithExtubationGT48Hrs-bundle",
  "type": "transaction",
  "entry": [ {
    "fullUrl": "https://madie.cms.gov/Encounter/80587795-2040-4908-ad47-90c39803d5b0",
    "resource": {
      "resourceType": "Encounter",
      "id": "80587795-2040-4908-ad47-90c39803d5b0",
      "meta": {
        "profile": [ "http://hl7.org/fhir/us/qicore/StructureDefinition/qicore-encounter" ]
      },
      "status": "finished",
      "class": {
        "system": "http://terminology.hl7.org/CodeSystem/v3-ActCode",
        "code": "IMP",
        "display": "inpatient encounter"
      },
      "type": [ {
        "coding": [ {
          "system": "http://snomed.info/sct",
          "code": "112689000",
          "display": "Hospital admission, elective, with complete pre-admission work-up"
        } ],
        "text": "Hospital admission, elective, with complete pre-admission work-up"
      } ],
      "priority": {
        "coding": [ {
          "system": "http://snomed.info/sct",
          "code": "103390000"
        } ]
      },
      "subject": {
        "reference": "Patient/0ef36c93-9547-4238-a59e-3f7c2fa37293"
      },
      "period": {
        "start": "2026-04-10T08:00:00+00:00",
        "end": "2026-04-14T08:15:00+00:00"
      }
    },
    "request": {
      "method": "PUT",
      "url": "Encounter/80587795-2040-4908-ad47-90c39803d5b0"
    }
  }, {
    "fullUrl": "https://madie.cms.gov/Patient/0ef36c93-9547-4238-a59e-3f7c2fa37293",
    "resource": {
      "resourceType": "Patient",
      "id": "0ef36c93-9547-4238-a59e-3f7c2fa37293",
      "meta": {
        "profile": [ "http://hl7.org/fhir/us/qicore/StructureDefinition/qicore-patient" ]
      },
      "extension": [ {
        "url": "http://hl7.org/fhir/us/core/StructureDefinition/us-core-race",
        "extension": [ {
          "url": "ombCategory",
          "valueCoding": {
            "system": "urn:oid:2.16.840.1.113883.6.238",
            "code": "2054-5",
            "display": "Black or African American",
            "userSelected": true
          }
        }, {
          "url": "text",
          "valueString": "Black or African American"
        } ]
      }, {
        "url": "http://hl7.org/fhir/us/core/StructureDefinition/us-core-ethnicity",
        "extension": [ {
          "url": "ombCategory",
          "valueCoding": {
            "system": "urn:oid:2.16.840.1.113883.6.238",
            "code": "2186-5",
            "display": "Not Hispanic or Latino",
            "userSelected": true
          }
        }, {
          "url": "text",
          "valueString": "Not Hispanic or Latino"
        } ]
      } ],
      "identifier": [ {
        "type": {
          "coding": [ {
            "system": "http://terminology.hl7.org/CodeSystem/v2-0203",
            "code": "MR"
          } ]
        },
        "system": "https://bonnie-fhir.healthit.gov/",
        "value": "61152a3b98086b7a79cbd7c1"
      } ],
      "active": true,
      "name": [ {
        "use": "usual",
        "family": "NUMERPass",
        "given": [ "Num3EncWithExtubationGT48Hrs" ]
      } ],
      "gender": "female",
      "birthDate": "1966-07-12"
    },
    "request": {
      "method": "PUT",
      "url": "Patient/0ef36c93-9547-4238-a59e-3f7c2fa37293"
    }
  }, {
    "fullUrl": "https://madie.cms.gov/Procedure/cf864caa-ac87-42e9-b86e-93a70f92f40f",
    "resource": {
      "resourceType": "Procedure",
      "id": "cf864caa-ac87-42e9-b86e-93a70f92f40f",
      "meta": {
        "profile": [ "http://hl7.org/fhir/us/qicore/StructureDefinition/qicore-procedure" ]
      },
      "extension": [ {
        "url": "http://hl7.org/fhir/us/qicore/StructureDefinition/qicore-recorded",
        "valueDateTime": "2026-04-11T10:20:00+00:00"
      } ],
      "status": "completed",
      "category": {
        "coding": [ {
          "system": "http://snomed.info/sct",
          "code": "18286008",
          "display": "General or neuraxial anesthesia"
        } ]
      },
      "code": {
        "coding": [ {
          "system": "http://snomed.info/sct",
          "code": "112943005",
          "display": "Epidural injection of anesthetic substance,  diagnostic, caudal, continuous"
        } ]
      },
      "subject": {
        "reference": "Patient/0ef36c93-9547-4238-a59e-3f7c2fa37293"
      },
      "performedPeriod": {
        "start": "2026-04-11T08:00:00+00:00",
        "end": "2026-04-11T10:15:00+00:00"
      }
    },
    "request": {
      "method": "PUT",
      "url": "Procedure/cf864caa-ac87-42e9-b86e-93a70f92f40f"
    }
  }, {
    "fullUrl": "https://madie.cms.gov/Procedure/54844642-f50b-4c72-9b63-39d4733db46e",
    "resource": {
      "resourceType": "Procedure",
      "id": "54844642-f50b-4c72-9b63-39d4733db46e",
      "meta": {
        "profile": [ "http://hl7.org/fhir/us/qicore/StructureDefinition/qicore-procedure" ]
      },
      "extension": [ {
        "url": "http://hl7.org/fhir/us/qicore/StructureDefinition/qicore-recorded",
        "valueDateTime": "2026-04-21T12:00:00+00:00"
      } ],
      "status": "completed",
      "code": {
        "coding": [ {
          "system": "http://snomed.info/sct",
          "code": "271280005",
          "display": "Removal of endotracheal tube (procedure)"
        } ],
        "text": "Removal of endotracheal tube (procedure)"
      },
      "subject": {
        "reference": "Patient/0ef36c93-9547-4238-a59e-3f7c2fa37293"
      },
      "performedDateTime": "2026-04-13T11:00:00+00:00"
    },
    "request": {
      "method": "PUT",
      "url": "Procedure/54844642-f50b-4c72-9b63-39d4733db46e"
    }
  }, {
    "fullUrl": "https://madie.cms.gov/MeasureReport/ff88142d-4432-4209-b7bf-7dcba311ac6c",
    "resource": {
      "resourceType": "MeasureReport",
      "id": "ff88142d-4432-4209-b7bf-7dcba311ac6c",
      "meta": {
        "profile": [ "http://hl7.org/fhir/us/cqfmeasures/StructureDefinition/test-case-cqfm" ]
      },
      "contained": [ {
        "resourceType": "Parameters",
        "id": "19604cfa-6dc3-4e9d-91cd-915c776e8d23-parameters",
        "parameter": [ {
          "name": "subject",
          "valueString": "0ef36c93-9547-4238-a59e-3f7c2fa37293"
        } ]
      } ],
      "extension": [ {
        "url": "http://hl7.org/fhir/us/cqfmeasures/StructureDefinition/cqfm-inputParameters",
        "valueReference": {
          "reference": "#19604cfa-6dc3-4e9d-91cd-915c776e8d23-parameters"
        }
      }, {
        "url": "http://hl7.org/fhir/us/cqfmeasures/StructureDefinition/cqfm-testCaseDescription",
        "valueMarkdown": "Elective hospitalization with procedure (general anesthesia) within first 3 days of encounter. Extub >48 hrs after proc, no oxygen preceding. Meets Num3"
      } ],
      "modifierExtension": [ {
        "url": "http://hl7.org/fhir/us/cqfmeasures/StructureDefinition/cqfm-isTestCase",
        "valueBoolean": true
      } ],
      "status": "complete",
      "type": "individual",
      "measure": "https://madie.cms.gov/Measure/CMS1218HHRFFHIR",
      "period": {
        "start": "2026-01-01",
        "end": "2026-12-31"
      },
      "group": [ {
        "population": [ {
          "code": {
            "coding": [ {
              "system": "http://terminology.hl7.org/CodeSystem/measure-population",
              "code": "initial-population",
              "display": "Initial Population"
            } ]
          },
          "count": 1
        }, {
          "code": {
            "coding": [ {
              "system": "http://terminology.hl7.org/CodeSystem/measure-population",
              "code": "denominator",
              "display": "Denominator"
            } ]
          },
          "count": 1
        }, {
          "code": {
            "coding": [ {
              "system": "http://terminology.hl7.org/CodeSystem/measure-population",
              "code": "denominator-exclusion",
              "display": "Denominator Exclusion"
            } ]
          },
          "count": 0
        }, {
          "code": {
            "coding": [ {
              "system": "http://terminology.hl7.org/CodeSystem/measure-population",
              "code": "numerator",
              "display": "Numerator"
            } ]
          },
          "count": 1
        } ]
      } ],
      "evaluatedResource": [ {
        "reference": "Encounter/80587795-2040-4908-ad47-90c39803d5b0"
      }, {
        "reference": "Patient/0ef36c93-9547-4238-a59e-3f7c2fa37293"
      }, {
        "reference": "Procedure/cf864caa-ac87-42e9-b86e-93a70f92f40f"
      }, {
        "reference": "Procedure/54844642-f50b-4c72-9b63-39d4733db46e"
      } ]
    },
    "request": {
      "method": "PUT",
      "url": "MeasureReport/ff88142d-4432-4209-b7bf-7dcba311ac6c"
    }
  } ]
}