{"resourceType":"Bundle","id":"tests-7bdb16f0-8b33-4a95-b990-8a96f9d4ab53-bundle","type":"transaction","entry":[{"fullUrl":"https://madie.cms.gov/Patient/7bdb16f0-8b33-4a95-b990-8a96f9d4ab53","resource":{"resourceType":"Patient","id":"7bdb16f0-8b33-4a95-b990-8a96f9d4ab53","meta":{"profile":["http://hl7.org/fhir/us/qicore/StructureDefinition/qicore-patient"]},"extension":[{"url":"http://hl7.org/fhir/us/core/StructureDefinition/us-core-race","extension":[{"url":"ombCategory","valueCoding":{"system":"urn:oid:2.16.840.1.113883.6.238","code":"2028-9","display":"Asian"}},{"url":"text","valueString":"Asian"}]},{"url":"http://hl7.org/fhir/us/core/StructureDefinition/us-core-ethnicity","extension":[{"url":"ombCategory","valueCoding":{"system":"urn:oid:2.16.840.1.113883.6.238","code":"2186-5","display":"Non Hispanic or Latino"}},{"url":"text","valueString":"Non Hispanic or Latino"}]}],"identifier":[{"type":{"coding":[{"system":"http://terminology.hl7.org/CodeSystem/v2-0203","code":"MR"}]},"system":"https://bonnie-fhir.healthit.gov/","value":"41654161684974312"}],"name":[{"family":"IPFail","given":["OVHasNoStartDt"]}],"gender":"male","birthDate":"1973-04-12"},"request":{"method":"PUT","url":"Patient/7bdb16f0-8b33-4a95-b990-8a96f9d4ab53"}},{"fullUrl":"https://madie.cms.gov/Encounter/enc-4654645","resource":{"resourceType":"Encounter","id":"enc-4654645","meta":{"profile":["http://hl7.org/fhir/us/qicore/StructureDefinition/qicore-encounter"]},"status":"finished","class":{"system":"http://terminology.hl7.org/CodeSystem/v3-ActCode","code":"AMB","display":"ambulatory"},"type":[{"coding":[{"system":"http://www.ama-assn.org/go/cpt","version":"2023","code":"99212"}]}],"subject":{"reference":"Patient/7bdb16f0-8b33-4a95-b990-8a96f9d4ab53"},"period":{"start":"2025-02-01T09:30:00.000+00:00"}},"request":{"method":"PUT","url":"Encounter/enc-4654645"}},{"fullUrl":"https://madie.cms.gov/Condition/con-1321344","resource":{"resourceType":"Condition","id":"con-1321344","meta":{"profile":["http://hl7.org/fhir/us/qicore/StructureDefinition/qicore-condition"]},"clinicalStatus":{"coding":[{"system":"http://terminology.hl7.org/CodeSystem/condition-clinical","code":"active","display":"active"}]},"verificationStatus":{"coding":[{"system":"http://terminology.hl7.org/CodeSystem/condition-ver-status","code":"confirmed","display":"Confirmed"}]},"category":[{"coding":[{"system":"http://terminology.hl7.org/CodeSystem/condition-category","code":"problem-list-item","display":"Problem List Item"}]}],"code":{"coding":[{"system":"http://hl7.org/fhir/sid/icd-10-cm","version":"2022","code":"N40.1","display":"Benign prostatic hyperplasia with lower urinary tract symptoms"}]},"subject":{"reference":"Patient/7bdb16f0-8b33-4a95-b990-8a96f9d4ab53"},"onsetPeriod":{"start":"2024-09-01T08:00:00.000+00:00"}},"request":{"method":"PUT","url":"Condition/con-1321344"}},{"fullUrl":"https://madie.cms.gov/Observation/obs-4645313","resource":{"resourceType":"Observation","id":"obs-4645313","meta":{"profile":["http://hl7.org/fhir/us/qicore/StructureDefinition/qicore-observation"]},"status":"final","category":[{"coding":[{"system":"http://terminology.hl7.org/CodeSystem/observation-category","code":"survey","display":"Survey"}]}],"code":{"coding":[{"system":"http://loinc.org","version":"2.73","code":"80976-4","display":"International Prostate Symptom Score [IPSS]"}]},"subject":{"reference":"Patient/7bdb16f0-8b33-4a95-b990-8a96f9d4ab53"},"effectiveDateTime":"2024-10-01T08:00:00.000+00:00","valueInteger":2},"request":{"method":"PUT","url":"Observation/obs-4645313"}},{"fullUrl":"https://madie.cms.gov/Observation/obs-65464646","resource":{"resourceType":"Observation","id":"obs-65464646","meta":{"profile":["http://hl7.org/fhir/us/qicore/StructureDefinition/qicore-observation"]},"status":"final","category":[{"coding":[{"system":"http://terminology.hl7.org/CodeSystem/observation-category","code":"survey","display":"Survey"}]}],"code":{"coding":[{"system":"http://loinc.org","version":"2.73","code":"80976-4","display":"International Prostate Symptom Score [IPSS]"}]},"subject":{"reference":"Patient/7bdb16f0-8b33-4a95-b990-8a96f9d4ab53"},"effectiveDateTime":"2025-07-01T08:00:00.000+00:00","valueInteger":2},"request":{"method":"PUT","url":"Observation/obs-65464646"}},{"fullUrl":"https://madie.cms.gov/MeasureReport/edcdfadc-567a-4a53-bb1c-1613bf000af3","resource":{"resourceType":"MeasureReport","id":"edcdfadc-567a-4a53-bb1c-1613bf000af3","meta":{"profile":["http://hl7.org/fhir/us/cqfmeasures/StructureDefinition/test-case-cqfm"]},"contained":[{"resourceType":"Parameters","id":"5ae76e51-7319-48d5-ac4d-258b022eb879-parameters","parameter":[{"name":"subject","valueString":"7bdb16f0-8b33-4a95-b990-8a96f9d4ab53"}]}],"extension":[{"url":"http://hl7.org/fhir/us/cqfmeasures/StructureDefinition/cqfm-inputParameters","valueReference":{"reference":"#5ae76e51-7319-48d5-ac4d-258b022eb879-parameters"}},{"url":"http://hl7.org/fhir/us/cqfmeasures/StructureDefinition/cqfm-testCaseDescription","valueMarkdown":"Patient with BPH Dx, Initial and Followup USS and Office Visit with no End Date"}],"modifierExtension":[{"url":"http://hl7.org/fhir/us/cqfmeasures/StructureDefinition/cqfm-isTestCase","valueBoolean":true}],"status":"complete","type":"individual","measure":"https://madie.cms.gov/Measure/UrinarySymptomScoreChangeAfterBenignProstaticHyperplasiaFHIR","period":{"start":"2025-01-01","end":"2025-12-31"},"group":[{"population":[{"code":{"coding":[{"system":"http://terminology.hl7.org/CodeSystem/measure-population","code":"initial-population","display":"Initial Population"}]},"count":0},{"code":{"coding":[{"system":"http://terminology.hl7.org/CodeSystem/measure-population","code":"denominator","display":"Denominator"}]},"count":0},{"code":{"coding":[{"system":"http://terminology.hl7.org/CodeSystem/measure-population","code":"denominator-exclusion","display":"Denominator Exclusion"}]},"count":0},{"code":{"coding":[{"system":"http://terminology.hl7.org/CodeSystem/measure-population","code":"numerator","display":"Numerator"}]},"count":0}]}],"evaluatedResource":[{"reference":"Patient/7bdb16f0-8b33-4a95-b990-8a96f9d4ab53"},{"reference":"Encounter/enc-4654645"},{"reference":"Condition/con-1321344"},{"reference":"Observation/obs-4645313"},{"reference":"Observation/obs-65464646"}]},"request":{"method":"PUT","url":"MeasureReport/edcdfadc-567a-4a53-bb1c-1613bf000af3"}}]}