{"resourceType":"Bundle","id":"tests-dfe54ab6-e271-47e0-b8eb-5f74a8d08dce-bundle","type":"transaction","entry":[{"fullUrl":"https://madie.cms.gov/Patient/dfe54ab6-e271-47e0-b8eb-5f74a8d08dce","resource":{"resourceType":"Patient","id":"dfe54ab6-e271-47e0-b8eb-5f74a8d08dce","meta":{"profile":["http://hl7.org/fhir/us/qicore/StructureDefinition/qicore-patient"]},"extension":[{"url":"http://hl7.org/fhir/us/core/StructureDefinition/us-core-race","extension":[{"url":"ombCategory","valueCoding":{"system":"urn:oid:2.16.840.1.113883.6.238","code":"1002-5","display":"American Indian or Alaska Native"}},{"url":"text","valueString":"American Indian or Alaska Native"}]},{"url":"http://hl7.org/fhir/us/core/StructureDefinition/us-core-ethnicity","extension":[{"url":"ombCategory","valueCoding":{"system":"urn:oid:2.16.840.1.113883.6.238","code":"2135-2","display":"Hispanic or Latino"}},{"url":"text","valueString":"Hispanic or Latino"}]}],"identifier":[{"type":{"coding":[{"system":"http://terminology.hl7.org/CodeSystem/v2-0203","code":"MR"}]},"system":"https://bonnie-fhir.healthit.gov/","value":"8496163516541313"}],"active":true,"name":[{"use":"usual","family":"IPFail","given":["OV1DayBeforeMPEdge"]}],"gender":"male","birthDate":"1951-12-01"},"request":{"method":"PUT","url":"Patient/dfe54ab6-e271-47e0-b8eb-5f74a8d08dce"}},{"fullUrl":"https://madie.cms.gov/Encounter/5ca621f3b8484628b8ddb5f9","resource":{"resourceType":"Encounter","id":"5ca621f3b8484628b8ddb5f9","meta":{"profile":["http://hl7.org/fhir/us/qicore/StructureDefinition/qicore-encounter"]},"status":"finished","class":{"system":"http://terminology.hl7.org/CodeSystem/v3-ActCode","code":"AMB","display":"ambulatory"},"type":[{"coding":[{"system":"http://www.ama-assn.org/go/cpt","version":"2023","code":"99213"}]}],"subject":{"reference":"Patient/dfe54ab6-e271-47e0-b8eb-5f74a8d08dce"},"period":{"start":"2024-12-31T08:00:00+00:00","end":"2024-12-31T08:15:00+00:00"}},"request":{"method":"PUT","url":"Encounter/5ca621f3b8484628b8ddb5f9"}},{"fullUrl":"https://madie.cms.gov/MeasureReport/f6465b55-dc45-4863-b55e-3f4ff51af0f7","resource":{"resourceType":"MeasureReport","id":"f6465b55-dc45-4863-b55e-3f4ff51af0f7","meta":{"profile":["http://hl7.org/fhir/us/cqfmeasures/StructureDefinition/test-case-cqfm"]},"contained":[{"resourceType":"Parameters","id":"190d6cc8-3e60-4a61-aa1c-95c0a2abf4f8-parameters","parameter":[{"name":"subject","valueString":"dfe54ab6-e271-47e0-b8eb-5f74a8d08dce"}]}],"extension":[{"url":"http://hl7.org/fhir/us/cqfmeasures/StructureDefinition/cqfm-inputParameters","valueReference":{"reference":"#190d6cc8-3e60-4a61-aa1c-95c0a2abf4f8-parameters"}},{"url":"http://hl7.org/fhir/us/cqfmeasures/StructureDefinition/cqfm-testCaseDescription","valueMarkdown":"Male patient without BPH dx and without USS assessments and with office visit before MP."}],"modifierExtension":[{"url":"http://hl7.org/fhir/us/cqfmeasures/StructureDefinition/cqfm-isTestCase","valueBoolean":true}],"status":"complete","type":"individual","measure":"https://madie.cms.gov/Measure/UrinarySymptomScoreChangeAfterBenignProstaticHyperplasiaFHIR","period":{"start":"2025-01-01","end":"2025-12-31"},"group":[{"population":[{"code":{"coding":[{"system":"http://terminology.hl7.org/CodeSystem/measure-population","code":"initial-population","display":"Initial Population"}]},"count":0},{"code":{"coding":[{"system":"http://terminology.hl7.org/CodeSystem/measure-population","code":"denominator","display":"Denominator"}]},"count":0},{"code":{"coding":[{"system":"http://terminology.hl7.org/CodeSystem/measure-population","code":"denominator-exclusion","display":"Denominator Exclusion"}]},"count":0},{"code":{"coding":[{"system":"http://terminology.hl7.org/CodeSystem/measure-population","code":"numerator","display":"Numerator"}]},"count":0}]}],"evaluatedResource":[{"reference":"Patient/dfe54ab6-e271-47e0-b8eb-5f74a8d08dce"},{"reference":"Encounter/5ca621f3b8484628b8ddb5f9"}]},"request":{"method":"PUT","url":"MeasureReport/f6465b55-dc45-4863-b55e-3f4ff51af0f7"}}]}