{"resourceType":"Bundle","id":"tests-844dab9e-f34d-41dc-bd89-1440551471a6-bundle","type":"transaction","entry":[{"fullUrl":"https://madie.cms.gov/Patient/844dab9e-f34d-41dc-bd89-1440551471a6","resource":{"resourceType":"Patient","id":"844dab9e-f34d-41dc-bd89-1440551471a6","meta":{"profile":["http://hl7.org/fhir/us/qicore/StructureDefinition/qicore-patient"]},"extension":[{"url":"http://hl7.org/fhir/us/core/StructureDefinition/us-core-race","extension":[{"url":"ombCategory","valueCoding":{"system":"urn:oid:2.16.840.1.113883.6.238","code":"2106-3","display":"White"}},{"url":"text","valueString":"White"}]},{"url":"http://hl7.org/fhir/us/core/StructureDefinition/us-core-ethnicity","extension":[{"url":"ombCategory","valueCoding":{"system":"urn:oid:2.16.840.1.113883.6.238","code":"2186-5","display":"Non Hispanic or Latino"}},{"url":"text","valueString":"Non Hispanic or Latino"}]}],"identifier":[{"type":{"coding":[{"system":"http://terminology.hl7.org/CodeSystem/v2-0203","code":"MR"}]},"system":"https://myGoodHealthcare.com/","value":"4851351681610651"}],"name":[{"family":"IPPass","given":["BPHdxGT6MoB4StartofMP"]}],"gender":"male","birthDate":"1970-06-01"},"request":{"method":"PUT","url":"Patient/844dab9e-f34d-41dc-bd89-1440551471a6"}},{"fullUrl":"https://madie.cms.gov/Encounter/enc-635431","resource":{"resourceType":"Encounter","id":"635431","meta":{"profile":["http://hl7.org/fhir/us/qicore/StructureDefinition/qicore-encounter"]},"status":"finished","class":{"system":"http://terminology.hl7.org/CodeSystem/v3-ActCode","code":"AMB","display":"ambulatory"},"type":[{"coding":[{"system":"http://snomed.info/sct","version":"http://snomed.info/sct/731000124108/version/202303","code":"185463005","display":"Visit out of hours (procedure)"}]}],"subject":{"reference":"Patient/844dab9e-f34d-41dc-bd89-1440551471a6"},"period":{"start":"2025-02-12T08:00:00.000+00:00","end":"2025-02-12T08:15:00.000+00:00"}},"request":{"method":"PUT","url":"Encounter/635431"}},{"fullUrl":"https://madie.cms.gov/Condition/con-65461530","resource":{"resourceType":"Condition","id":"65461530","meta":{"profile":["http://hl7.org/fhir/us/qicore/StructureDefinition/qicore-condition"]},"clinicalStatus":{"coding":[{"system":"http://terminology.hl7.org/CodeSystem/condition-clinical","code":"active","display":"active"}]},"verificationStatus":{"coding":[{"system":"http://terminology.hl7.org/CodeSystem/condition-ver-status","code":"confirmed","display":"Confirmed"}]},"category":[{"coding":[{"system":"http://terminology.hl7.org/CodeSystem/condition-category","code":"encounter-diagnosis","display":"Encounter Diagnosis"}]}],"code":{"coding":[{"system":"http://hl7.org/fhir/sid/icd-10-cm","version":"2022","code":"N40.1","display":"Benign prostatic hyperplasia with lower urinary tract symptoms"}]},"subject":{"reference":"Patient/844dab9e-f34d-41dc-bd89-1440551471a6"},"onsetPeriod":{"start":"2024-01-15T08:00:00.000+00:00"}},"request":{"method":"PUT","url":"Condition/65461530"}},{"fullUrl":"https://madie.cms.gov/Condition/con-65461532","resource":{"resourceType":"Condition","id":"65461532","meta":{"profile":["http://hl7.org/fhir/us/qicore/StructureDefinition/qicore-condition"]},"clinicalStatus":{"coding":[{"system":"http://terminology.hl7.org/CodeSystem/condition-clinical","code":"active","display":"active"}]},"verificationStatus":{"coding":[{"system":"http://terminology.hl7.org/CodeSystem/condition-ver-status","code":"confirmed","display":"Confirmed"}]},"category":[{"coding":[{"system":"http://terminology.hl7.org/CodeSystem/condition-category","code":"encounter-diagnosis","display":"Encounter Diagnosis"}]}],"code":{"coding":[{"system":"http://hl7.org/fhir/sid/icd-10-cm","version":"2022","code":"N40.1","display":"Benign prostatic hyperplasia with lower urinary tract symptoms"}]},"subject":{"reference":"Patient/844dab9e-f34d-41dc-bd89-1440551471a6"},"onsetPeriod":{"start":"2024-12-12T08:00:00.000+00:00"}},"request":{"method":"PUT","url":"Condition/65461532"}},{"fullUrl":"https://madie.cms.gov/Observation/obs-6845654","resource":{"resourceType":"Observation","id":"6845654","meta":{"profile":["http://hl7.org/fhir/us/qicore/StructureDefinition/qicore-observation"]},"status":"final","category":[{"coding":[{"system":"http://terminology.hl7.org/CodeSystem/observation-category","code":"survey","display":"Survey"}]}],"code":{"coding":[{"system":"http://loinc.org","version":"2.73","code":"80976-4","display":"International Prostate Symptom Score [IPSS]"}]},"subject":{"reference":"Patient/844dab9e-f34d-41dc-bd89-1440551471a6"},"effectiveDateTime":"2025-12-11T08:00:00.000+00:00","valueInteger":5},"request":{"method":"PUT","url":"Observation/6845654"}},{"fullUrl":"https://madie.cms.gov/Observation/obs-132135","resource":{"resourceType":"Observation","id":"132135","meta":{"profile":["http://hl7.org/fhir/us/qicore/StructureDefinition/qicore-observation"]},"status":"final","category":[{"coding":[{"system":"http://terminology.hl7.org/CodeSystem/observation-category","code":"survey","display":"Survey"}]}],"code":{"coding":[{"system":"http://loinc.org","version":"2.73","code":"80976-4","display":"International Prostate Symptom Score [IPSS]"}]},"subject":{"reference":"Patient/844dab9e-f34d-41dc-bd89-1440551471a6"},"effectiveDateTime":"2024-12-13T23:59:00.000+00:00","valueInteger":2},"request":{"method":"PUT","url":"Observation/132135"}},{"fullUrl":"https://madie.cms.gov/MeasureReport/519c3b1b-d109-41e6-8ccd-77240e63263c","resource":{"resourceType":"MeasureReport","id":"519c3b1b-d109-41e6-8ccd-77240e63263c","meta":{"profile":["http://hl7.org/fhir/us/cqfmeasures/StructureDefinition/test-case-cqfm"]},"contained":[{"resourceType":"Parameters","id":"1c17dd25-5774-4b61-b658-bbc02f14c7e1-parameters","parameter":[{"name":"subject","valueString":"844dab9e-f34d-41dc-bd89-1440551471a6"}]}],"extension":[{"url":"http://hl7.org/fhir/us/cqfmeasures/StructureDefinition/cqfm-inputParameters","valueReference":{"reference":"#1c17dd25-5774-4b61-b658-bbc02f14c7e1-parameters"}},{"url":"http://hl7.org/fhir/us/cqfmeasures/StructureDefinition/cqfm-testCaseDescription","valueMarkdown":"Male Patient with OV, Initial and Followup USS Assessment and 2 BPH of which earliest GT 6 months before start of MP and one which falls in the 6 month window around the start of the MP. "}],"modifierExtension":[{"url":"http://hl7.org/fhir/us/cqfmeasures/StructureDefinition/cqfm-isTestCase","valueBoolean":true}],"status":"complete","type":"individual","measure":"https://madie.cms.gov/Measure/UrinarySymptomScoreChangeAfterBenignProstaticHyperplasiaFHIR","period":{"start":"2025-01-01","end":"2025-12-31"},"group":[{"population":[{"code":{"coding":[{"system":"http://terminology.hl7.org/CodeSystem/measure-population","code":"initial-population","display":"Initial Population"}]},"count":1},{"code":{"coding":[{"system":"http://terminology.hl7.org/CodeSystem/measure-population","code":"denominator","display":"Denominator"}]},"count":1},{"code":{"coding":[{"system":"http://terminology.hl7.org/CodeSystem/measure-population","code":"denominator-exclusion","display":"Denominator Exclusion"}]},"count":0},{"code":{"coding":[{"system":"http://terminology.hl7.org/CodeSystem/measure-population","code":"numerator","display":"Numerator"}]},"count":0}]}],"evaluatedResource":[{"reference":"Patient/844dab9e-f34d-41dc-bd89-1440551471a6"},{"reference":"Encounter/enc-635431"},{"reference":"Condition/con-65461530"},{"reference":"Condition/con-65461532"},{"reference":"Observation/obs-6845654"},{"reference":"Observation/obs-132135"}]},"request":{"method":"PUT","url":"MeasureReport/519c3b1b-d109-41e6-8ccd-77240e63263c"}}]}