{"resourceType":"Bundle","id":"tests-9b637e49-9b8a-48c1-8304-ec5984bc47fa-bundle","type":"transaction","entry":[{"fullUrl":"https://madie.cms.gov/Patient/9b637e49-9b8a-48c1-8304-ec5984bc47fa","resource":{"resourceType":"Patient","id":"9b637e49-9b8a-48c1-8304-ec5984bc47fa","meta":{"profile":["http://hl7.org/fhir/us/qicore/StructureDefinition/qicore-patient"]},"extension":[{"url":"http://hl7.org/fhir/us/core/StructureDefinition/us-core-race","extension":[{"url":"ombCategory","valueCoding":{"system":"urn:oid:2.16.840.1.113883.6.238","code":"2106-3","display":"White"}},{"url":"text","valueString":"White"}]},{"url":"http://hl7.org/fhir/us/core/StructureDefinition/us-core-ethnicity","extension":[{"url":"ombCategory","valueCoding":{"system":"urn:oid:2.16.840.1.113883.6.238","code":"2186-5","display":"Non Hispanic or Latino"}},{"url":"text","valueString":"Non Hispanic or Latino"}]}],"identifier":[{"type":{"coding":[{"system":"http://terminology.hl7.org/CodeSystem/v2-0203","code":"MR"}]},"system":"https://bonnie-fhir.healthit.gov/","value":"4851351681610651"}],"name":[{"family":"IPPass","given":["2ndUSS1minBefore12monthEdge"]}],"gender":"male","birthDate":"1942-05-13"},"request":{"method":"PUT","url":"Patient/9b637e49-9b8a-48c1-8304-ec5984bc47fa"}},{"fullUrl":"https://madie.cms.gov/Encounter/635431","resource":{"resourceType":"Encounter","id":"75474767-9e10-428c-aff2-4ae28dbbb509","meta":{"profile":["http://hl7.org/fhir/us/qicore/StructureDefinition/qicore-encounter"]},"status":"finished","class":{"system":"http://terminology.hl7.org/CodeSystem/v3-ActCode","code":"AMB","display":"ambulatory"},"type":[{"coding":[{"system":"http://snomed.info/sct","version":"http://snomed.info/sct/731000124108/version/20240301","code":"185463005","display":"Visit out of hours (procedure)"}]}],"subject":{"reference":"Patient/9b637e49-9b8a-48c1-8304-ec5984bc47fa"},"period":{"start":"2025-02-12T08:00:00.000+00:00","end":"2025-02-12T08:15:00.000+00:00"}},"request":{"method":"PUT","url":"Encounter/75474767-9e10-428c-aff2-4ae28dbbb509"}},{"fullUrl":"https://madie.cms.gov/Condition/65461532","resource":{"resourceType":"Condition","id":"34c372c1-6fe0-4b09-bc92-6d2ef9cd5f30","meta":{"profile":["http://hl7.org/fhir/us/qicore/StructureDefinition/qicore-condition"]},"clinicalStatus":{"coding":[{"system":"http://terminology.hl7.org/CodeSystem/condition-clinical","code":"active","display":"active"}]},"verificationStatus":{"coding":[{"system":"http://terminology.hl7.org/CodeSystem/condition-ver-status","code":"confirmed","display":"Confirmed"}]},"category":[{"coding":[{"system":"http://terminology.hl7.org/CodeSystem/condition-category","code":"encounter-diagnosis","display":"Encounter Diagnosis"}]}],"code":{"coding":[{"system":"http://hl7.org/fhir/sid/icd-10-cm","version":"2024","code":"N40.1","display":"Benign prostatic hyperplasia with lower urinary tract symptoms"}]},"subject":{"reference":"Patient/9b637e49-9b8a-48c1-8304-ec5984bc47fa"},"onsetPeriod":{"start":"2024-12-12T08:00:00.000+00:00"}},"request":{"method":"PUT","url":"Condition/34c372c1-6fe0-4b09-bc92-6d2ef9cd5f30"}},{"fullUrl":"https://madie.cms.gov/Observation/6845654","resource":{"resourceType":"Observation","id":"6a5c897f-dcf8-421f-b266-2439cc15d971","meta":{"profile":["http://hl7.org/fhir/us/qicore/StructureDefinition/qicore-observation"]},"status":"final","category":[{"coding":[{"system":"http://terminology.hl7.org/CodeSystem/observation-category","code":"survey","display":"Survey"}]}],"code":{"coding":[{"system":"http://loinc.org","version":"2.76","code":"80976-4","display":"International Prostate Symptom Score [IPSS]"}]},"subject":{"reference":"Patient/9b637e49-9b8a-48c1-8304-ec5984bc47fa"},"effectiveDateTime":"2025-12-11T08:00:00.000+00:00","valueInteger":5},"request":{"method":"PUT","url":"Observation/6a5c897f-dcf8-421f-b266-2439cc15d971"}},{"fullUrl":"https://madie.cms.gov/Observation/132135","resource":{"resourceType":"Observation","id":"d53a063f-dc38-4ae4-a7bc-37a82e7c2e52","meta":{"profile":["http://hl7.org/fhir/us/qicore/StructureDefinition/qicore-observation"]},"status":"final","category":[{"coding":[{"system":"http://terminology.hl7.org/CodeSystem/observation-category","code":"survey","display":"Survey"}]}],"code":{"coding":[{"system":"http://loinc.org","version":"2.76","code":"80976-4","display":"International Prostate Symptom Score [IPSS]"}]},"subject":{"reference":"Patient/9b637e49-9b8a-48c1-8304-ec5984bc47fa"},"effectiveDateTime":"2024-12-13T23:59:00.000+00:00","valueInteger":2},"request":{"method":"PUT","url":"Observation/d53a063f-dc38-4ae4-a7bc-37a82e7c2e52"}},{"fullUrl":"https://madie.cms.gov/MeasureReport/d6d2c605-58da-4938-be94-92a4ed096ab8","resource":{"resourceType":"MeasureReport","id":"d6d2c605-58da-4938-be94-92a4ed096ab8","meta":{"profile":["http://hl7.org/fhir/us/cqfmeasures/StructureDefinition/test-case-cqfm"]},"contained":[{"resourceType":"Parameters","id":"0b83a4f0-5571-4331-91ab-72791bf5cd68-parameters","parameter":[{"name":"subject","valueString":"9b637e49-9b8a-48c1-8304-ec5984bc47fa"}]}],"extension":[{"url":"http://hl7.org/fhir/us/cqfmeasures/StructureDefinition/cqfm-inputParameters","valueReference":{"reference":"#0b83a4f0-5571-4331-91ab-72791bf5cd68-parameters"}},{"url":"http://hl7.org/fhir/us/cqfmeasures/StructureDefinition/cqfm-testCaseDescription","valueMarkdown":"Patient with BPH Dx and 2 USS assessments of which the second required assessment occurs exactly 1 minute before end of required 12 month window"}],"modifierExtension":[{"url":"http://hl7.org/fhir/us/cqfmeasures/StructureDefinition/cqfm-isTestCase","valueBoolean":true}],"status":"complete","type":"individual","measure":"https://madie.cms.gov/Measure/UrinarySymptomScoreChangeAfterBenignProstaticHyperplasiaFHIR","period":{"start":"2025-01-01","end":"2025-12-31"},"group":[{"population":[{"code":{"coding":[{"system":"http://terminology.hl7.org/CodeSystem/measure-population","code":"initial-population","display":"Initial Population"}]},"count":1},{"code":{"coding":[{"system":"http://terminology.hl7.org/CodeSystem/measure-population","code":"denominator","display":"Denominator"}]},"count":1},{"code":{"coding":[{"system":"http://terminology.hl7.org/CodeSystem/measure-population","code":"denominator-exclusion","display":"Denominator Exclusion"}]},"count":0},{"code":{"coding":[{"system":"http://terminology.hl7.org/CodeSystem/measure-population","code":"numerator","display":"Numerator"}]},"count":0}]}]},"request":{"method":"PUT","url":"MeasureReport/d6d2c605-58da-4938-be94-92a4ed096ab8"}}]}