{"resourceType":"Bundle","id":"tests-4c234ec0-3f89-4d55-b767-219d1130f634-bundle","type":"transaction","entry":[{"fullUrl":"https://madie.cms.gov/Patient/4c234ec0-3f89-4d55-b767-219d1130f634","resource":{"resourceType":"Patient","id":"4c234ec0-3f89-4d55-b767-219d1130f634","meta":{"profile":["http://hl7.org/fhir/us/qicore/StructureDefinition/qicore-patient"]},"extension":[{"url":"http://hl7.org/fhir/us/core/StructureDefinition/us-core-race","extension":[{"url":"ombCategory","valueCoding":{"system":"urn:oid:2.16.840.1.113883.6.238","code":"2106-3","display":"White"}},{"url":"detailed","valueCoding":{"system":"urn:oid:2.16.840.1.113883.6.238","code":"2036-2","display":"Filipino"}},{"url":"text","valueString":"mixed"}]},{"url":"http://hl7.org/fhir/us/core/StructureDefinition/us-core-ethnicity","extension":[{"url":"ombCategory","valueCoding":{"system":"urn:oid:2.16.840.1.113883.6.238","code":"2135-2","display":"Hispanic or Latino"}},{"url":"detailed","valueCoding":{"system":"urn:oid:2.16.840.1.113883.6.238","code":"2148-5","display":"Mexican"}},{"url":"text","valueString":"Hispanic or Latino"}]}],"identifier":[{"type":{"coding":[{"system":"http://terminology.hl7.org/CodeSystem/v2-0203","code":"MR"}]},"system":"https://bonnie-fhir.healthit.gov/","value":"71351661616151"}],"active":true,"name":[{"use":"usual","family":"NUMERPass","given":["USSImprovementof4AndMorbidObesityDxBeforeMPEdge "]}],"gender":"male","birthDate":"1947-02-19"},"request":{"method":"PUT","url":"Patient/4c234ec0-3f89-4d55-b767-219d1130f634"}},{"fullUrl":"https://madie.cms.gov/Observation/601d6ee1989ce90000244d66","resource":{"resourceType":"Observation","id":"07803795-447a-45a0-9068-a9ec6bfc121d","meta":{"profile":["http://hl7.org/fhir/us/qicore/StructureDefinition/qicore-observation"]},"status":"final","category":[{"coding":[{"system":"http://terminology.hl7.org/CodeSystem/observation-category","code":"survey","display":"Survey"}]}],"code":{"coding":[{"system":"http://loinc.org","version":"2.76","code":"80976-4"}]},"subject":{"reference":"Patient/4c234ec0-3f89-4d55-b767-219d1130f634"},"effectivePeriod":{"start":"2025-01-06T08:00:00.000+00:00"},"valueInteger":12},"request":{"method":"PUT","url":"Observation/07803795-447a-45a0-9068-a9ec6bfc121d"}},{"fullUrl":"https://madie.cms.gov/Observation/6022d563eb00b000000ae64d","resource":{"resourceType":"Observation","id":"4852e7e0-1447-4414-be2f-9e2c6009d060","meta":{"profile":["http://hl7.org/fhir/us/qicore/StructureDefinition/qicore-observation"]},"status":"final","category":[{"coding":[{"system":"http://terminology.hl7.org/CodeSystem/observation-category","code":"survey","display":"Survey"}]}],"code":{"coding":[{"system":"http://loinc.org","version":"2.76","code":"80976-4"}]},"subject":{"reference":"Patient/4c234ec0-3f89-4d55-b767-219d1130f634"},"effectivePeriod":{"start":"2025-08-06T08:00:00.000+00:00"},"valueInteger":8},"request":{"method":"PUT","url":"Observation/4852e7e0-1447-4414-be2f-9e2c6009d060"}},{"fullUrl":"https://madie.cms.gov/Condition/601d6df1989ce90000244b96","resource":{"resourceType":"Condition","id":"f701d607-3a73-4fbc-aad7-b5a1d6bb3ccc","meta":{"profile":["http://hl7.org/fhir/us/qicore/StructureDefinition/qicore-condition"]},"clinicalStatus":{"coding":[{"system":"http://terminology.hl7.org/CodeSystem/condition-clinical","code":"resolved"}]},"verificationStatus":{"coding":[{"system":"http://terminology.hl7.org/CodeSystem/condition-ver-status","code":"confirmed"}]},"category":[{"coding":[{"system":"http://terminology.hl7.org/CodeSystem/condition-category","code":"problem-list-item","display":"Problem List Item"}]}],"code":{"coding":[{"system":"http://hl7.org/fhir/sid/icd-10-cm","version":"2024","code":"Z68.42"}]},"subject":{"reference":"Patient/4c234ec0-3f89-4d55-b767-219d1130f634"},"onsetDateTime":"2023-02-28T08:00:00+00:00","abatementDateTime":"2024-06-28T08:15:00+00:00"},"request":{"method":"PUT","url":"Condition/f701d607-3a73-4fbc-aad7-b5a1d6bb3ccc"}},{"fullUrl":"https://madie.cms.gov/Condition/6022d4f0eb00b000000ae5f8","resource":{"resourceType":"Condition","id":"e26f5c60-d954-449a-a032-0ac8d8c7a4d2","meta":{"profile":["http://hl7.org/fhir/us/qicore/StructureDefinition/qicore-condition"]},"clinicalStatus":{"coding":[{"system":"http://terminology.hl7.org/CodeSystem/condition-clinical","code":"active"}]},"verificationStatus":{"coding":[{"system":"http://terminology.hl7.org/CodeSystem/condition-ver-status","code":"confirmed"}]},"category":[{"coding":[{"system":"http://terminology.hl7.org/CodeSystem/condition-category","code":"problem-list-item","display":"Problem List Item"}]}],"code":{"coding":[{"system":"http://hl7.org/fhir/sid/icd-10-cm","version":"2024","code":"N40.1"}]},"subject":{"reference":"Patient/4c234ec0-3f89-4d55-b767-219d1130f634"},"onsetPeriod":{"start":"2024-12-31T08:00:00.000+00:00"}},"request":{"method":"PUT","url":"Condition/e26f5c60-d954-449a-a032-0ac8d8c7a4d2"}},{"fullUrl":"https://madie.cms.gov/Encounter/5ca621f3b8484628b8ddb64b","resource":{"resourceType":"Encounter","id":"2b10dc64-8007-4598-b382-2c6212f6d576","meta":{"profile":["http://hl7.org/fhir/us/qicore/StructureDefinition/qicore-encounter"]},"status":"finished","class":{"system":"http://terminology.hl7.org/CodeSystem/v3-ActCode","code":"AMB","display":"ambulatory"},"type":[{"coding":[{"system":"http://www.ama-assn.org/go/cpt","version":"2024","code":"99213"}]}],"subject":{"reference":"Patient/4c234ec0-3f89-4d55-b767-219d1130f634"},"period":{"start":"2025-01-06T08:00:00+00:00","end":"2025-01-06T08:15:00+00:00"}},"request":{"method":"PUT","url":"Encounter/2b10dc64-8007-4598-b382-2c6212f6d576"}},{"fullUrl":"https://madie.cms.gov/Coverage/6846813516441","resource":{"resourceType":"Coverage","id":"2fd2192d-f1f3-4170-a34b-e6945ddd8ffa","meta":{"profile":["http://hl7.org/fhir/us/qicore/StructureDefinition/qicore-coverage"]},"identifier":[{"system":"http://benefitsinc.com/certificate","value":"12345"}],"status":"active","type":{"coding":[{"system":"https://nahdo.org/sopt","version":"9.2","code":"59","display":"Other Private Insurance"}]},"beneficiary":{"reference":"Patient/4c234ec0-3f89-4d55-b767-219d1130f634"},"dependent":"0","relationship":{"coding":[{"system":"http://terminology.hl7.org/CodeSystem/subscriber-relationship","code":"self"}]},"period":{"start":"2016-05-23","end":"2025-05-23"},"payor":[{"reference":"Organization/f6075515-d38f-4624-bde8-a1ce20473a69"}],"order":9},"request":{"method":"PUT","url":"Coverage/2fd2192d-f1f3-4170-a34b-e6945ddd8ffa"}},{"fullUrl":"https://madie.cms.gov/Organization/4654531645616","resource":{"resourceType":"Organization","id":"f6075515-d38f-4624-bde8-a1ce20473a69","meta":{"profile":["http://hl7.org/fhir/us/qicore/StructureDefinition/qicore-organization"]},"identifier":[{"use":"temp","system":"http://terminology.hl7.org/NamingSystem/USEIN","value":"48915164351354"}],"active":true,"type":[{"coding":[{"system":"http://terminology.hl7.org/CodeSystem/organization-type","code":"team","display":"Organizational team"}]}],"name":"Good Healthcare, LLC","telecom":[{"system":"phone","value":"(+1) 901-683-7777"},{"system":"fax","value":"(+1) 901-683-6622"},{"system":"email","value":"BetterYourHealth@GoodHealthcare.com"}],"address":[{"line":["3651 Wentrow Blvd, Suite 227"],"city":"Germantown","state":"TN","postalCode":"38138","country":"USA"}]},"request":{"method":"PUT","url":"Organization/f6075515-d38f-4624-bde8-a1ce20473a69"}},{"fullUrl":"https://madie.cms.gov/MeasureReport/6fb69594-bfde-484a-b90e-7b9ed96f0891","resource":{"resourceType":"MeasureReport","id":"6fb69594-bfde-484a-b90e-7b9ed96f0891","meta":{"profile":["http://hl7.org/fhir/us/cqfmeasures/StructureDefinition/test-case-cqfm"]},"contained":[{"resourceType":"Parameters","id":"32c53dca-9e56-42c1-b7e9-5dd452bb7448-parameters","parameter":[{"name":"subject","valueString":"4c234ec0-3f89-4d55-b767-219d1130f634"}]}],"extension":[{"url":"http://hl7.org/fhir/us/cqfmeasures/StructureDefinition/cqfm-inputParameters","valueReference":{"reference":"#32c53dca-9e56-42c1-b7e9-5dd452bb7448-parameters"}},{"url":"http://hl7.org/fhir/us/cqfmeasures/StructureDefinition/cqfm-testCaseDescription","valueMarkdown":"Male pt with initial dx BPH 6 months prior to Measurement Period and USS assessment within 1/mo of diagnosis with followup USS assessment and qualifying MP visit who has documented improvement of 4 points in USS"}],"modifierExtension":[{"url":"http://hl7.org/fhir/us/cqfmeasures/StructureDefinition/cqfm-isTestCase","valueBoolean":true}],"status":"complete","type":"individual","measure":"https://madie.cms.gov/Measure/UrinarySymptomScoreChangeAfterBenignProstaticHyperplasiaFHIR","period":{"start":"2025-01-01","end":"2025-12-31"},"group":[{"population":[{"code":{"coding":[{"system":"http://terminology.hl7.org/CodeSystem/measure-population","code":"initial-population","display":"Initial Population"}]},"count":1},{"code":{"coding":[{"system":"http://terminology.hl7.org/CodeSystem/measure-population","code":"denominator","display":"Denominator"}]},"count":1},{"code":{"coding":[{"system":"http://terminology.hl7.org/CodeSystem/measure-population","code":"denominator-exclusion","display":"Denominator Exclusion"}]},"count":0},{"code":{"coding":[{"system":"http://terminology.hl7.org/CodeSystem/measure-population","code":"numerator","display":"Numerator"}]},"count":1}]}]},"request":{"method":"PUT","url":"MeasureReport/6fb69594-bfde-484a-b90e-7b9ed96f0891"}}]}