{
  "resourceType": "Bundle",
  "id": "tests-836cdd6c-bc29-4752-9beb-c336d26f0ed2-bundle",
  "type": "transaction",
  "entry": [ {
    "fullUrl": "https://madie.cms.gov/Patient/836cdd6c-bc29-4752-9beb-c336d26f0ed2",
    "resource": {
      "resourceType": "Patient",
      "id": "836cdd6c-bc29-4752-9beb-c336d26f0ed2",
      "meta": {
        "profile": [ "http://hl7.org/fhir/us/qicore/StructureDefinition/qicore-patient" ]
      },
      "extension": [ {
        "url": "http://hl7.org/fhir/us/core/StructureDefinition/us-core-race",
        "extension": [ {
          "url": "ombCategory",
          "valueCoding": {
            "system": "urn:oid:2.16.840.1.113883.6.238",
            "code": "2028-9",
            "display": "Asian"
          }
        }, {
          "url": "text",
          "valueString": "Asian"
        } ]
      }, {
        "url": "http://hl7.org/fhir/us/core/StructureDefinition/us-core-ethnicity",
        "extension": [ {
          "url": "ombCategory",
          "valueCoding": {
            "system": "urn:oid:2.16.840.1.113883.6.238",
            "code": "2135-2",
            "display": "Hispanic or Latino",
            "userSelected": true
          }
        }, {
          "url": "text",
          "valueString": "Hispanic or Latino"
        } ]
      } ],
      "identifier": [ {
        "type": {
          "coding": [ {
            "system": "http://terminology.hl7.org/CodeSystem/v2-0203",
            "code": "MR"
          } ]
        },
        "system": "https://GoodHealthCare.com",
        "value": "900082319426"
      } ],
      "name": [ {
        "family": "DENEXFail",
        "given": [ "MorbidObesityDxRefuted" ]
      } ],
      "gender": "male",
      "birthDate": "1982-06-01"
    },
    "request": {
      "method": "PUT",
      "url": "Patient/836cdd6c-bc29-4752-9beb-c336d26f0ed2"
    }
  }, {
    "fullUrl": "https://madie.cms.gov/Encounter/enc-55509231",
    "resource": {
      "resourceType": "Encounter",
      "id": "55509231",
      "meta": {
        "profile": [ "http://hl7.org/fhir/us/qicore/StructureDefinition/qicore-encounter" ]
      },
      "status": "finished",
      "class": {
        "system": "http://terminology.hl7.org/CodeSystem/v3-ActCode",
        "code": "AMB",
        "display": "ambulatory"
      },
      "type": [ {
        "coding": [ {
          "system": "http://snomed.info/sct",
          "version": "http://snomed.info/sct/731000124108/version/202303",
          "code": "439740005",
          "display": "Postoperative follow-up visit (procedure)",
          "userSelected": true
        } ]
      } ],
      "subject": {
        "reference": "Patient/836cdd6c-bc29-4752-9beb-c336d26f0ed2"
      },
      "period": {
        "start": "2025-05-01T08:00:00.000+00:00",
        "end": "2025-05-01T08:30:00.000+00:00"
      }
    },
    "request": {
      "method": "PUT",
      "url": "Encounter/enc-55509231"
    }
  }, {
    "fullUrl": "https://madie.cms.gov/Condition/con-55509232",
    "resource": {
      "resourceType": "Condition",
      "id": "55509232",
      "meta": {
        "profile": [ "http://hl7.org/fhir/us/qicore/StructureDefinition/qicore-condition" ]
      },
      "clinicalStatus": {
        "coding": [ {
          "system": "http://terminology.hl7.org/CodeSystem/condition-clinical",
          "code": "active",
          "display": "active",
          "userSelected": true
        } ]
      },
      "verificationStatus": {
        "coding": [ {
          "system": "http://terminology.hl7.org/CodeSystem/condition-ver-status",
          "code": "confirmed",
          "display": "Confirmed",
          "userSelected": true
        } ]
      },
      "category": [ {
        "coding": [ {
          "system": "http://terminology.hl7.org/CodeSystem/condition-category",
          "code": "encounter-diagnosis",
          "display": "Encounter Diagnosis"
        } ]
      } ],
      "code": {
        "coding": [ {
          "system": "http://hl7.org/fhir/sid/icd-10-cm",
          "version": "2023",
          "code": "N40.1",
          "display": "Benign prostatic hyperplasia with lower urinary tract symptoms",
          "userSelected": true
        } ]
      },
      "subject": {
        "reference": "Patient/836cdd6c-bc29-4752-9beb-c336d26f0ed2"
      },
      "onsetPeriod": {
        "start": "2024-12-14T15:00:00.000+00:00"
      }
    },
    "request": {
      "method": "PUT",
      "url": "Condition/con-55509232"
    }
  }, {
    "fullUrl": "https://madie.cms.gov/Condition/con-55509600",
    "resource": {
      "resourceType": "Condition",
      "id": "55509600",
      "meta": {
        "profile": [ "http://hl7.org/fhir/us/qicore/StructureDefinition/qicore-condition" ]
      },
      "clinicalStatus": {
        "coding": [ {
          "system": "http://terminology.hl7.org/CodeSystem/condition-clinical",
          "code": "inactive",
          "display": "Inactive",
          "userSelected": true
        } ]
      },
      "verificationStatus": {
        "coding": [ {
          "system": "http://terminology.hl7.org/CodeSystem/condition-ver-status",
          "code": "refuted",
          "display": "Refuted",
          "userSelected": true
        } ]
      },
      "category": [ {
        "coding": [ {
          "system": "http://terminology.hl7.org/CodeSystem/condition-category",
          "code": "encounter-diagnosis",
          "display": "Encounter Diagnosis"
        } ]
      } ],
      "code": {
        "coding": [ {
          "system": "http://hl7.org/fhir/sid/icd-10-cm",
          "version": "2024",
          "code": "Z68.41",
          "display": "Body mass index [BMI] 40.0-44.9, adult"
        } ]
      },
      "subject": {
        "reference": "Patient/836cdd6c-bc29-4752-9beb-c336d26f0ed2"
      },
      "onsetPeriod": {
        "start": "2024-12-01T08:15:00.000+00:00"
      },
      "abatementDateTime": "2025-12-01T08:15:00.000+00:00"
    },
    "request": {
      "method": "PUT",
      "url": "Condition/con-55509600"
    }
  }, {
    "fullUrl": "https://madie.cms.gov/Observation/obs-55509233",
    "resource": {
      "resourceType": "Observation",
      "id": "55509233",
      "meta": {
        "profile": [ "http://hl7.org/fhir/us/qicore/StructureDefinition/qicore-observation" ]
      },
      "status": "final",
      "category": [ {
        "coding": [ {
          "system": "http://terminology.hl7.org/CodeSystem/observation-category",
          "code": "survey",
          "display": "Survey"
        } ]
      } ],
      "code": {
        "coding": [ {
          "system": "http://loinc.org",
          "version": "2.73",
          "code": "80976-4",
          "display": "International Prostate Symptom Score [IPSS]",
          "userSelected": true
        } ]
      },
      "subject": {
        "reference": "Patient/836cdd6c-bc29-4752-9beb-c336d26f0ed2"
      },
      "effectiveDateTime": "2025-01-02T08:15:00.000+00:00",
      "valueInteger": 5
    },
    "request": {
      "method": "PUT",
      "url": "Observation/obs-55509233"
    }
  }, {
    "fullUrl": "https://madie.cms.gov/Observation/obs-55509234",
    "resource": {
      "resourceType": "Observation",
      "id": "55509234",
      "meta": {
        "profile": [ "http://hl7.org/fhir/us/qicore/StructureDefinition/qicore-observation" ]
      },
      "status": "final",
      "category": [ {
        "coding": [ {
          "system": "http://terminology.hl7.org/CodeSystem/observation-category",
          "code": "survey",
          "display": "Survey"
        } ]
      } ],
      "code": {
        "coding": [ {
          "system": "http://loinc.org",
          "version": "2.73",
          "code": "80976-4",
          "display": "International Prostate Symptom Score [IPSS]",
          "userSelected": true
        } ]
      },
      "subject": {
        "reference": "Patient/836cdd6c-bc29-4752-9beb-c336d26f0ed2"
      },
      "effectiveDateTime": "2025-12-01T08:15:00.000+00:00",
      "valueInteger": 5
    },
    "request": {
      "method": "PUT",
      "url": "Observation/obs-55509234"
    }
  }, {
    "fullUrl": "https://madie.cms.gov/MeasureReport/9cfea97e-3905-43fa-8f04-abb13320c85a",
    "resource": {
      "resourceType": "MeasureReport",
      "id": "9cfea97e-3905-43fa-8f04-abb13320c85a",
      "meta": {
        "profile": [ "http://hl7.org/fhir/us/cqfmeasures/StructureDefinition/test-case-cqfm" ]
      },
      "contained": [ {
        "resourceType": "Parameters",
        "id": "39216e8b-65ce-4cd4-b80c-d8a6d1a88f5c-parameters",
        "parameter": [ {
          "name": "subject",
          "valueString": "836cdd6c-bc29-4752-9beb-c336d26f0ed2"
        } ]
      } ],
      "extension": [ {
        "url": "http://hl7.org/fhir/us/cqfmeasures/StructureDefinition/cqfm-inputParameters",
        "valueReference": {
          "reference": "#39216e8b-65ce-4cd4-b80c-d8a6d1a88f5c-parameters"
        }
      }, {
        "url": "http://hl7.org/fhir/us/cqfmeasures/StructureDefinition/cqfm-testCaseDescription",
        "valueMarkdown": "Patient with Intial Population/Denominator criteria met fails Morbid Obesity Denominator Exception because verification status is refuted"
      } ],
      "modifierExtension": [ {
        "url": "http://hl7.org/fhir/us/cqfmeasures/StructureDefinition/cqfm-isTestCase",
        "valueBoolean": true
      } ],
      "status": "complete",
      "type": "individual",
      "measure": "https://madie.cms.gov/Measure/UrinarySymptomScoreChangeAfterBenignProstaticHyperplasiaFHIR",
      "period": {
        "start": "2025-01-01",
        "end": "2025-12-31"
      },
      "group": [ {
        "population": [ {
          "code": {
            "coding": [ {
              "system": "http://terminology.hl7.org/CodeSystem/measure-population",
              "code": "initial-population",
              "display": "Initial Population"
            } ]
          },
          "count": 1
        }, {
          "code": {
            "coding": [ {
              "system": "http://terminology.hl7.org/CodeSystem/measure-population",
              "code": "denominator",
              "display": "Denominator"
            } ]
          },
          "count": 1
        }, {
          "code": {
            "coding": [ {
              "system": "http://terminology.hl7.org/CodeSystem/measure-population",
              "code": "denominator-exclusion",
              "display": "Denominator Exclusion"
            } ]
          },
          "count": 0
        }, {
          "code": {
            "coding": [ {
              "system": "http://terminology.hl7.org/CodeSystem/measure-population",
              "code": "numerator",
              "display": "Numerator"
            } ]
          },
          "count": 0
        } ]
      } ],
      "evaluatedResource": [ {
        "reference": "Patient/836cdd6c-bc29-4752-9beb-c336d26f0ed2"
      }, {
        "reference": "Encounter/enc-55509231"
      }, {
        "reference": "Condition/con-55509232"
      }, {
        "reference": "Condition/con-55509600"
      }, {
        "reference": "Observation/obs-55509233"
      }, {
        "reference": "Observation/obs-55509234"
      } ]
    },
    "request": {
      "method": "PUT",
      "url": "MeasureReport/9cfea97e-3905-43fa-8f04-abb13320c85a"
    }
  } ]
}
