{"resourceType":"Bundle","id":"tests-71846c52-343b-4e31-95e1-b1f44cca0128-bundle","type":"transaction","entry":[{"fullUrl":"https://madie.cms.gov/Patient/71846c52-343b-4e31-95e1-b1f44cca0128","resource":{"resourceType":"Patient","id":"71846c52-343b-4e31-95e1-b1f44cca0128","meta":{"profile":["http://hl7.org/fhir/us/qicore/StructureDefinition/qicore-patient"]},"extension":[{"url":"http://hl7.org/fhir/us/core/StructureDefinition/us-core-race","extension":[{"url":"ombCategory","valueCoding":{"system":"urn:oid:2.16.840.1.113883.6.238","code":"2106-3","display":"White"}},{"url":"text","valueString":"White"}]},{"url":"http://hl7.org/fhir/us/core/StructureDefinition/us-core-ethnicity","extension":[{"url":"ombCategory","valueCoding":{"system":"urn:oid:2.16.840.1.113883.6.238","code":"2135-2","display":"Hispanic or Latino","userSelected":true}},{"url":"text","valueString":"Hispanic or Latino"}]}],"identifier":[{"type":{"coding":[{"system":"http://terminology.hl7.org/CodeSystem/v2-0203","code":"MR"}]},"system":"https://smarthealth.com","value":"960082319426"}],"name":[{"family":"DENEXPass","given":["UrinaryRetentionDXWithin1YrBPHDx"]}],"gender":"male","birthDate":"1978-01-10"},"request":{"method":"PUT","url":"Patient/71846c52-343b-4e31-95e1-b1f44cca0128"}},{"fullUrl":"https://madie.cms.gov/Encounter/55509231","resource":{"resourceType":"Encounter","id":"89307750-88f5-4f7f-9111-ec114cd8dd21","meta":{"profile":["http://hl7.org/fhir/us/qicore/StructureDefinition/qicore-encounter"]},"status":"finished","class":{"system":"http://terminology.hl7.org/CodeSystem/v3-ActCode","code":"AMB","display":"ambulatory"},"type":[{"coding":[{"system":"http://snomed.info/sct","version":"http://snomed.info/sct/731000124108/version/20240301","code":"185464004","display":"Out of hours visit - not night visit (procedure)","userSelected":false}]}],"subject":{"reference":"Patient/71846c52-343b-4e31-95e1-b1f44cca0128"},"period":{"start":"2025-05-01T08:00:00.000+00:00","end":"2025-05-01T08:30:00.000+00:00"}},"request":{"method":"PUT","url":"Encounter/89307750-88f5-4f7f-9111-ec114cd8dd21"}},{"fullUrl":"https://madie.cms.gov/Condition/55509232","resource":{"resourceType":"Condition","id":"b92787c1-819d-4ed3-8ff5-925fc1f102ef","meta":{"profile":["http://hl7.org/fhir/us/qicore/StructureDefinition/qicore-condition"]},"clinicalStatus":{"coding":[{"system":"http://terminology.hl7.org/CodeSystem/condition-clinical","code":"active","display":"active","userSelected":true}]},"verificationStatus":{"coding":[{"system":"http://terminology.hl7.org/CodeSystem/condition-ver-status","code":"confirmed","display":"Confirmed","userSelected":true}]},"category":[{"coding":[{"system":"http://terminology.hl7.org/CodeSystem/condition-category","code":"encounter-diagnosis","display":"Encounter Diagnosis"}]}],"code":{"coding":[{"system":"http://hl7.org/fhir/sid/icd-10-cm","version":"2024","code":"N40.1","display":"Benign prostatic hyperplasia with lower urinary tract symptoms","userSelected":true}]},"subject":{"reference":"Patient/71846c52-343b-4e31-95e1-b1f44cca0128"},"onsetPeriod":{"start":"2024-12-14T15:00:00.000+00:00"}},"request":{"method":"PUT","url":"Condition/b92787c1-819d-4ed3-8ff5-925fc1f102ef"}},{"fullUrl":"https://madie.cms.gov/Condition/55509255","resource":{"resourceType":"Condition","id":"f4f5f3f2-a205-4792-89b7-f57554ba1f5c","meta":{"profile":["http://hl7.org/fhir/us/qicore/StructureDefinition/qicore-condition"]},"clinicalStatus":{"coding":[{"system":"http://terminology.hl7.org/CodeSystem/condition-clinical","code":"active","display":"active","userSelected":true}]},"verificationStatus":{"coding":[{"system":"http://terminology.hl7.org/CodeSystem/condition-ver-status","code":"confirmed","display":"Confirmed","userSelected":true}]},"category":[{"coding":[{"system":"http://terminology.hl7.org/CodeSystem/condition-category","code":"encounter-diagnosis","display":"Encounter Diagnosis"}]}],"code":{"coding":[{"system":"http://snomed.info/sct","version":"http://snomed.info/sct/731000124108/version/20240301","code":"267064002","display":"Retention of urine (disorder)","userSelected":false}]},"subject":{"reference":"Patient/71846c52-343b-4e31-95e1-b1f44cca0128"},"onsetPeriod":{"start":"2024-12-31T00:00:00.000+00:00"}},"request":{"method":"PUT","url":"Condition/f4f5f3f2-a205-4792-89b7-f57554ba1f5c"}},{"fullUrl":"https://madie.cms.gov/Observation/55509233","resource":{"resourceType":"Observation","id":"1437c06c-c58f-4159-be88-e6133ef2a501","meta":{"profile":["http://hl7.org/fhir/us/qicore/StructureDefinition/qicore-observation"]},"status":"final","category":[{"coding":[{"system":"http://terminology.hl7.org/CodeSystem/observation-category","code":"survey","display":"Survey"}]}],"code":{"coding":[{"system":"http://loinc.org","version":"2.76","code":"80976-4","display":"International Prostate Symptom Score [IPSS]","userSelected":true}]},"subject":{"reference":"Patient/71846c52-343b-4e31-95e1-b1f44cca0128"},"effectiveDateTime":"2025-01-02T08:15:00.000+00:00","valueInteger":5},"request":{"method":"PUT","url":"Observation/1437c06c-c58f-4159-be88-e6133ef2a501"}},{"fullUrl":"https://madie.cms.gov/Observation/55509234","resource":{"resourceType":"Observation","id":"14b19beb-da04-437f-8ded-f484e5dcf25b","meta":{"profile":["http://hl7.org/fhir/us/qicore/StructureDefinition/qicore-observation"]},"status":"final","category":[{"coding":[{"system":"http://terminology.hl7.org/CodeSystem/observation-category","code":"survey","display":"Survey"}]}],"code":{"coding":[{"system":"http://loinc.org","version":"2.76","code":"80976-4","display":"International Prostate Symptom Score [IPSS]","userSelected":true}]},"subject":{"reference":"Patient/71846c52-343b-4e31-95e1-b1f44cca0128"},"effectiveDateTime":"2025-12-01T08:15:00.000+00:00","valueInteger":2},"request":{"method":"PUT","url":"Observation/14b19beb-da04-437f-8ded-f484e5dcf25b"}},{"fullUrl":"https://madie.cms.gov/MeasureReport/e55e4257-b3a4-4a8c-bde9-d25c29f1dde9","resource":{"resourceType":"MeasureReport","id":"e55e4257-b3a4-4a8c-bde9-d25c29f1dde9","meta":{"profile":["http://hl7.org/fhir/us/cqfmeasures/StructureDefinition/test-case-cqfm"]},"contained":[{"resourceType":"Parameters","id":"51b5f61b-cac4-4039-a62b-f1d818596366-parameters","parameter":[{"name":"subject","valueString":"71846c52-343b-4e31-95e1-b1f44cca0128"}]}],"extension":[{"url":"http://hl7.org/fhir/us/cqfmeasures/StructureDefinition/cqfm-inputParameters","valueReference":{"reference":"#51b5f61b-cac4-4039-a62b-f1d818596366-parameters"}},{"url":"http://hl7.org/fhir/us/cqfmeasures/StructureDefinition/cqfm-testCaseDescription","valueMarkdown":"1stUSS1moAfterBPHle Patient with BPH Dx and also a Urniary Retention Diagnosis occuring within 1 year of BPH Diagnosis."}],"modifierExtension":[{"url":"http://hl7.org/fhir/us/cqfmeasures/StructureDefinition/cqfm-isTestCase","valueBoolean":true}],"status":"complete","type":"individual","measure":"https://madie.cms.gov/Measure/UrinarySymptomScoreChangeAfterBenignProstaticHyperplasiaFHIR","period":{"start":"2025-01-01","end":"2025-12-31"},"group":[{"population":[{"code":{"coding":[{"system":"http://terminology.hl7.org/CodeSystem/measure-population","code":"initial-population","display":"Initial Population"}]},"count":1},{"code":{"coding":[{"system":"http://terminology.hl7.org/CodeSystem/measure-population","code":"denominator","display":"Denominator"}]},"count":1},{"code":{"coding":[{"system":"http://terminology.hl7.org/CodeSystem/measure-population","code":"denominator-exclusion","display":"Denominator Exclusion"}]},"count":1},{"code":{"coding":[{"system":"http://terminology.hl7.org/CodeSystem/measure-population","code":"numerator","display":"Numerator"}]},"count":0}]}]},"request":{"method":"PUT","url":"MeasureReport/e55e4257-b3a4-4a8c-bde9-d25c29f1dde9"}}]}