{"resourceType":"Bundle","id":"tests-4d7a04b3-91ed-4035-85ef-0728bdf818ef-bundle","type":"transaction","entry":[{"fullUrl":"https://madie.cms.gov/Patient/4d7a04b3-91ed-4035-85ef-0728bdf818ef","resource":{"resourceType":"Patient","id":"4d7a04b3-91ed-4035-85ef-0728bdf818ef","meta":{"profile":["http://hl7.org/fhir/us/qicore/StructureDefinition/qicore-patient"]},"extension":[{"url":"http://hl7.org/fhir/us/core/StructureDefinition/us-core-race","extension":[{"url":"ombCategory","valueCoding":{"system":"urn:oid:2.16.840.1.113883.6.238","code":"2028-9","display":"Asian"}},{"url":"text","valueString":"Asian"}]},{"url":"http://hl7.org/fhir/us/core/StructureDefinition/us-core-ethnicity","extension":[{"url":"ombCategory","valueCoding":{"system":"urn:oid:2.16.840.1.113883.6.238","code":"2186-5","display":"Non Hispanic or Latino"}},{"url":"text","valueString":"Non Hispanic or Latino"}]}],"identifier":[{"type":{"coding":[{"system":"http://terminology.hl7.org/CodeSystem/v2-0203","code":"MR"}]},"system":"https://myGoodHealthCare.com/","value":"41654161684974312"}],"name":[{"family":"IPPass","given":["BPHDxStatusInactive"]}],"gender":"male","birthDate":"1982-12-01"},"request":{"method":"PUT","url":"Patient/4d7a04b3-91ed-4035-85ef-0728bdf818ef"}},{"fullUrl":"https://madie.cms.gov/Encounter/enc-4654645","resource":{"resourceType":"Encounter","id":"enc-4654645","meta":{"profile":["http://hl7.org/fhir/us/qicore/StructureDefinition/qicore-encounter"]},"status":"finished","class":{"system":"http://terminology.hl7.org/CodeSystem/v3-ActCode","code":"AMB","display":"ambulatory"},"type":[{"coding":[{"system":"http://snomed.info/sct","version":"http://snomed.info/sct/731000124108/version/20230301","code":"185465003","display":"Weekend visit (procedure)"}]}],"subject":{"reference":"Patient/4d7a04b3-91ed-4035-85ef-0728bdf818ef"},"period":{"start":"2025-07-01T08:00:00.000+00:00","end":"2025-07-01T09:15:00.000+00:00"}},"request":{"method":"PUT","url":"Encounter/enc-4654645"}},{"fullUrl":"https://madie.cms.gov/Condition/con-1321344","resource":{"resourceType":"Condition","id":"con-1321344","meta":{"profile":["http://hl7.org/fhir/us/qicore/StructureDefinition/qicore-condition"]},"clinicalStatus":{"coding":[{"system":"http://terminology.hl7.org/CodeSystem/condition-clinical","code":"inactive","display":"Inactive"}]},"verificationStatus":{"coding":[{"system":"http://terminology.hl7.org/CodeSystem/condition-ver-status","code":"confirmed","display":"Confirmed"}]},"category":[{"coding":[{"system":"http://terminology.hl7.org/CodeSystem/condition-category","code":"problem-list-item","display":"Problem List Item"}]}],"code":{"coding":[{"system":"http://hl7.org/fhir/sid/icd-10-cm","version":"2022","code":"N40.1","display":"Benign prostatic hyperplasia with lower urinary tract symptoms"}]},"subject":{"reference":"Patient/4d7a04b3-91ed-4035-85ef-0728bdf818ef"},"onsetPeriod":{"start":"2024-07-01T08:00:00.000+00:00"}},"request":{"method":"PUT","url":"Condition/con-1321344"}},{"fullUrl":"https://madie.cms.gov/Observation/obs-4645313","resource":{"resourceType":"Observation","id":"obs-4645313","meta":{"profile":["http://hl7.org/fhir/us/qicore/StructureDefinition/qicore-observation"]},"status":"final","category":[{"coding":[{"system":"http://terminology.hl7.org/CodeSystem/observation-category","code":"survey","display":"Survey"}]}],"code":{"coding":[{"system":"http://loinc.org","version":"2.73","code":"80976-4","display":"International Prostate Symptom Score [IPSS]"}]},"subject":{"reference":"Patient/4d7a04b3-91ed-4035-85ef-0728bdf818ef"},"effectiveDateTime":"2024-08-01T08:00:00.000+00:00","valueInteger":2},"request":{"method":"PUT","url":"Observation/obs-4645313"}},{"fullUrl":"https://madie.cms.gov/Observation/obs-65464646","resource":{"resourceType":"Observation","id":"obs-65464646","meta":{"profile":["http://hl7.org/fhir/us/qicore/StructureDefinition/qicore-observation"]},"status":"final","category":[{"coding":[{"system":"http://terminology.hl7.org/CodeSystem/observation-category","code":"survey","display":"Survey"}]}],"code":{"coding":[{"system":"http://loinc.org","version":"2.73","code":"80976-4","display":"International Prostate Symptom Score [IPSS]"}]},"subject":{"reference":"Patient/4d7a04b3-91ed-4035-85ef-0728bdf818ef"},"effectiveDateTime":"2025-07-01T08:00:00.000+00:00","valueInteger":2},"request":{"method":"PUT","url":"Observation/obs-65464646"}},{"fullUrl":"https://madie.cms.gov/MeasureReport/07b7ed59-9073-49f7-a5cd-172565092d0f","resource":{"resourceType":"MeasureReport","id":"07b7ed59-9073-49f7-a5cd-172565092d0f","meta":{"profile":["http://hl7.org/fhir/us/cqfmeasures/StructureDefinition/test-case-cqfm"]},"contained":[{"resourceType":"Parameters","id":"e09bbef8-7b2d-448b-be34-696b923fcddc-parameters","parameter":[{"name":"subject","valueString":"4d7a04b3-91ed-4035-85ef-0728bdf818ef"}]}],"extension":[{"url":"http://hl7.org/fhir/us/cqfmeasures/StructureDefinition/cqfm-inputParameters","valueReference":{"reference":"#e09bbef8-7b2d-448b-be34-696b923fcddc-parameters"}},{"url":"http://hl7.org/fhir/us/cqfmeasures/StructureDefinition/cqfm-testCaseDescription","valueMarkdown":"Male Patient with OV in MP, Initial and Followup Assessment and BPH Diagnosis with inactive Clinical Status"}],"modifierExtension":[{"url":"http://hl7.org/fhir/us/cqfmeasures/StructureDefinition/cqfm-isTestCase","valueBoolean":true}],"status":"complete","type":"individual","measure":"https://madie.cms.gov/Measure/UrinarySymptomScoreChangeAfterBenignProstaticHyperplasiaFHIR","period":{"start":"2025-01-01","end":"2025-12-31"},"group":[{"population":[{"code":{"coding":[{"system":"http://terminology.hl7.org/CodeSystem/measure-population","code":"initial-population","display":"Initial Population"}]},"count":0},{"code":{"coding":[{"system":"http://terminology.hl7.org/CodeSystem/measure-population","code":"denominator","display":"Denominator"}]},"count":0},{"code":{"coding":[{"system":"http://terminology.hl7.org/CodeSystem/measure-population","code":"denominator-exclusion","display":"Denominator Exclusion"}]},"count":0},{"code":{"coding":[{"system":"http://terminology.hl7.org/CodeSystem/measure-population","code":"numerator","display":"Numerator"}]},"count":0}]}],"evaluatedResource":[{"reference":"Patient/4d7a04b3-91ed-4035-85ef-0728bdf818ef"},{"reference":"Encounter/enc-4654645"},{"reference":"Condition/con-1321344"},{"reference":"Observation/obs-4645313"},{"reference":"Observation/obs-65464646"}]},"request":{"method":"PUT","url":"MeasureReport/07b7ed59-9073-49f7-a5cd-172565092d0f"}}]}