{
  "resourceType": "Bundle",
  "id": "6359776b6aee9629c8298235",
  "type": "transaction",
  "entry": [ {
    "fullUrl": "https://madie.cms.gov/Patient/a5b55f52-0f07-4565-8816-60c33e43e6ad",
    "resource": {
      "resourceType": "Patient",
      "id": "a5b55f52-0f07-4565-8816-60c33e43e6ad",
      "meta": {
        "profile": [ "http://hl7.org/fhir/us/qicore/StructureDefinition/qicore-patient" ]
      },
      "text": {
        "status": "generated",
        "div": "<div xmlns=\"http://www.w3.org/1999/xhtml\"><div class=\"hapiHeaderText\">RISKHct24hoursB4EDOTTriageEnc  <b>RISKPass </b></div><table class=\"hapiPropertyTable\"><tbody><tr><td>Date of birth</td><td><span>01 February 2004</span></td></tr></tbody></table></div>"
      },
      "extension": [ {
        "url": "http://hl7.org/fhir/us/core/StructureDefinition/us-core-race",
        "extension": [ {
          "url": "ombCategory",
          "valueCoding": {
            "system": "urn:oid:2.16.840.1.113883.6.238",
            "code": "1002-5",
            "display": "American Indian or Alaska Native",
            "userSelected": true
          }
        }, {
          "url": "text",
          "valueString": "American Indian or Alaska Native"
        } ]
      }, {
        "url": "http://hl7.org/fhir/us/core/StructureDefinition/us-core-ethnicity",
        "extension": [ {
          "url": "ombCategory",
          "valueCoding": {
            "system": "urn:oid:2.16.840.1.113883.6.238",
            "code": "2135-2",
            "display": "Hispanic or Latino",
            "userSelected": true
          }
        }, {
          "url": "text",
          "valueString": "Hispanic or Latino"
        } ]
      } ],
      "identifier": [ {
        "type": {
          "coding": [ {
            "system": "http://terminology.hl7.org/CodeSystem/v2-0203",
            "code": "MR"
          } ]
        },
        "system": "https://bonnie-fhir.healthit.gov/",
        "value": "6359776b6aee9629c8298235"
      } ],
      "active": true,
      "name": [ {
        "use": "usual",
        "family": "RiskPass",
        "given": [ "RISKHct24hoursB4EDOTTriageEnc " ]
      } ],
      "gender": "female",
      "birthDate": "2004-02-01"
    },
    "request": {
      "method": "PUT",
      "url": "Patient/a5b55f52-0f07-4565-8816-60c33e43e6ad"
    }
  }, {
    "fullUrl": "https://madie.cms.gov/Observation/03c28861-b8af-4855-9150-3690c44e407e",
    "resource": {
      "resourceType": "Observation",
      "id": "03c28861-b8af-4855-9150-3690c44e407e",
      "meta": {
        "profile": [ "http://hl7.org/fhir/us/qicore/StructureDefinition/qicore-observation" ]
      },
      "status": "final",
      "category": [ {
        "coding": [ {
          "system": "http://terminology.hl7.org/CodeSystem/observation-category",
          "code": "exam",
          "display": "exam",
          "userSelected": true
        } ]
      } ],
      "code": {
        "coding": [ {
          "system": "http://loinc.org",
          "code": "93857-1"
        } ]
      },
      "subject": {
        "reference": "Patient/a5b55f52-0f07-4565-8816-60c33e43e6ad"
      },
      "effectiveDateTime": "2025-02-01T08:00:00.000+00:00",
      "valueDateTime": "2025-02-01T08:00:00+00:00"
    },
    "request": {
      "method": "PUT",
      "url": "Observation/03c28861-b8af-4855-9150-3690c44e407e"
    }
  }, {
    "fullUrl": "https://madie.cms.gov/Observation/e810b762-73e9-40fb-8088-a5345b3bd28a",
    "resource": {
      "resourceType": "Observation",
      "id": "e810b762-73e9-40fb-8088-a5345b3bd28a",
      "meta": {
        "profile": [ "http://hl7.org/fhir/us/qicore/StructureDefinition/qicore-observation" ]
      },
      "status": "final",
      "category": [ {
        "coding": [ {
          "system": "http://terminology.hl7.org/CodeSystem/observation-category",
          "code": "exam",
          "display": "exam",
          "userSelected": true
        } ]
      } ],
      "code": {
        "coding": [ {
          "system": "http://loinc.org",
          "code": "11884-4"
        } ]
      },
      "subject": {
        "reference": "Patient/a5b55f52-0f07-4565-8816-60c33e43e6ad"
      },
      "effectiveDateTime": "2025-02-01T08:00:00.000+00:00",
      "valueQuantity": {
        "value": 21,
        "system": "http://unitsofmeasure.org",
        "code": "wk"
      }
    },
    "request": {
      "method": "PUT",
      "url": "Observation/e810b762-73e9-40fb-8088-a5345b3bd28a"
    }
  }, {
    "fullUrl": "https://madie.cms.gov/Encounter/28b8b50d-b0c6-4c93-875c-e2d7ff603fda",
    "resource": {
      "resourceType": "Encounter",
      "id": "28b8b50d-b0c6-4c93-875c-e2d7ff603fda",
      "meta": {
        "profile": [ "http://hl7.org/fhir/us/qicore/StructureDefinition/qicore-encounter" ]
      },
      "status": "finished",
      "class": {
        "system": "http://terminology.hl7.org/CodeSystem/v3-ActCode",
        "code": "IMP",
        "display": "inpatient encounter"
      },
      "type": [ {
        "coding": [ {
          "system": "http://snomed.info/sct",
          "code": "183452005"
        } ]
      } ],
      "subject": {
        "reference": "Patient/a5b55f52-0f07-4565-8816-60c33e43e6ad"
      },
      "period": {
        "start": "2025-02-01T08:00:00.000+00:00",
        "end": "2025-02-05T08:15:00.000+00:00"
      }
    },
    "request": {
      "method": "PUT",
      "url": "Encounter/28b8b50d-b0c6-4c93-875c-e2d7ff603fda"
    }
  }, {
    "fullUrl": "https://madie.cms.gov/Encounter/2a0ed75e-fd02-406d-99ac-af70f373085a",
    "resource": {
      "resourceType": "Encounter",
      "id": "2a0ed75e-fd02-406d-99ac-af70f373085a",
      "meta": {
        "profile": [ "http://hl7.org/fhir/us/qicore/StructureDefinition/qicore-encounter" ]
      },
      "status": "finished",
      "class": {
        "system": "http://terminology.hl7.org/CodeSystem/v3-ActCode",
        "code": "EMER",
        "display": "emergency"
      },
      "type": [ {
        "coding": [ {
          "system": "http://snomed.info/sct",
          "code": "4525004"
        } ]
      } ],
      "subject": {
        "reference": "Patient/a5b55f52-0f07-4565-8816-60c33e43e6ad"
      },
      "period": {
        "start": "2025-02-01T07:00:00.000+00:00",
        "end": "2025-02-01T07:59:00.000+00:00"
      }
    },
    "request": {
      "method": "PUT",
      "url": "Encounter/2a0ed75e-fd02-406d-99ac-af70f373085a"
    }
  }, {
    "fullUrl": "https://madie.cms.gov/Procedure/9742c700-675b-4fa0-8ffd-af07e0c0d33e",
    "resource": {
      "resourceType": "Procedure",
      "id": "9742c700-675b-4fa0-8ffd-af07e0c0d33e",
      "meta": {
        "profile": [ "http://hl7.org/fhir/us/qicore/StructureDefinition/qicore-procedure" ]
      },
      "extension": [ {
        "url": "http://hl7.org/fhir/us/qicore/StructureDefinition/qicore-recorded",
        "valueDateTime": "2025-02-04T09:35:00-04:00"
      } ],
      "status": "completed",
      "code": {
        "coding": [ {
          "system": "http://snomed.info/sct",
          "code": "10745001"
        } ]
      },
      "subject": {
        "reference": "Patient/a5b55f52-0f07-4565-8816-60c33e43e6ad"
      },
      "performedPeriod": {
        "start": "2025-02-01T08:00:00.000+00:00",
        "end": "2025-02-05T08:15:00.000+00:00"
      }
    },
    "request": {
      "method": "PUT",
      "url": "Procedure/9742c700-675b-4fa0-8ffd-af07e0c0d33e"
    }
  }, {
    "fullUrl": "https://madie.cms.gov/Observation/fb419f3a-4856-4f63-8274-11932b1f5501",
    "resource": {
      "resourceType": "Observation",
      "id": "fb419f3a-4856-4f63-8274-11932b1f5501",
      "meta": {
        "profile": [ "http://hl7.org/fhir/us/core/StructureDefinition/us-core-observation-lab" ]
      },
      "status": "final",
      "category": [ {
        "coding": [ {
          "system": "http://terminology.hl7.org/CodeSystem/observation-category",
          "code": "laboratory",
          "display": "laboratory",
          "userSelected": true
        } ]
      } ],
      "code": {
        "coding": [ {
          "system": "http://loinc.org",
          "version": "2.73",
          "code": "20570-8",
          "display": "Hematocrit [Volume Fraction] in Blood",
          "userSelected": true
        } ]
      },
      "subject": {
        "reference": "Patient/a5b55f52-0f07-4565-8816-60c33e43e6ad"
      },
      "effectiveDateTime": "2025-01-31T07:00:00.000+00:00",
      "issued": "2025-01-31T07:00:00.000+00:00",
      "valueQuantity": {
        "value": 20,
        "unit": "%"
      }
    },
    "request": {
      "method": "PUT",
      "url": "Observation/fb419f3a-4856-4f63-8274-11932b1f5501"
    }
  }, {
    "fullUrl": "https://madie.cms.gov/MeasureReport/40683587-f1a7-452c-81fd-0acc91610343",
    "resource": {
      "resourceType": "MeasureReport",
      "id": "40683587-f1a7-452c-81fd-0acc91610343",
      "meta": {
        "profile": [ "http://hl7.org/fhir/us/cqfmeasures/StructureDefinition/test-case-cqfm" ]
      },
      "contained": [ {
        "resourceType": "Parameters",
        "id": "66b0c69b-091d-4add-b701-b25c9f3cedf9-parameters",
        "parameter": [ {
          "name": "subject",
          "valueString": "a5b55f52-0f07-4565-8816-60c33e43e6ad"
        } ]
      } ],
      "extension": [ {
        "url": "http://hl7.org/fhir/us/cqfmeasures/StructureDefinition/cqfm-inputParameters",
        "valueReference": {
          "reference": "#66b0c69b-091d-4add-b701-b25c9f3cedf9-parameters"
        }
      }, {
        "url": "http://hl7.org/fhir/us/cqfmeasures/StructureDefinition/cqfm-testCaseDescription",
        "valueMarkdown": "Patient with hematocrit that starts 24 hours before ED OB Triage encounter.  \n"
      } ],
      "modifierExtension": [ {
        "url": "http://hl7.org/fhir/us/cqfmeasures/StructureDefinition/cqfm-isTestCase",
        "valueBoolean": true
      } ],
      "status": "complete",
      "type": "individual",
      "measure": "https://madie.cms.gov/Measure/CMS1028FHIRPCSevereOBComps",
      "period": {
        "start": "2025-01-01",
        "end": "2025-12-31"
      },
      "group": [ {
        "population": [ {
          "code": {
            "coding": [ {
              "system": "http://terminology.hl7.org/CodeSystem/measure-population",
              "code": "initial-population",
              "display": "Initial Population"
            } ]
          },
          "count": 1
        }, {
          "code": {
            "coding": [ {
              "system": "http://terminology.hl7.org/CodeSystem/measure-population",
              "code": "denominator",
              "display": "Denominator"
            } ]
          },
          "count": 1
        }, {
          "code": {
            "coding": [ {
              "system": "http://terminology.hl7.org/CodeSystem/measure-population",
              "code": "numerator",
              "display": "Numerator"
            } ]
          },
          "count": 0
        }, {
          "code": {
            "coding": [ {
              "system": "http://terminology.hl7.org/CodeSystem/measure-population",
              "code": "numerator-exclusion",
              "display": "Numerator Exclusion"
            } ]
          },
          "count": 0
        } ]
      }, {
        "population": [ {
          "code": {
            "coding": [ {
              "system": "http://terminology.hl7.org/CodeSystem/measure-population",
              "code": "initial-population",
              "display": "Initial Population"
            } ]
          },
          "count": 1
        }, {
          "code": {
            "coding": [ {
              "system": "http://terminology.hl7.org/CodeSystem/measure-population",
              "code": "denominator",
              "display": "Denominator"
            } ]
          },
          "count": 1
        }, {
          "code": {
            "coding": [ {
              "system": "http://terminology.hl7.org/CodeSystem/measure-population",
              "code": "numerator",
              "display": "Numerator"
            } ]
          },
          "count": 0
        }, {
          "code": {
            "coding": [ {
              "system": "http://terminology.hl7.org/CodeSystem/measure-population",
              "code": "numerator-exclusion",
              "display": "Numerator Exclusion"
            } ]
          },
          "count": 0
        } ]
      } ],
      "evaluatedResource": [ {
        "reference": "Patient/a5b55f52-0f07-4565-8816-60c33e43e6ad"
      }, {
        "reference": "Observation/03c28861-b8af-4855-9150-3690c44e407e"
      }, {
        "reference": "Observation/e810b762-73e9-40fb-8088-a5345b3bd28a"
      }, {
        "reference": "Encounter/28b8b50d-b0c6-4c93-875c-e2d7ff603fda"
      }, {
        "reference": "Encounter/2a0ed75e-fd02-406d-99ac-af70f373085a"
      }, {
        "reference": "Procedure/9742c700-675b-4fa0-8ffd-af07e0c0d33e"
      }, {
        "reference": "Observation/fb419f3a-4856-4f63-8274-11932b1f5501"
      } ]
    },
    "request": {
      "method": "PUT",
      "url": "MeasureReport/40683587-f1a7-452c-81fd-0acc91610343"
    }
  } ]
}