{"resourceType":"Bundle","id":"tests-dbc046b4-83e5-41d8-8e5a-e3b9a5022a79-bundle","type":"transaction","entry":[{"fullUrl":"https://madie.cms.gov/Patient/dbc046b4-83e5-41d8-8e5a-e3b9a5022a79","resource":{"resourceType":"Patient","id":"dbc046b4-83e5-41d8-8e5a-e3b9a5022a79","meta":{"profile":["http://hl7.org/fhir/us/qicore/StructureDefinition/qicore-patient"]},"text":{"status":"generated","div":"<div xmlns=\"http://www.w3.org/1999/xhtml\"><div class=\"hapiHeaderText\">24After <b>PLATELETPASS </b></div><table class=\"hapiPropertyTable\"><tbody><tr><td>Identifier</td><td>3fdea26b1d172050afffe1c0ff7bd899faa0bd0df7d367f433ae26111f27549c</td></tr><tr><td>Date of birth</td><td><span>15 June 1956</span></td></tr></tbody></table></div>"},"extension":[{"url":"http://hl7.org/fhir/us/core/StructureDefinition/us-core-race","extension":[{"url":"ombCategory","valueCoding":{"system":"urn:oid:2.16.840.1.113883.6.238","code":"1002-5","display":"American Indian or Alaska Native","userSelected":true}},{"url":"text","valueString":"American Indian or Alaska Native"}]},{"url":"http://hl7.org/fhir/us/core/StructureDefinition/us-core-ethnicity","extension":[{"url":"ombCategory","valueCoding":{"system":"urn:oid:2.16.840.1.113883.6.238","code":"2186-5","display":"Not Hispanic or Latino","userSelected":true}},{"url":"text","valueString":"Not Hispanic or Latino"}]}],"identifier":[{"type":{"coding":[{"system":"http://terminology.hl7.org/CodeSystem/v2-0203","code":"MR"}]},"system":"https://bonnie-fhir.healthit.gov/","value":"63ec0969ccb3770120fe9ec7"}],"active":true,"name":[{"use":"usual","family":"PlateletFail","given":["224Hrs1MinAfterStartOfAdmission"]}],"gender":"male","birthDate":"1960-07-01"},"request":{"method":"PUT","url":"Patient/dbc046b4-83e5-41d8-8e5a-e3b9a5022a79"}},{"fullUrl":"https://madie.cms.gov/Encounter/5e06503a9350f90000fe25a8","resource":{"resourceType":"Encounter","id":"dae82b88-dde3-475c-8e8b-d7117196261b","meta":{"profile":["http://hl7.org/fhir/us/qicore/StructureDefinition/qicore-encounter"]},"status":"finished","class":{"system":"http://terminology.hl7.org/CodeSystem/v3-ActCode","code":"IMP","display":"inpatient encounter","userSelected":true},"type":[{"coding":[{"system":"http://snomed.info/sct","code":"183452005","display":"Emergency hospital admission (procedure)"}]}],"subject":{"reference":"Patient/dbc046b4-83e5-41d8-8e5a-e3b9a5022a79"},"period":{"start":"2025-07-01T08:00:00.000+00:00","end":"2025-07-03T11:15:00.000+00:00"},"length":{"value":2.0,"unit":"days"}},"request":{"method":"PUT","url":"Encounter/dae82b88-dde3-475c-8e8b-d7117196261b"}},{"fullUrl":"https://madie.cms.gov/Coverage/5f996975b977ef0000c02e1a","resource":{"resourceType":"Coverage","id":"22cec8d0-770b-410f-95c0-2102306840ba","meta":{"profile":["http://hl7.org/fhir/us/qicore/StructureDefinition/qicore-coverage"]},"status":"active","type":{"coding":[{"system":"https://nahdo.org/sopt","version":"1.0.1","code":"1","display":"Medicare payer","userSelected":true}]},"beneficiary":{"reference":"Patient/dbc046b4-83e5-41d8-8e5a-e3b9a5022a79"},"payor":[{"reference":"Organization/77e4d06f-5e3c-436a-a598-80cefcca5028"}]},"request":{"method":"PUT","url":"Coverage/22cec8d0-770b-410f-95c0-2102306840ba"}},{"fullUrl":"https://madie.cms.gov/Observation/5b5f8c6eb848461e71030b29","resource":{"resourceType":"Observation","id":"80d0e428-a9ff-4725-bdaf-2485ee39a579","meta":{"profile":["http://hl7.org/fhir/us/core/StructureDefinition/us-core-observation-lab"]},"status":"final","category":[{"coding":[{"system":"http://terminology.hl7.org/CodeSystem/observation-category","code":"laboratory","display":"Laboratory","userSelected":true}]}],"code":{"coding":[{"system":"http://loinc.org","code":"13056-7","display":"Platelets [#/volume] in Plasma by Automated count"}]},"subject":{"reference":"Patient/dbc046b4-83e5-41d8-8e5a-e3b9a5022a79"},"effectiveDateTime":"2025-07-02T08:01:00.000+00:00","issued":"2025-07-02T08:01:00.000+00:00","valueQuantity":{"value":150000,"unit":"/uL","system":"http://unitsofmeasure.org","code":"/uL"}},"request":{"method":"PUT","url":"Observation/80d0e428-a9ff-4725-bdaf-2485ee39a579"}},{"fullUrl":"https://madie.cms.gov/Organization/123456","resource":{"resourceType":"Organization","id":"77e4d06f-5e3c-436a-a598-80cefcca5028","meta":{"profile":["http://hl7.org/fhir/us/qicore/StructureDefinition/qicore-organization"]},"identifier":[{"use":"temp","system":"urn:oid:2.16.840.1.113883.4.4","value":"21-3259825"}],"active":true,"type":[{"coding":[{"system":"http://terminology.hl7.org/CodeSystem/organization-type","code":"pay","display":"Payer"}]}],"name":"Blue Cross Blue Shield of Texas","telecom":[{"system":"phone","value":"(+1) 972-766-6900"}],"address":[{"use":"billing","type":"postal","line":["P.O. Box 660044"],"city":"Dallas","state":"TX","postalCode":"75266-0044","country":"USA"}]},"request":{"method":"PUT","url":"Organization/77e4d06f-5e3c-436a-a598-80cefcca5028"}},{"fullUrl":"https://madie.cms.gov/Practitioner/practitioner-123456","resource":{"resourceType":"Practitioner","id":"17b53cd2-f0f0-4978-96ab-acdb124fc4a9","meta":{"profile":["http://hl7.org/fhir/us/qicore/StructureDefinition/qicore-practitioner"]},"identifier":[{"system":"http://hl7.org/fhir/sid/us-npi","value":"123456"}],"name":[{"family":"Evil","prefix":["Dr"]}]},"request":{"method":"PUT","url":"Practitioner/17b53cd2-f0f0-4978-96ab-acdb124fc4a9"}},{"fullUrl":"https://madie.cms.gov/MeasureReport/a337c577-90bd-405f-a179-71f6b4ada393","resource":{"resourceType":"MeasureReport","id":"a337c577-90bd-405f-a179-71f6b4ada393","meta":{"profile":["http://hl7.org/fhir/us/cqfmeasures/StructureDefinition/test-case-cqfm"]},"contained":[{"resourceType":"Parameters","id":"88761a17-d3d2-4405-af6f-fbb7ae1e43a4-parameters","parameter":[{"name":"subject","valueString":"dbc046b4-83e5-41d8-8e5a-e3b9a5022a79"}]}],"extension":[{"url":"http://hl7.org/fhir/us/cqfmeasures/StructureDefinition/cqfm-inputParameters","valueReference":{"reference":"#88761a17-d3d2-4405-af6f-fbb7ae1e43a4-parameters"}},{"url":"http://hl7.org/fhir/us/cqfmeasures/StructureDefinition/cqfm-testCaseDescription","valueMarkdown":"Enc. starts first day of MP (7/1), age 65 today, has Medicare, platelet test 24 hrs 1 min after start of admission which exceeds the timeframe"}],"modifierExtension":[{"url":"http://hl7.org/fhir/us/cqfmeasures/StructureDefinition/cqfm-isTestCase","valueBoolean":true}],"status":"complete","type":"individual","measure":"https://madie.cms.gov/Measure/HybridHospitalWideMortalityFHIR","period":{"start":"2025-01-01","end":"2025-12-31"},"group":[{"population":[{"code":{"coding":[{"system":"http://terminology.hl7.org/CodeSystem/measure-population","code":"initial-population","display":"Initial Population"}]},"count":1}]}]},"request":{"method":"PUT","url":"MeasureReport/a337c577-90bd-405f-a179-71f6b4ada393"}}]}