{"resourceType":"Bundle","id":"tests-66e9eb42-457d-4797-b8bb-17d2e7a02658-bundle","type":"transaction","entry":[{"fullUrl":"https://madie.cms.gov/Patient/66e9eb42-457d-4797-b8bb-17d2e7a02658","resource":{"resourceType":"Patient","id":"66e9eb42-457d-4797-b8bb-17d2e7a02658","meta":{"profile":["http://hl7.org/fhir/us/qicore/StructureDefinition/qicore-patient"]},"text":{"status":"generated","div":"<div xmlns=\"http://www.w3.org/1999/xhtml\"><div class=\"hapiHeaderText\">NoResult <b>SODIUMFAIL </b></div><table class=\"hapiPropertyTable\"><tbody><tr><td>Identifier</td><td>eb360e3679224871964d5b3575a59ceb3c2f6260372fb1be3ea61ac84d2937cf</td></tr><tr><td>Date of birth</td><td><span>15 June 1956</span></td></tr></tbody></table></div>"},"extension":[{"url":"http://hl7.org/fhir/us/core/StructureDefinition/us-core-race","extension":[{"url":"ombCategory","valueCoding":{"system":"urn:oid:2.16.840.1.113883.6.238","code":"1002-5","display":"American Indian or Alaska Native","userSelected":true}},{"url":"text","valueString":"American Indian or Alaska Native"}]},{"url":"http://hl7.org/fhir/us/core/StructureDefinition/us-core-ethnicity","extension":[{"url":"ombCategory","valueCoding":{"system":"urn:oid:2.16.840.1.113883.6.238","code":"2186-5","display":"Not Hispanic or Latino","userSelected":true}},{"url":"text","valueString":"Not Hispanic or Latino"}]}],"identifier":[{"type":{"coding":[{"system":"http://terminology.hl7.org/CodeSystem/v2-0203","code":"MR"}]},"system":"https://bonnie-fhir.healthit.gov/","value":"63ec096bccb3770120fea0ad"}],"active":true,"name":[{"use":"usual","family":"EachPerformedInSeparateEncounters","given":["AllExamsPass"]}],"gender":"male","birthDate":"1959-07-01"},"request":{"method":"PUT","url":"Patient/66e9eb42-457d-4797-b8bb-17d2e7a02658"}},{"fullUrl":"https://madie.cms.gov/Encounter/5f996a69b977ef0000c0305a","resource":{"resourceType":"Encounter","id":"97ba2fb9-c85d-4b0c-b402-e2d757f16412","meta":{"profile":["http://hl7.org/fhir/us/qicore/StructureDefinition/qicore-encounter"]},"status":"finished","class":{"system":"http://terminology.hl7.org/CodeSystem/v3-ActCode","code":"IMP","display":"inpatient encounter","userSelected":true},"type":[{"coding":[{"system":"http://snomed.info/sct","code":"183452005"}]}],"subject":{"reference":"Patient/66e9eb42-457d-4797-b8bb-17d2e7a02658"},"period":{"start":"2025-07-01T12:01:00.000+00:00","end":"2025-07-04T08:15:00.000+00:00"}},"request":{"method":"PUT","url":"Encounter/97ba2fb9-c85d-4b0c-b402-e2d757f16412"}},{"fullUrl":"https://madie.cms.gov/Encounter/5f996a69b977ef0000c0305a1","resource":{"resourceType":"Encounter","id":"088e5ffe-c3b7-4b55-9cb8-34271d4aa5b3","meta":{"profile":["http://hl7.org/fhir/us/qicore/StructureDefinition/qicore-encounter"]},"status":"finished","class":{"system":"http://terminology.hl7.org/CodeSystem/v3-ActCode","code":"IMP","display":"inpatient encounter","userSelected":true},"type":[{"coding":[{"system":"http://snomed.info/sct","code":"183452005","display":"Emergency hospital admission (procedure)"}]}],"subject":{"reference":"Patient/66e9eb42-457d-4797-b8bb-17d2e7a02658"},"period":{"start":"2025-12-31T12:01:00.000+00:00","end":"2026-01-03T10:00:00.000+00:00"}},"request":{"method":"PUT","url":"Encounter/088e5ffe-c3b7-4b55-9cb8-34271d4aa5b3"}},{"fullUrl":"https://madie.cms.gov/Encounter/5f996a69b977ef0000c0305a2","resource":{"resourceType":"Encounter","id":"cd88c421-1d5f-491f-a27b-92fc57b334f9","meta":{"profile":["http://hl7.org/fhir/us/qicore/StructureDefinition/qicore-encounter"]},"status":"finished","class":{"system":"http://terminology.hl7.org/CodeSystem/v3-ActCode","code":"IMP","display":"inpatient encounter","userSelected":true},"type":[{"coding":[{"system":"http://snomed.info/sct","code":"32485007","display":"Hospital admission (procedure)"}]}],"subject":{"reference":"Patient/66e9eb42-457d-4797-b8bb-17d2e7a02658"},"period":{"start":"2026-01-04T08:00:00.000+00:00","end":"2026-01-08T08:15:00.000+00:00"}},"request":{"method":"PUT","url":"Encounter/cd88c421-1d5f-491f-a27b-92fc57b334f9"}},{"fullUrl":"https://madie.cms.gov/Encounter/5f996a69b977ef0000c0305a3","resource":{"resourceType":"Encounter","id":"092b421f-f7a6-4f69-92a6-607190a3e8ce","meta":{"profile":["http://hl7.org/fhir/us/qicore/StructureDefinition/qicore-encounter"]},"status":"finished","class":{"system":"http://terminology.hl7.org/CodeSystem/v3-ActCode","code":"EMER","display":"emergency","userSelected":true},"type":[{"coding":[{"system":"http://snomed.info/sct","code":"4525004","display":"Emergency department patient visit (procedure)"}]}],"subject":{"reference":"Patient/66e9eb42-457d-4797-b8bb-17d2e7a02658"},"period":{"start":"2026-06-27T04:00:00.000+00:00","end":"2026-06-27T15:30:00.000+00:00"}},"request":{"method":"PUT","url":"Encounter/092b421f-f7a6-4f69-92a6-607190a3e8ce"}},{"fullUrl":"https://madie.cms.gov/Encounter/5f996a69b977ef0000c0305a4","resource":{"resourceType":"Encounter","id":"009e121c-8ecd-47a7-9199-2931e2b86bc1","meta":{"profile":["http://hl7.org/fhir/us/qicore/StructureDefinition/qicore-encounter"]},"status":"finished","class":{"system":"http://terminology.hl7.org/CodeSystem/v3-ActCode","code":"IMP","display":"inpatient encounter","userSelected":true},"type":[{"coding":[{"system":"http://snomed.info/sct","code":"183452005","display":"Emergency hospital admission (procedure)"}]}],"subject":{"reference":"Patient/66e9eb42-457d-4797-b8bb-17d2e7a02658"},"period":{"start":"2026-06-27T15:30:00.000+00:00","end":"2026-06-30T08:23:59.000+00:00"}},"request":{"method":"PUT","url":"Encounter/009e121c-8ecd-47a7-9199-2931e2b86bc1"}},{"fullUrl":"https://madie.cms.gov/Observation/5b5f894cb848461e71030a0X","resource":{"resourceType":"Observation","id":"7522287a-144d-4f48-a702-861a80bd2df7","meta":{"profile":["http://hl7.org/fhir/StructureDefinition/heartrate"]},"status":"final","category":[{"coding":[{"system":"http://terminology.hl7.org/CodeSystem/observation-category","code":"vital-signs","display":"Vital Signs","userSelected":true}]}],"code":{"coding":[{"system":"http://loinc.org","code":"8867-4","display":"Heart rate"}]},"subject":{"reference":"Patient/66e9eb42-457d-4797-b8bb-17d2e7a02658"},"effectiveDateTime":"2026-01-04T08:00:00.000+00:00","valueQuantity":{"value":130,"unit":"/min","system":"http://unitsofmeasure.org","code":"/min"}},"request":{"method":"PUT","url":"Observation/7522287a-144d-4f48-a702-861a80bd2df7"}},{"fullUrl":"https://madie.cms.gov/Observation/5b5f894cb848461e71030a0Y","resource":{"resourceType":"Observation","id":"879a9f21-89ba-4a3d-a5d0-2f9d8a771f93","meta":{"profile":["http://hl7.org/fhir/StructureDefinition/bp"]},"status":"final","category":[{"coding":[{"system":"http://terminology.hl7.org/CodeSystem/observation-category","code":"vital-signs","display":"Vital Signs"}],"text":"Vital Signs"}],"code":{"coding":[{"system":"http://loinc.org","code":"85354-9","display":"Blood pressure panel"}]},"subject":{"reference":"Patient/66e9eb42-457d-4797-b8bb-17d2e7a02658"},"effectiveDateTime":"2025-06-30T13:00:00.000+00:00","component":[{"code":{"coding":[{"system":"http://loinc.org","code":"8480-6","display":"Systolic blood pressure"}]},"valueQuantity":{"value":131,"unit":"mmHg","system":"http://unitsofmeasure.org","code":"mm[Hg]"}},{"code":{"coding":[{"system":"http://loinc.org","code":"8462-4","display":"Diastolic blood pressure"}]},"valueQuantity":{"value":80,"unit":"mmHg","system":"http://unitsofmeasure.org","code":"mm[Hg]"}}]},"request":{"method":"PUT","url":"Observation/879a9f21-89ba-4a3d-a5d0-2f9d8a771f93"}},{"fullUrl":"https://madie.cms.gov/Observation/5b7c5683b84846299c81a5e1","resource":{"resourceType":"Observation","id":"5f365141-5c0c-4b8a-8ffa-9a780e29ef9e","meta":{"profile":["http://hl7.org/fhir/StructureDefinition/bodytemp"]},"status":"amended","category":[{"coding":[{"system":"http://terminology.hl7.org/CodeSystem/observation-category","code":"vital-signs","display":"Vital Signs","userSelected":true}]}],"code":{"coding":[{"system":"http://loinc.org","code":"8310-5","display":"Body temperature"}]},"subject":{"reference":"Patient/66e9eb42-457d-4797-b8bb-17d2e7a02658"},"effectiveDateTime":"2026-06-27T15:30:00.000+00:00","valueQuantity":{"value":98.6,"unit":"[degF]","system":"http://unitsofmeasure.org","code":"[degF]"}},"request":{"method":"PUT","url":"Observation/5f365141-5c0c-4b8a-8ffa-9a780e29ef9e"}},{"fullUrl":"https://madie.cms.gov/Coverage/5f996a4ab977ef0000c0304f","resource":{"resourceType":"Coverage","id":"6582fd24-dbff-4006-9d3b-6d273a087b5b","meta":{"profile":["http://hl7.org/fhir/us/qicore/StructureDefinition/qicore-coverage"]},"status":"active","type":{"coding":[{"system":"https://nahdo.org/sopt","version":"1.0.1","code":"1","display":"Medicare payer","userSelected":true}]},"beneficiary":{"reference":"Patient/66e9eb42-457d-4797-b8bb-17d2e7a02658"},"payor":[{"reference":"Organization/42846cc3-1db0-4bf7-b9ff-8b81fa6e835d"}]},"request":{"method":"PUT","url":"Coverage/6582fd24-dbff-4006-9d3b-6d273a087b5b"}},{"fullUrl":"https://madie.cms.gov/Organization/123456","resource":{"resourceType":"Organization","id":"42846cc3-1db0-4bf7-b9ff-8b81fa6e835d","meta":{"profile":["http://hl7.org/fhir/us/qicore/StructureDefinition/qicore-organization"]},"identifier":[{"use":"temp","system":"urn:oid:2.16.840.1.113883.4.4","value":"21-3259825"}],"active":true,"type":[{"coding":[{"system":"http://terminology.hl7.org/CodeSystem/organization-type","code":"pay","display":"Payer"}]}],"name":"Blue Cross Blue Shield of Texas","telecom":[{"system":"phone","value":"(+1) 972-766-6900"}],"address":[{"use":"billing","type":"postal","line":["P.O. Box 660044"],"city":"Dallas","state":"TX","postalCode":"75266-0044","country":"USA"}]},"request":{"method":"PUT","url":"Organization/42846cc3-1db0-4bf7-b9ff-8b81fa6e835d"}},{"fullUrl":"https://madie.cms.gov/Practitioner/practitioner-123456","resource":{"resourceType":"Practitioner","id":"b8e1346c-cc04-4474-9161-eb19ae5e0589","meta":{"profile":["http://hl7.org/fhir/us/qicore/StructureDefinition/qicore-practitioner"]},"identifier":[{"system":"http://hl7.org/fhir/sid/us-npi","value":"123456"}],"name":[{"family":"Evil","prefix":["Dr"]}]},"request":{"method":"PUT","url":"Practitioner/b8e1346c-cc04-4474-9161-eb19ae5e0589"}},{"fullUrl":"https://madie.cms.gov/MeasureReport/84b42593-933f-4b66-a551-2502dbbc41d1","resource":{"resourceType":"MeasureReport","id":"84b42593-933f-4b66-a551-2502dbbc41d1","meta":{"profile":["http://hl7.org/fhir/us/cqfmeasures/StructureDefinition/test-case-cqfm"]},"contained":[{"resourceType":"Parameters","id":"d92d08ae-4781-41ae-bf68-d3f747e05946-parameters","parameter":[{"name":"subject","valueString":"66e9eb42-457d-4797-b8bb-17d2e7a02658"}]}],"extension":[{"url":"http://hl7.org/fhir/us/cqfmeasures/StructureDefinition/cqfm-inputParameters","valueReference":{"reference":"#d92d08ae-4781-41ae-bf68-d3f747e05946-parameters"}},{"url":"http://hl7.org/fhir/us/cqfmeasures/StructureDefinition/cqfm-testCaseDescription","valueMarkdown":"Enc. 1: starts 1st day of MP (7/1), has Medicare and is 65 today, SBP\nEnc. 2: starts last day of CY, O2 sats  **missing\nEnc. 3: starts 4th day of following year, heart rate\nEnc. 4: Surgery then inpatient, ends last day of MP (6/30),  temperature  \n "}],"modifierExtension":[{"url":"http://hl7.org/fhir/us/cqfmeasures/StructureDefinition/cqfm-isTestCase","valueBoolean":true}],"status":"complete","type":"individual","measure":"https://madie.cms.gov/Measure/HybridHospitalWideMortalityFHIR","period":{"start":"2025-01-01","end":"2025-12-31"},"group":[{"population":[{"code":{"coding":[{"system":"http://terminology.hl7.org/CodeSystem/measure-population","code":"initial-population","display":"Initial Population"}]},"count":4}]}]},"request":{"method":"PUT","url":"MeasureReport/84b42593-933f-4b66-a551-2502dbbc41d1"}}]}