{"resourceType":"Bundle","id":"tests-443783af-53ae-46ed-a129-690aa58433d8-bundle","type":"transaction","entry":[{"fullUrl":"https://madie.cms.gov/Patient/443783af-53ae-46ed-a129-690aa58433d8","resource":{"resourceType":"Patient","id":"443783af-53ae-46ed-a129-690aa58433d8","meta":{"profile":["http://hl7.org/fhir/us/qicore/StructureDefinition/qicore-patient"]},"text":{"status":"generated","div":"<div xmlns=\"http://www.w3.org/1999/xhtml\"><div class=\"hapiHeaderText\">OnAdmit <b>HEMATPASS </b></div><table class=\"hapiPropertyTable\"><tbody><tr><td>Identifier</td><td>a3da21e0aa9acb035adc77fa116544b16013e74ef32aafc4f42a40ab71459966</td></tr><tr><td>Date of birth</td><td><span>15 June 1956</span></td></tr></tbody></table></div>"},"extension":[{"url":"http://hl7.org/fhir/us/core/StructureDefinition/us-core-race","extension":[{"url":"ombCategory","valueCoding":{"system":"urn:oid:2.16.840.1.113883.6.238","code":"2106-3","display":"White","userSelected":true}},{"url":"text","valueString":"White"}]},{"url":"http://hl7.org/fhir/us/core/StructureDefinition/us-core-ethnicity","extension":[{"url":"ombCategory","valueCoding":{"system":"urn:oid:2.16.840.1.113883.6.238","code":"2186-5","display":"Not Hispanic or Latino","userSelected":true}},{"url":"text","valueString":"Not Hispanic or Latino"}]}],"identifier":[{"type":{"coding":[{"system":"http://terminology.hl7.org/CodeSystem/v2-0203","code":"MR"}]},"system":"https://bonnie-fhir.healthit.gov/","value":"63ec0968ccb3770120fe9d74"}],"active":true,"name":[{"use":"usual","family":"HematocritPass","given":["PerformedInObs23Hrs15MinsPriorToAdmit"]}],"gender":"male","birthDate":"1960-07-01"},"request":{"method":"PUT","url":"Patient/443783af-53ae-46ed-a129-690aa58433d8"}},{"fullUrl":"https://madie.cms.gov/Encounter/5e064eb09350f90000fe244aX","resource":{"resourceType":"Encounter","id":"f98ec597-4174-4dfd-8e61-1d3d4e4d1965","meta":{"profile":["http://hl7.org/fhir/us/qicore/StructureDefinition/qicore-encounter"]},"status":"finished","class":{"system":"http://terminology.hl7.org/CodeSystem/v3-ActCode","code":"OBSENC","display":"observation encounter","userSelected":true},"type":[{"coding":[{"system":"http://snomed.info/sct","code":"448951000124107","display":"Admission to observation unit (procedure)"}]}],"subject":{"reference":"Patient/443783af-53ae-46ed-a129-690aa58433d8"},"period":{"start":"2025-07-01T08:00:00.000+00:00","end":"2025-07-02T07:15:00.000+00:00"},"length":{"value":1,"unit":"days"}},"request":{"method":"PUT","url":"Encounter/f98ec597-4174-4dfd-8e61-1d3d4e4d1965"}},{"fullUrl":"https://madie.cms.gov/Encounter/5e064eb09350f90000fe244a","resource":{"resourceType":"Encounter","id":"118f3891-f591-479f-af04-309ba5d2246f","meta":{"profile":["http://hl7.org/fhir/us/qicore/StructureDefinition/qicore-encounter"]},"status":"finished","class":{"system":"http://terminology.hl7.org/CodeSystem/v3-ActCode","code":"IMP","display":"inpatient encounter","userSelected":true},"type":[{"coding":[{"system":"http://snomed.info/sct","code":"183452005"}]}],"subject":{"reference":"Patient/443783af-53ae-46ed-a129-690aa58433d8"},"period":{"start":"2025-07-02T07:15:00.000+00:00","end":"2025-07-05T12:15:00.000+00:00"},"length":{"value":3,"unit":"days"}},"request":{"method":"PUT","url":"Encounter/118f3891-f591-479f-af04-309ba5d2246f"}},{"fullUrl":"https://madie.cms.gov/Coverage/5f9968fcb977ef0000c02ce8","resource":{"resourceType":"Coverage","id":"ecacb03e-33a9-494b-9236-fbac791db949","meta":{"profile":["http://hl7.org/fhir/us/qicore/StructureDefinition/qicore-coverage"]},"status":"active","type":{"coding":[{"system":"https://nahdo.org/sopt","version":"1.0.1","code":"1","display":"Medicare payer","userSelected":true}]},"beneficiary":{"reference":"Patient/443783af-53ae-46ed-a129-690aa58433d8"},"payor":[{"reference":"Organization/f6075515-d38f-4624-bde8-a1ce20473a69"}]},"request":{"method":"PUT","url":"Coverage/ecacb03e-33a9-494b-9236-fbac791db949"}},{"fullUrl":"https://madie.cms.gov/Observation/5e064efa9350f90000fe247c","resource":{"resourceType":"Observation","id":"92e46de4-abc5-4303-8ac7-e1a7c6f89406","meta":{"profile":["http://hl7.org/fhir/us/core/StructureDefinition/us-core-observation-lab"]},"status":"final","category":[{"coding":[{"system":"http://terminology.hl7.org/CodeSystem/observation-category","code":"laboratory","display":"Laboratory","userSelected":true}]}],"code":{"coding":[{"system":"http://loinc.org","code":"20570-8","display":"Hematocrit [Volume Fraction] of Blood"}]},"subject":{"reference":"Patient/443783af-53ae-46ed-a129-690aa58433d8"},"effectiveDateTime":"2025-07-01T08:00:00.000+00:00","issued":"2025-07-01T08:00:00.000+00:00","valueQuantity":{"value":50,"unit":"%","system":"http://unitsofmeasure.org","code":"%"}},"request":{"method":"PUT","url":"Observation/92e46de4-abc5-4303-8ac7-e1a7c6f89406"}},{"fullUrl":"https://madie.cms.gov/Organization/123456","resource":{"resourceType":"Organization","id":"f6075515-d38f-4624-bde8-a1ce20473a69","meta":{"profile":["http://hl7.org/fhir/us/qicore/StructureDefinition/qicore-organization"]},"identifier":[{"use":"temp","system":"urn:oid:2.16.840.1.113883.4.4","value":"21-3259825"}],"active":true,"type":[{"coding":[{"system":"http://terminology.hl7.org/CodeSystem/organization-type","code":"pay","display":"Payer"}]}],"name":"Blue Cross Blue Shield of Texas","telecom":[{"system":"phone","value":"(+1) 972-766-6900"}],"address":[{"use":"billing","type":"postal","line":["P.O. Box 660044"],"city":"Dallas","state":"TX","postalCode":"75266-0044","country":"USA"}]},"request":{"method":"PUT","url":"Organization/f6075515-d38f-4624-bde8-a1ce20473a69"}},{"fullUrl":"https://madie.cms.gov/Practitioner/practitioner-123456","resource":{"resourceType":"Practitioner","id":"41ed9450-01bf-4702-8d04-94e13de14795","meta":{"profile":["http://hl7.org/fhir/us/qicore/StructureDefinition/qicore-practitioner"]},"identifier":[{"system":"http://hl7.org/fhir/sid/us-npi","value":"123456"}],"name":[{"family":"Evil","prefix":["Dr"]}]},"request":{"method":"PUT","url":"Practitioner/41ed9450-01bf-4702-8d04-94e13de14795"}},{"fullUrl":"https://madie.cms.gov/MeasureReport/164eaf1f-a766-4f62-a286-32fa8442a3f2","resource":{"resourceType":"MeasureReport","id":"164eaf1f-a766-4f62-a286-32fa8442a3f2","meta":{"profile":["http://hl7.org/fhir/us/cqfmeasures/StructureDefinition/test-case-cqfm"]},"contained":[{"resourceType":"Parameters","id":"e7970ae7-829c-462e-b3d5-b10c24f84cca-parameters","parameter":[{"name":"subject","valueString":"443783af-53ae-46ed-a129-690aa58433d8"}]}],"extension":[{"url":"http://hl7.org/fhir/us/cqfmeasures/StructureDefinition/cqfm-inputParameters","valueReference":{"reference":"#e7970ae7-829c-462e-b3d5-b10c24f84cca-parameters"}},{"url":"http://hl7.org/fhir/us/cqfmeasures/StructureDefinition/cqfm-testCaseDescription","valueMarkdown":"Observation enc first day of MP (7/1), Inpt enc. 7/2, has Medicare, hematocrit evaluated in Obser 23 hrs 15 mins prior to inpatient admission"}],"modifierExtension":[{"url":"http://hl7.org/fhir/us/cqfmeasures/StructureDefinition/cqfm-isTestCase","valueBoolean":true}],"status":"complete","type":"individual","measure":"https://madie.cms.gov/Measure/HybridHospitalWideMortalityFHIR","period":{"start":"2025-01-01","end":"2025-12-31"},"group":[{"population":[{"code":{"coding":[{"system":"http://terminology.hl7.org/CodeSystem/measure-population","code":"initial-population","display":"Initial Population"}]},"count":1}]}]},"request":{"method":"PUT","url":"MeasureReport/164eaf1f-a766-4f62-a286-32fa8442a3f2"}}]}