{"resourceType":"Bundle","id":"tests-e03c0afd-5337-4e14-9091-845f63bfbd83-bundle","type":"transaction","entry":[{"fullUrl":"https://madie.cms.gov/Patient/e03c0afd-5337-4e14-9091-845f63bfbd83","resource":{"resourceType":"Patient","id":"e03c0afd-5337-4e14-9091-845f63bfbd83","meta":{"profile":["http://hl7.org/fhir/us/qicore/StructureDefinition/qicore-patient"]},"text":{"status":"generated","div":"<div xmlns=\"http://www.w3.org/1999/xhtml\"><div class=\"hapiHeaderText\">HRSBP_relevantPeriod <b>COMBO1 </b></div><table class=\"hapiPropertyTable\"><tbody><tr><td>Identifier</td><td>647b828a576e8c34eaa21fd1cdb85d1e5f291be13e6a5c34a9fc817d4466c0f5</td></tr><tr><td>Date of birth</td><td><span>15 June 1956</span></td></tr></tbody></table></div>"},"extension":[{"url":"http://hl7.org/fhir/us/core/StructureDefinition/us-core-race","extension":[{"url":"ombCategory","valueCoding":{"system":"urn:oid:2.16.840.1.113883.6.238","code":"2054-5","display":"Black or African American","userSelected":true}},{"url":"text","valueString":"Black or African American"}]},{"url":"http://hl7.org/fhir/us/core/StructureDefinition/us-core-ethnicity","extension":[{"url":"ombCategory","valueCoding":{"system":"urn:oid:2.16.840.1.113883.6.238","code":"2186-5","display":"Not Hispanic or Latino","userSelected":true}},{"url":"text","valueString":"Not Hispanic or Latino"}]}],"identifier":[{"type":{"coding":[{"system":"http://terminology.hl7.org/CodeSystem/v2-0203","code":"MR"}]},"system":"https://bonnie-fhir.healthit.gov/","value":"63ec0966ccb3770120fe9c3c"}],"active":true,"name":[{"use":"usual","family":"HeartRateAndSystolicBPPass","given":["HR5MinsBP24HrsAfterStartOfAdmit"]}],"gender":"female","birthDate":"1956-06-15"},"request":{"method":"PUT","url":"Patient/e03c0afd-5337-4e14-9091-845f63bfbd83"}},{"fullUrl":"https://madie.cms.gov/Encounter/5e0640a6fa854b0000583f69","resource":{"resourceType":"Encounter","id":"3d1c3095-3c25-4ed5-a157-28bfccb89e4f","meta":{"profile":["http://hl7.org/fhir/us/qicore/StructureDefinition/qicore-encounter"]},"status":"finished","class":{"system":"http://terminology.hl7.org/CodeSystem/v3-ActCode","code":"IMP","display":"inpatient encounter","userSelected":true},"type":[{"coding":[{"system":"http://snomed.info/sct","code":"183452005"}]}],"subject":{"reference":"Patient/e03c0afd-5337-4e14-9091-845f63bfbd83"},"period":{"start":"2026-06-29T08:10:00.000+00:00","end":"2026-06-30T15:15:00.000+00:00"},"length":{"value":1.0,"unit":"days"}},"request":{"method":"PUT","url":"Encounter/3d1c3095-3c25-4ed5-a157-28bfccb89e4f"}},{"fullUrl":"https://madie.cms.gov/Coverage/5f996aaed3abb500009ff84b","resource":{"resourceType":"Coverage","id":"24fb5f83-67d3-4028-a63e-d8ca514e8e81","meta":{"profile":["http://hl7.org/fhir/us/qicore/StructureDefinition/qicore-coverage"]},"status":"active","type":{"coding":[{"system":"https://nahdo.org/sopt","version":"1.0.1","code":"1","display":"Medicare payer","userSelected":true}]},"beneficiary":{"reference":"Patient/e03c0afd-5337-4e14-9091-845f63bfbd83"},"payor":[{"reference":"Organization/41c75c00-82d9-4ab2-98f6-cfaf7fc3381d"}]},"request":{"method":"PUT","url":"Coverage/24fb5f83-67d3-4028-a63e-d8ca514e8e81"}},{"fullUrl":"https://madie.cms.gov/Observation/5b5f894cb848461e71030a01","resource":{"resourceType":"Observation","id":"08c7e0ea-0b9c-45f6-a580-6210c4321b50","meta":{"profile":["http://hl7.org/fhir/StructureDefinition/heartrate"]},"status":"final","category":[{"coding":[{"system":"http://terminology.hl7.org/CodeSystem/observation-category","code":"vital-signs","display":"vital-signs","userSelected":true}]}],"code":{"coding":[{"system":"http://loinc.org","code":"8867-4","display":"Heart rate"}]},"subject":{"reference":"Patient/e03c0afd-5337-4e14-9091-845f63bfbd83"},"effectiveDateTime":"2026-06-29T10:10:00.000+00:00","valueQuantity":{"value":100.0,"unit":"/min","system":"http://unitsofmeasure.org","code":"/min"}},"request":{"method":"PUT","url":"Observation/08c7e0ea-0b9c-45f6-a580-6210c4321b50"}},{"fullUrl":"https://madie.cms.gov/Observation/5b5f894cb848461e71030a05","resource":{"resourceType":"Observation","id":"c1bde6ba-98a8-4ab5-b679-e72f4c0b4230","meta":{"profile":["http://hl7.org/fhir/StructureDefinition/heartrate"]},"status":"final","category":[{"coding":[{"system":"http://terminology.hl7.org/CodeSystem/observation-category","code":"vital-signs","display":"vital-signs","userSelected":true}]}],"code":{"coding":[{"system":"http://loinc.org","code":"8867-4","display":"Heart rate"}]},"subject":{"reference":"Patient/e03c0afd-5337-4e14-9091-845f63bfbd83"},"effectiveDateTime":"2026-06-29T20:10:00.000+00:00","valueQuantity":{"value":96,"unit":"/min","system":"http://unitsofmeasure.org","code":"/min"}},"request":{"method":"PUT","url":"Observation/c1bde6ba-98a8-4ab5-b679-e72f4c0b4230"}},{"fullUrl":"https://madie.cms.gov/Organization/123456","resource":{"resourceType":"Organization","id":"41c75c00-82d9-4ab2-98f6-cfaf7fc3381d","meta":{"profile":["http://hl7.org/fhir/us/qicore/StructureDefinition/qicore-organization"]},"identifier":[{"use":"temp","system":"urn:oid:2.16.840.1.113883.4.4","value":"21-3259825"}],"active":true,"type":[{"coding":[{"system":"http://terminology.hl7.org/CodeSystem/organization-type","code":"pay","display":"Payer"}]}],"name":"Blue Cross Blue Shield of Texas","telecom":[{"system":"phone","value":"(+1) 972-766-6900"}],"address":[{"use":"billing","type":"postal","line":["P.O. Box 660044"],"city":"Dallas","state":"TX","postalCode":"75266-0044","country":"USA"}]},"request":{"method":"PUT","url":"Organization/41c75c00-82d9-4ab2-98f6-cfaf7fc3381d"}},{"fullUrl":"https://madie.cms.gov/Observation/blood-pressure-3","resource":{"resourceType":"Observation","id":"b8cdd800-7591-422d-b209-2e1755d6ea25","meta":{"profile":["http://hl7.org/fhir/StructureDefinition/bp"]},"status":"final","category":[{"coding":[{"system":"http://terminology.hl7.org/CodeSystem/observation-category","code":"vital-signs","display":"Vital Signs"}],"text":"Vital Signs"}],"code":{"coding":[{"system":"http://loinc.org","code":"85354-9","display":"Blood pressure panel"}]},"subject":{"reference":"Patient/e03c0afd-5337-4e14-9091-845f63bfbd83"},"effectiveDateTime":"2026-06-29T08:15:00.000+00:00","component":[{"code":{"coding":[{"system":"http://loinc.org","code":"8480-6","display":"Systolic blood pressure"}]},"valueQuantity":{"value":140,"unit":"mm[Hg]","system":"http://unitsofmeasure.org","code":"mm[Hg]"}},{"code":{"coding":[{"system":"http://loinc.org","code":"8462-4","display":"Diastolic blood pressure"}]},"valueQuantity":{"value":80,"unit":"mm[Hg]","system":"http://unitsofmeasure.org","code":"mm[Hg]"}}]},"request":{"method":"PUT","url":"Observation/b8cdd800-7591-422d-b209-2e1755d6ea25"}},{"fullUrl":"https://madie.cms.gov/Practitioner/practitioner-123456","resource":{"resourceType":"Practitioner","id":"99899875-ecf7-408d-a960-15d92d1defd6","meta":{"profile":["http://hl7.org/fhir/us/qicore/StructureDefinition/qicore-practitioner"]},"identifier":[{"system":"http://hl7.org/fhir/sid/us-npi","value":"123456"}],"name":[{"family":"Evil","prefix":["Dr"]}]},"request":{"method":"PUT","url":"Practitioner/99899875-ecf7-408d-a960-15d92d1defd6"}},{"fullUrl":"https://madie.cms.gov/MeasureReport/7b27daab-0174-430d-a750-88206ae98880","resource":{"resourceType":"MeasureReport","id":"7b27daab-0174-430d-a750-88206ae98880","meta":{"profile":["http://hl7.org/fhir/us/cqfmeasures/StructureDefinition/test-case-cqfm"]},"contained":[{"resourceType":"Parameters","id":"185fe120-c99b-4680-97f1-64c6660628a6-parameters","parameter":[{"name":"subject","valueString":"e03c0afd-5337-4e14-9091-845f63bfbd83"}]}],"extension":[{"url":"http://hl7.org/fhir/us/cqfmeasures/StructureDefinition/cqfm-inputParameters","valueReference":{"reference":"#185fe120-c99b-4680-97f1-64c6660628a6-parameters"}},{"url":"http://hl7.org/fhir/us/cqfmeasures/StructureDefinition/cqfm-testCaseDescription","valueMarkdown":"Enc. ends last day of MP (6/30), Systolic BP taken 5 mins after admit; heart rate evaluated 2 hrs after admit; heart rate taken at discharge (24 hrs after admit)"}],"modifierExtension":[{"url":"http://hl7.org/fhir/us/cqfmeasures/StructureDefinition/cqfm-isTestCase","valueBoolean":true}],"status":"complete","type":"individual","measure":"https://madie.cms.gov/Measure/HybridHospitalWideMortalityFHIR","period":{"start":"2025-01-01","end":"2025-12-31"},"group":[{"population":[{"code":{"coding":[{"system":"http://terminology.hl7.org/CodeSystem/measure-population","code":"initial-population","display":"Initial Population"}]},"count":1}]}]},"request":{"method":"PUT","url":"MeasureReport/7b27daab-0174-430d-a750-88206ae98880"}}]}