{
  "resourceType": "Bundle",
  "id": "ScreNotatriRefAsseModDxNocp2",
  "type": "transaction",
  "entry": [ {
    "fullUrl": "https://madie.cms.gov/Patient/90875a8a-2cf3-4fa2-999d-91028ae92d30",
    "resource": {
      "resourceType": "Patient",
      "id": "90875a8a-2cf3-4fa2-999d-91028ae92d30",
      "meta": {
        "profile": [ "http://hl7.org/fhir/us/qicore/StructureDefinition/qicore-patient" ]
      },
      "text": {
        "status": "generated",
        "div": "<div xmlns=\"http://www.w3.org/1999/xhtml\"><div class=\"hapiHeaderText\">ScreNotatriRefAsseModDxNocp2, , <b> </b></div><table class=\"hapiPropertyTable\"><tbody><tr><td>Identifier</td><td>ScreNotatriRefAsseModDxNocp2</td></tr><tr><td>Date of birth</td><td><span>14 May 1950</span></td></tr></tbody></table></div>"
      },
      "extension": [ {
        "url": "http://hl7.org/fhir/us/core/StructureDefinition/us-core-race",
        "extension": [ {
          "url": "ombCategory",
          "valueCoding": {
            "system": "urn:oid:2.16.840.1.113883.6.238",
            "code": "2106-3",
            "display": "White",
            "userSelected": true
          }
        }, {
          "url": "text",
          "valueString": "White"
        } ]
      }, {
        "url": "http://hl7.org/fhir/us/core/StructureDefinition/us-core-ethnicity",
        "extension": [ {
          "url": "ombCategory",
          "valueCoding": {
            "system": "urn:oid:2.16.840.1.113883.6.238",
            "code": "2186-5",
            "display": "Not Hispanic or Latino",
            "userSelected": true
          }
        }, {
          "url": "text",
          "valueString": "Not Hispanic or Latino"
        } ]
      } ],
      "identifier": [ {
        "type": {
          "coding": [ {
            "system": "http://terminology.hl7.org/CodeSystem/v2-0203",
            "code": "MR"
          } ]
        },
        "system": "https://madie.cms.gov/",
        "value": "ScreNotatriRefAsseModDxNocp2"
      } ],
      "active": true,
      "name": [ {
        "use": "usual",
        "text": "ScreNotatriRefAsseModDxNocp2",
        "family": "DENOMPass4",
        "given": [ "ScreNotatriRefAsseModDxNocp2DENOMPass4" ]
      } ],
      "gender": "female",
      "birthDate": "1950-05-14",
      "address": [ {
        "text": "ScreNotatriRefAsseModDxNocp2, Screened Not at risk Assessed Severely Malnourished Diagnosed Care Plan, ID=ScreNotatriRefAsseModDxNocp2, DOB: 14 May 1950"
      } ]
    },
    "request": {
      "method": "PUT",
      "url": "Patient/90875a8a-2cf3-4fa2-999d-91028ae92d30"
    }
  }, {
    "fullUrl": "https://madie.cms.gov/Encounter/ScreNotatriRefAsseModDxNocp2-01",
    "resource": {
      "resourceType": "Encounter",
      "id": "ScreNotatriRefAsseModDxNocp2-01",
      "meta": {
        "profile": [ "http://hl7.org/fhir/us/qicore/StructureDefinition/qicore-encounter" ]
      },
      "status": "finished",
      "class": {
        "system": "http://terminology.hl7.org/CodeSystem/v3-ActCode",
        "code": "IMP",
        "display": "inpatient encounter"
      },
      "type": [ {
        "coding": [ {
          "system": "http://snomed.info/sct",
          "code": "183452005"
        } ]
      } ],
      "subject": {
        "reference": "Patient/90875a8a-2cf3-4fa2-999d-91028ae92d30"
      },
      "period": {
        "start": "2025-02-01T08:00:00.000Z",
        "end": "2025-02-07T08:15:00.000Z"
      }
    },
    "request": {
      "method": "PUT",
      "url": "Encounter/ScreNotatriRefAsseModDxNocp2-01"
    }
  }, {
    "fullUrl": "https://madie.cms.gov/Condition/ScreNotatriRefAsseModDxNocp2-06",
    "resource": {
      "resourceType": "Condition",
      "id": "ScreNotatriRefAsseModDxNocp2-06",
      "meta": {
        "profile": [ "http://hl7.org/fhir/us/qicore/StructureDefinition/qicore-condition" ]
      },
      "clinicalStatus": {
        "coding": [ {
          "system": "http://terminology.hl7.org/CodeSystem/condition-clinical",
          "code": "active",
          "display": "Active",
          "userSelected": true
        } ]
      },
      "verificationStatus": {
        "coding": [ {
          "system": "http://terminology.hl7.org/CodeSystem/condition-ver-status",
          "code": "confirmed",
          "display": "Confirmed",
          "userSelected": true
        } ]
      },
      "category": [ {
        "coding": [ {
          "system": "http://terminology.hl7.org/CodeSystem/condition-category",
          "code": "encounter-diagnosis",
          "display": "Encounter Diagnosis",
          "userSelected": true
        } ]
      } ],
      "code": {
        "coding": [ {
          "system": "http://snomed.info/sct",
          "code": "190606006",
          "display": "Moderate protein energy malnutrition (disorder)",
          "userSelected": true
        } ]
      },
      "subject": {
        "reference": "Patient/90875a8a-2cf3-4fa2-999d-91028ae92d30"
      },
      "onsetPeriod": {
        "start": "2025-02-01T08:00:00.000+00:00"
      },
      "recordedDate": "2025-02-01T11:00:00.000+00:00"
    },
    "request": {
      "method": "PUT",
      "url": "Condition/ScreNotatriRefAsseModDxNocp2-06"
    }
  }, {
    "fullUrl": "https://madie.cms.gov/Observation/ScreNotatriRefAsseModDxNocp2-18",
    "resource": {
      "resourceType": "Observation",
      "id": "ScreNotatriRefAsseModDxNocp2-18",
      "meta": {
        "profile": [ "http://hl7.org/fhir/us/qicore/StructureDefinition/qicore-observation" ]
      },
      "status": "final",
      "category": [ {
        "coding": [ {
          "system": "http://terminology.hl7.org/CodeSystem/observation-category",
          "code": "survey",
          "display": "Survey"
        } ]
      } ],
      "code": {
        "coding": [ {
          "system": "http://loinc.org",
          "code": "98967-3",
          "display": "Nutritional Risk Screening 2002 panel",
          "userSelected": true
        } ]
      },
      "subject": {
        "reference": "Patient/90875a8a-2cf3-4fa2-999d-91028ae92d30"
      },
      "effectiveDateTime": "2025-02-01T09:00:00.000+00:00",
      "valueCodeableConcept": {
        "coding": [ {
          "system": "http://snomed.info/sct",
          "code": "36823005",
          "display": "Normal diet (finding)",
          "userSelected": true
        } ]
      }
    },
    "request": {
      "method": "PUT",
      "url": "Observation/ScreNotatriRefAsseModDxNocp2-18"
    }
  }, {
    "fullUrl": "https://madie.cms.gov/Observation/ScreNotatriRefAsseModDxNocp2-19",
    "resource": {
      "resourceType": "Observation",
      "id": "ScreNotatriRefAsseModDxNocp2-19",
      "meta": {
        "profile": [ "http://hl7.org/fhir/us/qicore/StructureDefinition/qicore-observation" ]
      },
      "status": "final",
      "category": [ {
        "coding": [ {
          "system": "http://terminology.hl7.org/CodeSystem/observation-category",
          "code": "survey",
          "display": "Survey"
        } ]
      } ],
      "code": {
        "coding": [ {
          "system": "http://loinc.org",
          "code": "75304-6",
          "display": "Nutrition status observation panel",
          "userSelected": true
        } ]
      },
      "subject": {
        "reference": "Patient/90875a8a-2cf3-4fa2-999d-91028ae92d30"
      },
      "effectiveDateTime": "2025-02-01T10:00:00.000+00:00",
      "valueCodeableConcept": {
        "coding": [ {
          "system": "http://snomed.info/sct",
          "code": "448765001",
          "display": "Unintentional weight loss (finding)",
          "userSelected": true
        } ]
      }
    },
    "request": {
      "method": "PUT",
      "url": "Observation/ScreNotatriRefAsseModDxNocp2-19"
    }
  }, {
    "fullUrl": "https://madie.cms.gov/Procedure/ScreNotatriRefAsseModDxNocp2-12",
    "resource": {
      "resourceType": "Procedure",
      "id": "ScreNotatriRefAsseModDxNocp2-12",
      "meta": {
        "profile": [ "http://hl7.org/fhir/us/qicore/StructureDefinition/qicore-procedure" ]
      },
      "extension": [ {
        "url": "http://hl7.org/fhir/us/qicore/StructureDefinition/qicore-recorded",
        "valueDateTime": "2025-02-01T11:30:00.000Z"
      } ],
      "status": "completed",
      "code": {
        "coding": [ {
          "system": "http://snomed.info/sct",
          "code": "306354000",
          "display": "Referral to hospital-based dietitian (procedure)"
        } ],
        "text": "Referral to hospital-based dietitian (procedure)"
      },
      "subject": {
        "reference": "Patient/90875a8a-2cf3-4fa2-999d-91028ae92d30"
      },
      "encounter": {
        "reference": "Encounter/ScreNotatriRefAsseModDxNocp2"
      },
      "performedPeriod": {
        "start": "2025-02-01T11:30:00.000Z",
        "end": "2025-02-07T08:15:00.000Z"
      }
    },
    "request": {
      "method": "PUT",
      "url": "Procedure/ScreNotatriRefAsseModDxNocp2-12"
    }
  }, {
    "fullUrl": "https://madie.cms.gov/Coverage/ScreNotatriRefAsseModDxNocp2-61",
    "resource": {
      "resourceType": "Coverage",
      "id": "ScreNotatriRefAsseModDxNocp2-61",
      "meta": {
        "profile": [ "http://hl7.org/fhir/us/qicore/StructureDefinition/qicore-coverage" ]
      },
      "status": "active",
      "type": {
        "coding": [ {
          "system": "https://nahdo.org/sopt",
          "version": "9.2",
          "code": "11",
          "display": "Medicare Managed Care (Includes Medicare Advantage Plans)"
        } ]
      },
      "beneficiary": {
        "reference": "Patient/90875a8a-2cf3-4fa2-999d-91028ae92d30"
      },
      "period": {
        "start": "2024-10-01T00:00:00+00:00"
      },
      "payor": [ {
        "reference": "Organization/ScreNotatriRefAsseModDxNocp2-98"
      } ]
    },
    "request": {
      "method": "PUT",
      "url": "Coverage/ScreNotatriRefAsseModDxNocp2-61"
    }
  }, {
    "fullUrl": "https://madie.cms.gov/Organization/ScreNotatriRefAsseModDxNocp2-98",
    "resource": {
      "resourceType": "Organization",
      "id": "ScreNotatriRefAsseModDxNocp2-98",
      "meta": {
        "profile": [ "http://hl7.org/fhir/us/qicore/StructureDefinition/qicore-organization" ]
      },
      "identifier": [ {
        "use": "temp",
        "system": "urn:oid:2.16.840.1.113883.4.4",
        "value": "21-3259825"
      } ],
      "active": true,
      "type": [ {
        "coding": [ {
          "system": "http://terminology.hl7.org/CodeSystem/organization-type",
          "code": "pay",
          "display": "Payer"
        } ]
      } ],
      "name": "Blue Cross Blue Shield of Texas",
      "telecom": [ {
        "system": "phone",
        "value": "(+1) 972-766-6900"
      } ],
      "address": [ {
        "use": "billing",
        "type": "postal",
        "line": [ "P.O. Box 660044" ],
        "city": "Dallas",
        "state": "TX",
        "postalCode": "75266-0044",
        "country": "USA"
      } ]
    },
    "request": {
      "method": "PUT",
      "url": "Organization/ScreNotatriRefAsseModDxNocp2-98"
    }
  }, {
    "fullUrl": "https://madie.cms.gov/MeasureReport/0e5ce6cd-41d2-49bc-964a-19371c2c29b2",
    "resource": {
      "resourceType": "MeasureReport",
      "id": "0e5ce6cd-41d2-49bc-964a-19371c2c29b2",
      "meta": {
        "profile": [ "http://hl7.org/fhir/us/cqfmeasures/StructureDefinition/test-case-cqfm" ]
      },
      "contained": [ {
        "resourceType": "Parameters",
        "id": "0d729bba-16a6-4a51-9418-3a2b04e7dbbc-parameters",
        "parameter": [ {
          "name": "subject",
          "valueString": "90875a8a-2cf3-4fa2-999d-91028ae92d30"
        } ]
      } ],
      "extension": [ {
        "url": "http://hl7.org/fhir/us/cqfmeasures/StructureDefinition/cqfm-inputParameters",
        "valueReference": {
          "reference": "#0d729bba-16a6-4a51-9418-3a2b04e7dbbc-parameters"
        }
      }, {
        "url": "http://hl7.org/fhir/us/cqfmeasures/StructureDefinition/cqfm-testCaseDescription",
        "valueMarkdown": "Screened, Not at Risk, Referral, Assessed, Moderately Malnourished, Diagnosis, No Nutrition Care Plan"
      } ],
      "modifierExtension": [ {
        "url": "http://hl7.org/fhir/us/cqfmeasures/StructureDefinition/cqfm-isTestCase",
        "valueBoolean": true
      } ],
      "status": "complete",
      "type": "individual",
      "measure": "https://madie.cms.gov/Measure/GlobalMalnutritionCompositeFHIR",
      "period": {
        "start": "2025-01-01",
        "end": "2025-12-31"
      },
      "group": [ {
        "population": [ {
          "code": {
            "coding": [ {
              "system": "http://terminology.hl7.org/CodeSystem/measure-population",
              "code": "initial-population",
              "display": "Initial Population"
            } ]
          },
          "count": 1
        }, {
          "code": {
            "coding": [ {
              "system": "http://terminology.hl7.org/CodeSystem/measure-population",
              "code": "measure-population",
              "display": "Measure Population"
            } ]
          },
          "count": 1
        }, {
          "code": {
            "coding": [ {
              "system": "http://terminology.hl7.org/CodeSystem/measure-population",
              "code": "measure-population-observation",
              "display": "Measure Population Observation"
            } ]
          },
          "count": 1
        } ]
      }, {
        "population": [ {
          "code": {
            "coding": [ {
              "system": "http://terminology.hl7.org/CodeSystem/measure-population",
              "code": "initial-population",
              "display": "Initial Population"
            } ]
          },
          "count": 1
        }, {
          "code": {
            "coding": [ {
              "system": "http://terminology.hl7.org/CodeSystem/measure-population",
              "code": "measure-population",
              "display": "Measure Population"
            } ]
          },
          "count": 1
        }, {
          "code": {
            "coding": [ {
              "system": "http://terminology.hl7.org/CodeSystem/measure-population",
              "code": "measure-population-observation",
              "display": "Measure Population Observation"
            } ]
          },
          "count": 1
        } ]
      }, {
        "population": [ {
          "code": {
            "coding": [ {
              "system": "http://terminology.hl7.org/CodeSystem/measure-population",
              "code": "initial-population",
              "display": "Initial Population"
            } ]
          },
          "count": 1
        }, {
          "code": {
            "coding": [ {
              "system": "http://terminology.hl7.org/CodeSystem/measure-population",
              "code": "measure-population",
              "display": "Measure Population"
            } ]
          },
          "count": 1
        }, {
          "code": {
            "coding": [ {
              "system": "http://terminology.hl7.org/CodeSystem/measure-population",
              "code": "measure-population-observation",
              "display": "Measure Population Observation"
            } ]
          },
          "count": 1
        } ]
      }, {
        "population": [ {
          "code": {
            "coding": [ {
              "system": "http://terminology.hl7.org/CodeSystem/measure-population",
              "code": "initial-population",
              "display": "Initial Population"
            } ]
          },
          "count": 1
        }, {
          "code": {
            "coding": [ {
              "system": "http://terminology.hl7.org/CodeSystem/measure-population",
              "code": "measure-population",
              "display": "Measure Population"
            } ]
          },
          "count": 1
        }, {
          "code": {
            "coding": [ {
              "system": "http://terminology.hl7.org/CodeSystem/measure-population",
              "code": "measure-population-observation",
              "display": "Measure Population Observation"
            } ]
          },
          "count": 0
        } ]
      }, {
        "population": [ {
          "code": {
            "coding": [ {
              "system": "http://terminology.hl7.org/CodeSystem/measure-population",
              "code": "initial-population",
              "display": "Initial Population"
            } ]
          },
          "count": 1
        }, {
          "code": {
            "coding": [ {
              "system": "http://terminology.hl7.org/CodeSystem/measure-population",
              "code": "measure-population",
              "display": "Measure Population"
            } ]
          },
          "count": 1
        }, {
          "code": {
            "coding": [ {
              "system": "http://terminology.hl7.org/CodeSystem/measure-population",
              "code": "measure-population-observation",
              "display": "Measure Population Observation"
            } ]
          },
          "count": 3
        } ]
      }, {
        "population": [ {
          "code": {
            "coding": [ {
              "system": "http://terminology.hl7.org/CodeSystem/measure-population",
              "code": "initial-population",
              "display": "Initial Population"
            } ]
          },
          "count": 1
        }, {
          "code": {
            "coding": [ {
              "system": "http://terminology.hl7.org/CodeSystem/measure-population",
              "code": "measure-population",
              "display": "Measure Population"
            } ]
          },
          "count": 1
        }, {
          "code": {
            "coding": [ {
              "system": "http://terminology.hl7.org/CodeSystem/measure-population",
              "code": "measure-population-observation",
              "display": "Measure Population Observation"
            } ]
          },
          "count": 75
        } ]
      } ],
      "evaluatedResource": [ {
        "reference": "Patient/90875a8a-2cf3-4fa2-999d-91028ae92d30"
      }, {
        "reference": "Encounter/ScreNotatriRefAsseModDxNocp2-01"
      }, {
        "reference": "Condition/ScreNotatriRefAsseModDxNocp2-06"
      }, {
        "reference": "Observation/ScreNotatriRefAsseModDxNocp2-18"
      }, {
        "reference": "Observation/ScreNotatriRefAsseModDxNocp2-19"
      }, {
        "reference": "Procedure/ScreNotatriRefAsseModDxNocp2-12"
      }, {
        "reference": "Coverage/ScreNotatriRefAsseModDxNocp2-61"
      }, {
        "reference": "Organization/ScreNotatriRefAsseModDxNocp2-98"
      } ]
    },
    "request": {
      "method": "PUT",
      "url": "MeasureReport/0e5ce6cd-41d2-49bc-964a-19371c2c29b2"
    }
  } ]
}
