{"resourceType":"Bundle","id":"tests-0039c514-9277-46cd-9e6a-2f402b5357f5-bundle","type":"transaction","entry":[{"fullUrl":"https://madie.cms.gov/Patient/0039c514-9277-46cd-9e6a-2f402b5357f5","resource":{"resourceType":"Patient","id":"0039c514-9277-46cd-9e6a-2f402b5357f5","meta":{"profile":["http://hl7.org/fhir/us/qicore/StructureDefinition/qicore-patient"]},"extension":[{"url":"http://hl7.org/fhir/us/core/StructureDefinition/us-core-race","extension":[{"url":"ombCategory","valueCoding":{"system":"urn:oid:2.16.840.1.113883.6.238","code":"2028-9","display":"Asian","userSelected":true}},{"url":"text","valueString":"Asian"}]},{"url":"http://hl7.org/fhir/us/core/StructureDefinition/us-core-ethnicity","extension":[{"url":"ombCategory","valueCoding":{"system":"urn:oid:2.16.840.1.113883.6.238","code":"2135-2","display":"Hispanic or Latino","userSelected":true}},{"url":"text","valueString":"Hispanic or Latino"}]}],"identifier":[{"type":{"coding":[{"system":"http://terminology.hl7.org/CodeSystem/v2-0203","code":"MR"}]},"system":"http://hospital.smarthealthit.org","value":"999999995"}],"name":[{"family":"Bertha","given":["Betty"]}],"gender":"female","birthDate":"2016-12-31"},"request":{"method":"PUT","url":"Patient/0039c514-9277-46cd-9e6a-2f402b5357f5"}},{"fullUrl":"https://madie.cms.gov/Encounter/Encounter-1","resource":{"resourceType":"Encounter","id":"6696840c-dc5f-4140-93cc-df282281b4dd","meta":{"profile":["http://hl7.org/fhir/us/qicore/StructureDefinition/qicore-encounter"]},"status":"finished","class":{"system":"http://terminology.hl7.org/CodeSystem/v3-ActCode","code":"AMB","display":"ambulatory"},"type":[{"coding":[{"system":"http://snomed.info/sct","code":"185464004","display":"Out of hours visit - not night visit (procedure)"}]}],"subject":{"reference":"Patient/0039c514-9277-46cd-9e6a-2f402b5357f5"},"period":{"start":"2025-01-01T00:00:00.000Z","end":"2025-01-01T01:00:00.000Z"}},"request":{"method":"PUT","url":"Encounter/6696840c-dc5f-4140-93cc-df282281b4dd"}},{"fullUrl":"https://madie.cms.gov/MedicationRequest/MedicationRequest-1","resource":{"resourceType":"MedicationRequest","id":"fb8abd56-4a5f-4a99-9d1e-cafc46590508","meta":{"profile":["http://hl7.org/fhir/us/qicore/StructureDefinition/qicore-medicationrequest"]},"status":"completed","intent":"order","medicationCodeableConcept":{"coding":[{"system":"http://www.nlm.nih.gov/research/umls/rxnorm","code":"884173","display":"clonidine hydrochloride 0.1 MG Oral Tablet"}]},"subject":{"reference":"Patient/0039c514-9277-46cd-9e6a-2f402b5357f5"},"authoredOn":"2025-01-02T00:00:00.000Z","requester":{"reference":"Practitioner/example"},"dosageInstruction":[{"timing":{"repeat":{"boundsPeriod":{"start":"2025-01-02T00:00:00.000Z","end":"2025-07-30T23:59:59.000Z"}}}}],"dispenseRequest":{"expectedSupplyDuration":{"value":210,"system":"http://unitsofmeasure.org","code":"d"}}},"request":{"method":"PUT","url":"MedicationRequest/fb8abd56-4a5f-4a99-9d1e-cafc46590508"}},{"fullUrl":"https://madie.cms.gov/Encounter/Encounter-2","resource":{"resourceType":"Encounter","id":"e9f73d4c-3f30-4492-a9de-abad7d646e01","meta":{"profile":["http://hl7.org/fhir/us/qicore/StructureDefinition/qicore-encounter"]},"status":"finished","class":{"system":"http://terminology.hl7.org/CodeSystem/v3-ActCode","code":"AMB","display":"ambulatory"},"type":[{"coding":[{"system":"http://www.ama-assn.org/go/cpt","code":"90791","display":"Psychiatric diagnostic evaluation"}]}],"subject":{"reference":"Patient/0039c514-9277-46cd-9e6a-2f402b5357f5"},"period":{"start":"2025-01-31T00:00:00.000Z","end":"2025-01-31T01:00:00.000Z"}},"request":{"method":"PUT","url":"Encounter/e9f73d4c-3f30-4492-a9de-abad7d646e01"}},{"fullUrl":"https://madie.cms.gov/Encounter/Encounter-3","resource":{"resourceType":"Encounter","id":"2aa95d9f-a97a-428b-b3f0-c7b9d5cc8486","meta":{"profile":["http://hl7.org/fhir/us/qicore/StructureDefinition/qicore-encounter"]},"status":"finished","class":{"system":"http://terminology.hl7.org/CodeSystem/v3-ActCode","code":"AMB","display":"ambulatory"},"type":[{"coding":[{"system":"http://www.ama-assn.org/go/cpt","code":"90791","display":"Psychiatric diagnostic evaluation"}]}],"subject":{"reference":"Patient/0039c514-9277-46cd-9e6a-2f402b5357f5"},"period":{"start":"2025-06-30T00:00:00.000Z","end":"2025-06-30T01:00:00.000Z"}},"request":{"method":"PUT","url":"Encounter/2aa95d9f-a97a-428b-b3f0-c7b9d5cc8486"}},{"fullUrl":"https://madie.cms.gov/Encounter/Encounter-4","resource":{"resourceType":"Encounter","id":"f04c32dd-3ef5-4a1d-a798-19d72e608477","meta":{"profile":["http://hl7.org/fhir/us/qicore/StructureDefinition/qicore-encounter"]},"status":"finished","class":{"system":"http://terminology.hl7.org/CodeSystem/v3-ActCode","code":"AMB","display":"ambulatory"},"type":[{"coding":[{"system":"http://www.ama-assn.org/go/cpt","code":"99245","display":"Office or other outpatient consultation for a new or established patient, which requires a medically appropriate history and/or examination and high level of medical decision making. When using total time on the date of the encounter for code selection, 55 minutes must be met or exceeded."}]}],"subject":{"reference":"Patient/0039c514-9277-46cd-9e6a-2f402b5357f5"},"period":{"start":"2025-08-31T00:00:00.000Z","end":"2025-08-31T01:00:00.000Z"}},"request":{"method":"PUT","url":"Encounter/f04c32dd-3ef5-4a1d-a798-19d72e608477"}},{"fullUrl":"https://madie.cms.gov/Encounter/Encounter-5","resource":{"resourceType":"Encounter","id":"f3ae1e6a-6330-48a0-a058-e7f46bfb13be","meta":{"profile":["http://hl7.org/fhir/us/qicore/StructureDefinition/qicore-encounter"]},"status":"finished","class":{"system":"http://terminology.hl7.org/CodeSystem/v3-ActCode","code":"AMB","display":"ambulatory"},"type":[{"coding":[{"system":"http://snomed.info/sct","code":"183921001","display":"Admission to hospice for respite (procedure)"}]}],"subject":{"reference":"Patient/0039c514-9277-46cd-9e6a-2f402b5357f5"},"period":{"start":"2024-12-31T23:59:59.000Z","end":"2025-01-01T01:00:00.000Z"}},"request":{"method":"PUT","url":"Encounter/f3ae1e6a-6330-48a0-a058-e7f46bfb13be"}},{"fullUrl":"https://madie.cms.gov/MeasureReport/db6e8041-0f59-41c7-a0d6-d9b742ce5dff","resource":{"resourceType":"MeasureReport","id":"db6e8041-0f59-41c7-a0d6-d9b742ce5dff","meta":{"profile":["http://hl7.org/fhir/us/cqfmeasures/StructureDefinition/test-case-cqfm"]},"contained":[{"resourceType":"Parameters","id":"c59564d1-59fc-4e2f-bc1b-f1a44dbcc9f6-parameters","parameter":[{"name":"subject","valueString":"0039c514-9277-46cd-9e6a-2f402b5357f5"}]}],"extension":[{"url":"http://hl7.org/fhir/us/cqfmeasures/StructureDefinition/cqfm-inputParameters","valueReference":{"reference":"#c59564d1-59fc-4e2f-bc1b-f1a44dbcc9f6-parameters"}},{"url":"http://hl7.org/fhir/us/cqfmeasures/StructureDefinition/cqfm-testCaseDescription","valueMarkdown":"Hospice encounter overlaps the MP"}],"modifierExtension":[{"url":"http://hl7.org/fhir/us/cqfmeasures/StructureDefinition/cqfm-isTestCase","valueBoolean":true}],"status":"complete","type":"individual","measure":"https://madie.cms.gov/Measure/FollowUpCareforChildrenPrescribedADHDMedicationADDFHIR","period":{"start":"2025-01-01","end":"2025-12-31"},"group":[{"population":[{"code":{"coding":[{"system":"http://terminology.hl7.org/CodeSystem/measure-population","code":"initial-population","display":"Initial Population"}]},"count":1},{"code":{"coding":[{"system":"http://terminology.hl7.org/CodeSystem/measure-population","code":"denominator","display":"Denominator"}]},"count":1},{"code":{"coding":[{"system":"http://terminology.hl7.org/CodeSystem/measure-population","code":"denominator-exclusion","display":"Denominator Exclusion"}]},"count":1},{"code":{"coding":[{"system":"http://terminology.hl7.org/CodeSystem/measure-population","code":"numerator","display":"Numerator"}]},"count":0}]},{"population":[{"code":{"coding":[{"system":"http://terminology.hl7.org/CodeSystem/measure-population","code":"initial-population","display":"Initial Population"}]},"count":1},{"code":{"coding":[{"system":"http://terminology.hl7.org/CodeSystem/measure-population","code":"denominator","display":"Denominator"}]},"count":1},{"code":{"coding":[{"system":"http://terminology.hl7.org/CodeSystem/measure-population","code":"denominator-exclusion","display":"Denominator Exclusion"}]},"count":1},{"code":{"coding":[{"system":"http://terminology.hl7.org/CodeSystem/measure-population","code":"numerator","display":"Numerator"}]},"count":0}]}]},"request":{"method":"PUT","url":"MeasureReport/db6e8041-0f59-41c7-a0d6-d9b742ce5dff"}}]}