{"resourceType":"Bundle","id":"tests-82c12417-b2fd-44ea-b1b1-3fc3674746a5-bundle","type":"transaction","entry":[{"fullUrl":"https://madie.cms.gov/Patient/82c12417-b2fd-44ea-b1b1-3fc3674746a5","resource":{"resourceType":"Patient","id":"82c12417-b2fd-44ea-b1b1-3fc3674746a5","meta":{"profile":["http://hl7.org/fhir/us/qicore/StructureDefinition/qicore-patient"]},"extension":[{"url":"http://hl7.org/fhir/us/core/StructureDefinition/us-core-race","extension":[{"url":"ombCategory","valueCoding":{"system":"urn:oid:2.16.840.1.113883.6.238","code":"2028-9","display":"Asian","userSelected":true}},{"url":"text","valueString":"Asian"}]},{"url":"http://hl7.org/fhir/us/core/StructureDefinition/us-core-ethnicity","extension":[{"url":"ombCategory","valueCoding":{"system":"urn:oid:2.16.840.1.113883.6.238","code":"2135-2","display":"Hispanic or Latino","userSelected":true}},{"url":"text","valueString":"Hispanic or Latino"}]}],"identifier":[{"type":{"coding":[{"system":"http://terminology.hl7.org/CodeSystem/v2-0203","code":"MR"}]},"system":"http://hospital.smarthealthit.org","value":"999999995"}],"name":[{"family":"Bertha","given":["Betty"]}],"gender":"female","birthDate":"2016-12-31"},"request":{"method":"PUT","url":"Patient/82c12417-b2fd-44ea-b1b1-3fc3674746a5"}},{"fullUrl":"https://madie.cms.gov/Encounter/Encounter-1","resource":{"resourceType":"Encounter","id":"e0ac697f-fd94-4265-968e-824cd46a6c8f","meta":{"profile":["http://hl7.org/fhir/us/qicore/StructureDefinition/qicore-encounter"]},"status":"finished","class":{"system":"http://terminology.hl7.org/CodeSystem/v3-ActCode","code":"AMB","display":"ambulatory"},"type":[{"coding":[{"system":"http://snomed.info/sct","code":"185464004","display":"Out of hours visit - not night visit (procedure)"}]}],"subject":{"reference":"Patient/82c12417-b2fd-44ea-b1b1-3fc3674746a5"},"period":{"start":"2025-01-01T00:00:00.000Z","end":"2025-01-01T01:00:00.000Z"}},"request":{"method":"PUT","url":"Encounter/e0ac697f-fd94-4265-968e-824cd46a6c8f"}},{"fullUrl":"https://madie.cms.gov/MedicationRequest/MedicationRequest-1","resource":{"resourceType":"MedicationRequest","id":"5c16d4b5-faf3-499e-b056-bcc6ee36fc0f","meta":{"profile":["http://hl7.org/fhir/us/qicore/StructureDefinition/qicore-medicationrequest"]},"status":"active","intent":"order","medicationCodeableConcept":{"coding":[{"system":"http://www.nlm.nih.gov/research/umls/rxnorm","code":"884173","display":"clonidine hydrochloride 0.1 MG Oral Tablet"}]},"subject":{"reference":"Patient/82c12417-b2fd-44ea-b1b1-3fc3674746a5"},"authoredOn":"2025-01-02T00:00:00.000Z","requester":{"reference":"Practitioner/example"},"dosageInstruction":[{"timing":{"repeat":{"boundsPeriod":{"start":"2025-01-02T00:00:00.000Z","end":"2025-07-30T23:59:59.000Z"}}}}],"dispenseRequest":{"expectedSupplyDuration":{"value":210,"system":"http://unitsofmeasure.org","code":"d"}}},"request":{"method":"PUT","url":"MedicationRequest/5c16d4b5-faf3-499e-b056-bcc6ee36fc0f"}},{"fullUrl":"https://madie.cms.gov/Encounter/Encounter-2","resource":{"resourceType":"Encounter","id":"8760200c-87a7-4649-a3e8-ccf421347c16","meta":{"profile":["http://hl7.org/fhir/us/qicore/StructureDefinition/qicore-encounter"]},"status":"finished","class":{"system":"http://terminology.hl7.org/CodeSystem/v3-ActCode","code":"AMB","display":"ambulatory"},"type":[{"coding":[{"system":"http://www.ama-assn.org/go/cpt","code":"90791","display":"Psychiatric diagnostic evaluation"}]}],"subject":{"reference":"Patient/82c12417-b2fd-44ea-b1b1-3fc3674746a5"},"period":{"start":"2025-01-31T00:00:00.000Z","end":"2025-01-31T01:00:00.000Z"}},"request":{"method":"PUT","url":"Encounter/8760200c-87a7-4649-a3e8-ccf421347c16"}},{"fullUrl":"https://madie.cms.gov/Encounter/Encounter-3","resource":{"resourceType":"Encounter","id":"95de4a69-73e6-494d-b1b5-475abf9b615c","meta":{"profile":["http://hl7.org/fhir/us/qicore/StructureDefinition/qicore-encounter"]},"status":"finished","class":{"system":"http://terminology.hl7.org/CodeSystem/v3-ActCode","code":"AMB","display":"ambulatory"},"type":[{"coding":[{"system":"http://www.ama-assn.org/go/cpt","code":"90791","display":"Psychiatric diagnostic evaluation"}]}],"subject":{"reference":"Patient/82c12417-b2fd-44ea-b1b1-3fc3674746a5"},"period":{"start":"2025-06-30T00:00:00.000Z","end":"2025-06-30T01:00:00.000Z"}},"request":{"method":"PUT","url":"Encounter/95de4a69-73e6-494d-b1b5-475abf9b615c"}},{"fullUrl":"https://madie.cms.gov/Encounter/Encounter-4","resource":{"resourceType":"Encounter","id":"ed57edd0-e1e1-4f51-afa0-9d6e77013d40","meta":{"profile":["http://hl7.org/fhir/us/qicore/StructureDefinition/qicore-encounter"]},"status":"finished","class":{"system":"http://terminology.hl7.org/CodeSystem/v3-ActCode","code":"AMB","display":"ambulatory"},"type":[{"coding":[{"system":"http://www.ama-assn.org/go/cpt","code":"99403","display":"Preventive medicine counseling and/or risk factor reduction intervention(s) provided to an individual (separate procedure); approximately 45 minutes"}]}],"subject":{"reference":"Patient/82c12417-b2fd-44ea-b1b1-3fc3674746a5"},"period":{"start":"2025-08-31T00:00:00.000Z","end":"2025-08-31T01:00:00.000Z"}},"request":{"method":"PUT","url":"Encounter/ed57edd0-e1e1-4f51-afa0-9d6e77013d40"}},{"fullUrl":"https://madie.cms.gov/MeasureReport/8714a8b1-a9dc-4305-9dff-382636c0c99a","resource":{"resourceType":"MeasureReport","id":"8714a8b1-a9dc-4305-9dff-382636c0c99a","meta":{"profile":["http://hl7.org/fhir/us/cqfmeasures/StructureDefinition/test-case-cqfm"]},"contained":[{"resourceType":"Parameters","id":"bbc02103-6ded-4075-959b-23e66de57d53-parameters","parameter":[{"name":"subject","valueString":"82c12417-b2fd-44ea-b1b1-3fc3674746a5"}]}],"extension":[{"url":"http://hl7.org/fhir/us/cqfmeasures/StructureDefinition/cqfm-inputParameters","valueReference":{"reference":"#bbc02103-6ded-4075-959b-23e66de57d53-parameters"}},{"url":"http://hl7.org/fhir/us/cqfmeasures/StructureDefinition/cqfm-testCaseDescription","valueMarkdown":"Qualifying numerator encounter is Preventive Care Services Individual Counseling"}],"modifierExtension":[{"url":"http://hl7.org/fhir/us/cqfmeasures/StructureDefinition/cqfm-isTestCase","valueBoolean":true}],"status":"complete","type":"individual","measure":"https://madie.cms.gov/Measure/FollowUpCareforChildrenPrescribedADHDMedicationADDFHIR","period":{"start":"2025-01-01","end":"2025-12-31"},"group":[{"population":[{"code":{"coding":[{"system":"http://terminology.hl7.org/CodeSystem/measure-population","code":"initial-population","display":"Initial Population"}]},"count":1},{"code":{"coding":[{"system":"http://terminology.hl7.org/CodeSystem/measure-population","code":"denominator","display":"Denominator"}]},"count":1},{"code":{"coding":[{"system":"http://terminology.hl7.org/CodeSystem/measure-population","code":"denominator-exclusion","display":"Denominator Exclusion"}]},"count":0},{"code":{"coding":[{"system":"http://terminology.hl7.org/CodeSystem/measure-population","code":"numerator","display":"Numerator"}]},"count":1}]},{"population":[{"code":{"coding":[{"system":"http://terminology.hl7.org/CodeSystem/measure-population","code":"initial-population","display":"Initial Population"}]},"count":1},{"code":{"coding":[{"system":"http://terminology.hl7.org/CodeSystem/measure-population","code":"denominator","display":"Denominator"}]},"count":1},{"code":{"coding":[{"system":"http://terminology.hl7.org/CodeSystem/measure-population","code":"denominator-exclusion","display":"Denominator Exclusion"}]},"count":0},{"code":{"coding":[{"system":"http://terminology.hl7.org/CodeSystem/measure-population","code":"numerator","display":"Numerator"}]},"count":1}]}]},"request":{"method":"PUT","url":"MeasureReport/8714a8b1-a9dc-4305-9dff-382636c0c99a"}}]}