{"resourceType":"Bundle","id":"tests-055d7918-9022-4003-ba82-2c027437380e-bundle","type":"transaction","entry":[{"fullUrl":"https://madie.cms.gov/Patient/055d7918-9022-4003-ba82-2c027437380e","resource":{"resourceType":"Patient","id":"055d7918-9022-4003-ba82-2c027437380e","meta":{"profile":["http://hl7.org/fhir/us/qicore/StructureDefinition/qicore-patient"]},"extension":[{"url":"http://hl7.org/fhir/us/core/StructureDefinition/us-core-race","extension":[{"url":"ombCategory","valueCoding":{"system":"urn:oid:2.16.840.1.113883.6.238","code":"2028-9","display":"Asian","userSelected":true}},{"url":"text","valueString":"Asian"}]},{"url":"http://hl7.org/fhir/us/core/StructureDefinition/us-core-ethnicity","extension":[{"url":"ombCategory","valueCoding":{"system":"urn:oid:2.16.840.1.113883.6.238","code":"2135-2","display":"Hispanic or Latino","userSelected":true}},{"url":"text","valueString":"Hispanic or Latino"}]}],"identifier":[{"type":{"coding":[{"system":"http://terminology.hl7.org/CodeSystem/v2-0203","code":"MR"}]},"system":"http://hospital.smarthealthit.org","value":"999999995"}],"name":[{"family":"Bertha","given":["Betty"]}],"gender":"female","birthDate":"2016-12-31"},"request":{"method":"PUT","url":"Patient/055d7918-9022-4003-ba82-2c027437380e"}},{"fullUrl":"https://madie.cms.gov/Encounter/Encounter-1","resource":{"resourceType":"Encounter","id":"e2a7f84e-d069-4ed8-ba60-69b0d834d9c7","meta":{"profile":["http://hl7.org/fhir/us/qicore/StructureDefinition/qicore-encounter"]},"status":"finished","class":{"system":"http://terminology.hl7.org/CodeSystem/v3-ActCode","code":"AMB","display":"ambulatory"},"type":[{"coding":[{"system":"http://snomed.info/sct","code":"185464004","display":"Out of hours visit - not night visit (procedure)"}]}],"subject":{"reference":"Patient/055d7918-9022-4003-ba82-2c027437380e"},"period":{"start":"2025-01-01T00:00:00.000Z","end":"2025-01-01T01:00:00.000Z"}},"request":{"method":"PUT","url":"Encounter/e2a7f84e-d069-4ed8-ba60-69b0d834d9c7"}},{"fullUrl":"https://madie.cms.gov/MedicationRequest/MedicationRequest-1","resource":{"resourceType":"MedicationRequest","id":"13f9923f-997b-4ea1-a941-bc8a3f3ae0e8","meta":{"profile":["http://hl7.org/fhir/us/qicore/StructureDefinition/qicore-medicationrequest"]},"status":"completed","intent":"order","medicationCodeableConcept":{"coding":[{"system":"http://www.nlm.nih.gov/research/umls/rxnorm","code":"884173","display":"clonidine hydrochloride 0.1 MG Oral Tablet"}]},"subject":{"reference":"Patient/055d7918-9022-4003-ba82-2c027437380e"},"authoredOn":"2025-01-02T00:00:00.000Z","requester":{"reference":"Practitioner/example"},"dosageInstruction":[{"timing":{"repeat":{"boundsPeriod":{"start":"2025-01-02T00:00:00.000Z","end":"2025-07-30T23:59:59.000Z"}}}}],"dispenseRequest":{"expectedSupplyDuration":{"value":210,"system":"http://unitsofmeasure.org","code":"d"}}},"request":{"method":"PUT","url":"MedicationRequest/13f9923f-997b-4ea1-a941-bc8a3f3ae0e8"}},{"fullUrl":"https://madie.cms.gov/Encounter/Encounter-2","resource":{"resourceType":"Encounter","id":"8bc3b904-83a2-488b-95ed-c35a9ed27b68","meta":{"profile":["http://hl7.org/fhir/us/qicore/StructureDefinition/qicore-encounter"]},"status":"finished","class":{"system":"http://terminology.hl7.org/CodeSystem/v3-ActCode","code":"AMB","display":"ambulatory"},"type":[{"coding":[{"system":"http://www.ama-assn.org/go/cpt","code":"90791","display":"Psychiatric diagnostic evaluation"}]}],"subject":{"reference":"Patient/055d7918-9022-4003-ba82-2c027437380e"},"period":{"start":"2025-01-31T00:00:00.000Z","end":"2025-01-31T01:00:00.000Z"}},"request":{"method":"PUT","url":"Encounter/8bc3b904-83a2-488b-95ed-c35a9ed27b68"}},{"fullUrl":"https://madie.cms.gov/Encounter/Encounter-3","resource":{"resourceType":"Encounter","id":"0bc98bc5-f60b-484e-ae89-7c9f0ebf2835","meta":{"profile":["http://hl7.org/fhir/us/qicore/StructureDefinition/qicore-encounter"]},"status":"finished","class":{"system":"http://terminology.hl7.org/CodeSystem/v3-ActCode","code":"AMB","display":"ambulatory"},"type":[{"coding":[{"system":"http://www.ama-assn.org/go/cpt","code":"90791","display":"Psychiatric diagnostic evaluation"}]}],"subject":{"reference":"Patient/055d7918-9022-4003-ba82-2c027437380e"},"period":{"start":"2025-06-30T00:00:00.000Z","end":"2025-06-30T01:00:00.000Z"}},"request":{"method":"PUT","url":"Encounter/0bc98bc5-f60b-484e-ae89-7c9f0ebf2835"}},{"fullUrl":"https://madie.cms.gov/Encounter/Encounter-4","resource":{"resourceType":"Encounter","id":"5aa0567a-6d24-461d-8e33-31558950157d","meta":{"profile":["http://hl7.org/fhir/us/qicore/StructureDefinition/qicore-encounter"]},"status":"finished","class":{"system":"http://terminology.hl7.org/CodeSystem/v3-ActCode","code":"AMB","display":"ambulatory"},"type":[{"coding":[{"system":"http://www.ama-assn.org/go/cpt","code":"99342","display":"Home or residence visit for the evaluation and management of a new patient, which requires a medically appropriate history and/or examination and low level of medical decision making. When using total time on the date of the encounter for code selection, 30 minutes must be met or exceeded."}]}],"subject":{"reference":"Patient/055d7918-9022-4003-ba82-2c027437380e"},"period":{"start":"2025-08-31T00:00:00.000Z","end":"2025-08-31T01:00:00.000Z"}},"request":{"method":"PUT","url":"Encounter/5aa0567a-6d24-461d-8e33-31558950157d"}},{"fullUrl":"https://madie.cms.gov/MeasureReport/b900e58a-5737-4f96-a3cb-ecc08e32bfd0","resource":{"resourceType":"MeasureReport","id":"b900e58a-5737-4f96-a3cb-ecc08e32bfd0","meta":{"profile":["http://hl7.org/fhir/us/cqfmeasures/StructureDefinition/test-case-cqfm"]},"contained":[{"resourceType":"Parameters","id":"073ace83-7853-45ff-8700-6a85139e345e-parameters","parameter":[{"name":"subject","valueString":"055d7918-9022-4003-ba82-2c027437380e"}]}],"extension":[{"url":"http://hl7.org/fhir/us/cqfmeasures/StructureDefinition/cqfm-inputParameters","valueReference":{"reference":"#073ace83-7853-45ff-8700-6a85139e345e-parameters"}},{"url":"http://hl7.org/fhir/us/cqfmeasures/StructureDefinition/cqfm-testCaseDescription","valueMarkdown":"Qualifying encounter is a home healthcare service"}],"modifierExtension":[{"url":"http://hl7.org/fhir/us/cqfmeasures/StructureDefinition/cqfm-isTestCase","valueBoolean":true}],"status":"complete","type":"individual","measure":"https://madie.cms.gov/Measure/FollowUpCareforChildrenPrescribedADHDMedicationADDFHIR","period":{"start":"2025-01-01","end":"2025-12-31"},"group":[{"population":[{"code":{"coding":[{"system":"http://terminology.hl7.org/CodeSystem/measure-population","code":"initial-population","display":"Initial Population"}]},"count":1},{"code":{"coding":[{"system":"http://terminology.hl7.org/CodeSystem/measure-population","code":"denominator","display":"Denominator"}]},"count":1},{"code":{"coding":[{"system":"http://terminology.hl7.org/CodeSystem/measure-population","code":"denominator-exclusion","display":"Denominator Exclusion"}]},"count":0},{"code":{"coding":[{"system":"http://terminology.hl7.org/CodeSystem/measure-population","code":"numerator","display":"Numerator"}]},"count":1}]},{"population":[{"code":{"coding":[{"system":"http://terminology.hl7.org/CodeSystem/measure-population","code":"initial-population","display":"Initial Population"}]},"count":1},{"code":{"coding":[{"system":"http://terminology.hl7.org/CodeSystem/measure-population","code":"denominator","display":"Denominator"}]},"count":1},{"code":{"coding":[{"system":"http://terminology.hl7.org/CodeSystem/measure-population","code":"denominator-exclusion","display":"Denominator Exclusion"}]},"count":0},{"code":{"coding":[{"system":"http://terminology.hl7.org/CodeSystem/measure-population","code":"numerator","display":"Numerator"}]},"count":1}]}]},"request":{"method":"PUT","url":"MeasureReport/b900e58a-5737-4f96-a3cb-ecc08e32bfd0"}}]}