{
  "resourceType": "Bundle",
  "id": "633c9d040968f8012250fcad",
  "type": "transaction",
  "entry": [ {
    "fullUrl": "https://madie.cms.gov/Patient/fd13e14c-cd97-4e81-9a69-e638b0a1fa58",
    "resource": {
      "resourceType": "Patient",
      "id": "fd13e14c-cd97-4e81-9a69-e638b0a1fa58",
      "meta": {
        "profile": [ "http://hl7.org/fhir/us/qicore/StructureDefinition/qicore-patient" ]
      },
      "text": {
        "status": "generated",
        "div": "<div xmlns=\"http://www.w3.org/1999/xhtml\"><div class=\"hapiHeaderText\">MultipleIPEncounter <b>IPPFAIL </b></div><table class=\"hapiPropertyTable\"><tbody><tr><td>Identifier</td><td>946910ea4598e45468b2565ed3cdbc9e</td></tr><tr><td>Date of birth</td><td><span>01 December 1960</span></td></tr></tbody></table></div>"
      },
      "extension": [ {
        "url": "http://hl7.org/fhir/us/core/StructureDefinition/us-core-race",
        "extension": [ {
          "url": "ombCategory",
          "valueCoding": {
            "system": "urn:oid:2.16.840.1.113883.6.238",
            "code": "1002-5",
            "display": "American Indian or Alaska Native",
            "userSelected": true
          }
        }, {
          "url": "text",
          "valueString": "American Indian or Alaska Native"
        } ]
      }, {
        "url": "http://hl7.org/fhir/us/core/StructureDefinition/us-core-ethnicity",
        "extension": [ {
          "url": "ombCategory",
          "valueCoding": {
            "system": "urn:oid:2.16.840.1.113883.6.238",
            "code": "2135-2",
            "display": "Hispanic or Latino",
            "userSelected": true
          }
        }, {
          "url": "text",
          "valueString": "Hispanic or Latino"
        } ]
      } ],
      "identifier": [ {
        "type": {
          "coding": [ {
            "system": "http://terminology.hl7.org/CodeSystem/v2-0203",
            "code": "MR"
          } ]
        },
        "system": "https://bonnie-fhir.healthit.gov/",
        "value": "633c9d040968f8012250fcad"
      } ],
      "active": true,
      "name": [ {
        "use": "usual",
        "family": "IPPFail",
        "given": [ "MultipleIPEncounter" ]
      } ],
      "gender": "male",
      "birthDate": "1961-12-01"
    },
    "request": {
      "method": "PUT",
      "url": "Patient/fd13e14c-cd97-4e81-9a69-e638b0a1fa58"
    }
  }, {
    "fullUrl": "https://madie.cms.gov/Encounter/561c85dd-4364-4fe5-91d7-4e81252b45f1",
    "resource": {
      "resourceType": "Encounter",
      "id": "561c85dd-4364-4fe5-91d7-4e81252b45f1",
      "meta": {
        "profile": [ "http://hl7.org/fhir/us/qicore/StructureDefinition/qicore-encounter" ]
      },
      "status": "finished",
      "class": {
        "system": "http://terminology.hl7.org/CodeSystem/v3-ActCode",
        "code": "EMER",
        "display": "emergency"
      },
      "type": [ {
        "coding": [ {
          "system": "http://snomed.info/sct",
          "code": "4525004"
        } ]
      } ],
      "subject": {
        "reference": "Patient/fd13e14c-cd97-4e81-9a69-e638b0a1fa58"
      },
      "period": {
        "start": "2026-02-08T08:00:00.000Z",
        "end": "2026-02-08T08:15:00.000Z"
      },
      "length": {
        "value": 0.0,
        "unit": "days"
      },
      "diagnosis": [ {
        "condition": {
          "reference": "Condition/53b34927-b4f5-4bea-b8ba-ae23269089dc"
        },
        "rank": 1
      } ]
    },
    "request": {
      "method": "PUT",
      "url": "Encounter/561c85dd-4364-4fe5-91d7-4e81252b45f1"
    }
  }, {
    "fullUrl": "https://madie.cms.gov/Encounter/85b8efd6-1ffc-4718-8f1d-83116bd3b02f",
    "resource": {
      "resourceType": "Encounter",
      "id": "85b8efd6-1ffc-4718-8f1d-83116bd3b02f",
      "meta": {
        "profile": [ "http://hl7.org/fhir/us/qicore/StructureDefinition/qicore-encounter" ]
      },
      "status": "finished",
      "class": {
        "system": "http://terminology.hl7.org/CodeSystem/v3-ActCode",
        "code": "IMP",
        "display": "inpatient encounter"
      },
      "type": [ {
        "coding": [ {
          "system": "http://snomed.info/sct",
          "code": "183452005"
        } ]
      } ],
      "subject": {
        "reference": "Patient/fd13e14c-cd97-4e81-9a69-e638b0a1fa58"
      },
      "period": {
        "start": "2026-02-08T08:20:00.000Z",
        "end": "2026-02-10T08:15:00.000Z"
      },
      "diagnosis": [ {
        "condition": {
          "reference": "Condition/43c69e45-da94-41b6-bfc9-490fa96c6df4"
        },
        "rank": 1
      } ]
    },
    "request": {
      "method": "PUT",
      "url": "Encounter/85b8efd6-1ffc-4718-8f1d-83116bd3b02f"
    }
  }, {
    "fullUrl": "https://madie.cms.gov/Encounter/9afecf2c-5b83-4cd1-840f-926508dbd545",
    "resource": {
      "resourceType": "Encounter",
      "id": "9afecf2c-5b83-4cd1-840f-926508dbd545",
      "meta": {
        "profile": [ "http://hl7.org/fhir/us/qicore/StructureDefinition/qicore-encounter" ]
      },
      "status": "finished",
      "class": {
        "system": "http://terminology.hl7.org/CodeSystem/v3-ActCode",
        "code": "IMP",
        "display": "inpatient encounter"
      },
      "type": [ {
        "coding": [ {
          "system": "http://snomed.info/sct",
          "code": "183452005"
        } ]
      } ],
      "subject": {
        "reference": "Patient/fd13e14c-cd97-4e81-9a69-e638b0a1fa58"
      },
      "period": {
        "start": "2026-02-07T08:00:00.000Z",
        "end": "2026-02-11T08:15:00.000Z"
      }
    },
    "request": {
      "method": "PUT",
      "url": "Encounter/9afecf2c-5b83-4cd1-840f-926508dbd545"
    }
  }, {
    "fullUrl": "https://madie.cms.gov/Coverage/f0bcb2f4-04c8-4955-9bdb-c920714694a2",
    "resource": {
      "resourceType": "Coverage",
      "id": "f0bcb2f4-04c8-4955-9bdb-c920714694a2",
      "status": "active",
      "beneficiary": {
        "reference": "Patient/fd13e14c-cd97-4e81-9a69-e638b0a1fa58"
      },
      "period": {
        "start": "1961-12-01T01:00:00.000Z"
      },
      "payor": [ {
        "reference": "Organization/f6518a05-9dda-4478-8187-2f09d3d3638c"
      } ]
    },
    "request": {
      "method": "PUT",
      "url": "Coverage/f0bcb2f4-04c8-4955-9bdb-c920714694a2"
    }
  }, {
    "fullUrl": "https://madie.cms.gov/Condition/43c69e45-da94-41b6-bfc9-490fa96c6df4",
    "resource": {
      "resourceType": "Condition",
      "id": "43c69e45-da94-41b6-bfc9-490fa96c6df4",
      "meta": {
        "profile": [ "http://hl7.org/fhir/us/qicore/StructureDefinition/qicore-condition" ]
      },
      "clinicalStatus": {
        "coding": [ {
          "system": "http://terminology.hl7.org/CodeSystem/condition-clinical",
          "code": "active"
        } ]
      },
      "verificationStatus": {
        "coding": [ {
          "system": "http://terminology.hl7.org/CodeSystem/condition-ver-status",
          "code": "confirmed"
        } ]
      },
      "category": [ {
        "coding": [ {
          "system": "http://terminology.hl7.org/CodeSystem/condition-category",
          "code": "encounter-diagnosis",
          "display": "Encounter Diagnosis"
        } ]
      } ],
      "code": {
        "coding": [ {
          "system": "http://snomed.info/sct",
          "version": "2021-09",
          "code": "120041000119109",
          "display": "Atrial fibrillation with rapid ventricular response (disorder)",
          "userSelected": true
        } ]
      },
      "subject": {
        "reference": "Patient/fd13e14c-cd97-4e81-9a69-e638b0a1fa58"
      },
      "recordedDate": "2026-10-13T08:00:00.000+00:00"
    },
    "request": {
      "method": "PUT",
      "url": "Condition/43c69e45-da94-41b6-bfc9-490fa96c6df4"
    }
  }, {
    "fullUrl": "https://madie.cms.gov/Condition/53b34927-b4f5-4bea-b8ba-ae23269089dc",
    "resource": {
      "resourceType": "Condition",
      "id": "53b34927-b4f5-4bea-b8ba-ae23269089dc",
      "meta": {
        "profile": [ "http://hl7.org/fhir/us/qicore/StructureDefinition/qicore-condition" ]
      },
      "clinicalStatus": {
        "coding": [ {
          "system": "http://terminology.hl7.org/CodeSystem/condition-clinical",
          "code": "active"
        } ]
      },
      "verificationStatus": {
        "coding": [ {
          "system": "http://terminology.hl7.org/CodeSystem/condition-ver-status",
          "code": "confirmed"
        } ]
      },
      "category": [ {
        "coding": [ {
          "system": "http://terminology.hl7.org/CodeSystem/condition-category",
          "code": "encounter-diagnosis",
          "display": "Encounter Diagnosis"
        } ]
      } ],
      "code": {
        "coding": [ {
          "system": "http://snomed.info/sct",
          "version": "2021-09",
          "code": "111297002",
          "display": "Nonparalytic stroke (disorder)",
          "userSelected": true
        } ]
      },
      "subject": {
        "reference": "Patient/fd13e14c-cd97-4e81-9a69-e638b0a1fa58"
      },
      "recordedDate": "2026-10-13T08:00:00.000+00:00"
    },
    "request": {
      "method": "PUT",
      "url": "Condition/53b34927-b4f5-4bea-b8ba-ae23269089dc"
    }
  }, {
    "fullUrl": "https://madie.cms.gov/Organization/f6518a05-9dda-4478-8187-2f09d3d3638c",
    "resource": {
      "resourceType": "Organization",
      "id": "f6518a05-9dda-4478-8187-2f09d3d3638c",
      "meta": {
        "profile": [ "http://hl7.org/fhir/us/qicore/StructureDefinition/qicore-organization" ]
      },
      "identifier": [ {
        "use": "temp",
        "system": "urn:oid:2.16.840.1.113883.4.4",
        "value": "21-3259825"
      } ],
      "active": true,
      "type": [ {
        "coding": [ {
          "system": "http://terminology.hl7.org/CodeSystem/organization-type",
          "code": "pay",
          "display": "Payer"
        } ]
      } ],
      "name": "Blue Cross Blue Shield of Texas",
      "telecom": [ {
        "system": "phone",
        "value": "(+1) 972-766-6900"
      } ],
      "address": [ {
        "use": "billing",
        "type": "postal",
        "line": [ "P.O. Box 660044" ],
        "city": "Dallas",
        "state": "TX",
        "postalCode": "75266-0044",
        "country": "USA"
      } ]
    },
    "request": {
      "method": "PUT",
      "url": "Organization/f6518a05-9dda-4478-8187-2f09d3d3638c"
    }
  }, {
    "fullUrl": "https://madie.cms.gov/Practitioner/fb6009a2-558f-4d64-af83-b00f12e09aa7",
    "resource": {
      "resourceType": "Practitioner",
      "id": "fb6009a2-558f-4d64-af83-b00f12e09aa7",
      "identifier": [ {
        "system": "http://hl7.org/fhir/sid/us-npi",
        "value": "123456"
      } ],
      "name": [ {
        "family": "Evil",
        "prefix": [ "Dr" ]
      } ]
    },
    "request": {
      "method": "PUT",
      "url": "Practitioner/fb6009a2-558f-4d64-af83-b00f12e09aa7"
    }
  }, {
    "fullUrl": "https://madie.cms.gov/MeasureReport/a2dd5660-3cca-48f6-942f-9f783e438268",
    "resource": {
      "resourceType": "MeasureReport",
      "id": "a2dd5660-3cca-48f6-942f-9f783e438268",
      "meta": {
        "profile": [ "http://hl7.org/fhir/us/cqfmeasures/StructureDefinition/test-case-cqfm" ]
      },
      "contained": [ {
        "resourceType": "Parameters",
        "id": "7df52ff4-d621-4af2-bb3a-95d201b619f1-parameters",
        "parameter": [ {
          "name": "subject",
          "valueString": "fd13e14c-cd97-4e81-9a69-e638b0a1fa58"
        } ]
      } ],
      "extension": [ {
        "url": "http://hl7.org/fhir/us/cqfmeasures/StructureDefinition/cqfm-inputParameters",
        "valueReference": {
          "reference": "#7df52ff4-d621-4af2-bb3a-95d201b619f1-parameters"
        }
      }, {
        "url": "http://hl7.org/fhir/us/cqfmeasures/StructureDefinition/cqfm-testCaseDescription",
        "valueMarkdown": "ED visit with Principal Dx = Ischemic Stroke. No inpatient encounter \n"
      } ],
      "modifierExtension": [ {
        "url": "http://hl7.org/fhir/us/cqfmeasures/StructureDefinition/cqfm-isTestCase",
        "valueBoolean": true
      } ],
      "status": "complete",
      "type": "individual",
      "measure": "https://madie.cms.gov/Measure/CMS71FHIRSTKAnticoagAFFlutter",
      "period": {
        "start": "2026-01-01",
        "end": "2026-12-31"
      },
      "group": [ {
        "population": [ {
          "code": {
            "coding": [ {
              "system": "http://terminology.hl7.org/CodeSystem/measure-population",
              "code": "initial-population",
              "display": "Initial Population"
            } ]
          },
          "count": 0
        }, {
          "code": {
            "coding": [ {
              "system": "http://terminology.hl7.org/CodeSystem/measure-population",
              "code": "denominator",
              "display": "Denominator"
            } ]
          },
          "count": 0
        }, {
          "code": {
            "coding": [ {
              "system": "http://terminology.hl7.org/CodeSystem/measure-population",
              "code": "denominator-exclusion",
              "display": "Denominator Exclusion"
            } ]
          },
          "count": 0
        }, {
          "code": {
            "coding": [ {
              "system": "http://terminology.hl7.org/CodeSystem/measure-population",
              "code": "numerator",
              "display": "Numerator"
            } ]
          },
          "count": 0
        }, {
          "code": {
            "coding": [ {
              "system": "http://terminology.hl7.org/CodeSystem/measure-population",
              "code": "denominator-exception",
              "display": "Denominator Exception"
            } ]
          },
          "count": 0
        } ]
      } ],
      "evaluatedResource": [ {
        "reference": "Patient/fd13e14c-cd97-4e81-9a69-e638b0a1fa58"
      }, {
        "reference": "Encounter/561c85dd-4364-4fe5-91d7-4e81252b45f1"
      }, {
        "reference": "Encounter/85b8efd6-1ffc-4718-8f1d-83116bd3b02f"
      }, {
        "reference": "Encounter/9afecf2c-5b83-4cd1-840f-926508dbd545"
      }, {
        "reference": "Coverage/f0bcb2f4-04c8-4955-9bdb-c920714694a2"
      }, {
        "reference": "Condition/43c69e45-da94-41b6-bfc9-490fa96c6df4"
      }, {
        "reference": "Condition/53b34927-b4f5-4bea-b8ba-ae23269089dc"
      }, {
        "reference": "Organization/f6518a05-9dda-4478-8187-2f09d3d3638c"
      }, {
        "reference": "Practitioner/fb6009a2-558f-4d64-af83-b00f12e09aa7"
      } ]
    },
    "request": {
      "method": "PUT",
      "url": "MeasureReport/a2dd5660-3cca-48f6-942f-9f783e438268"
    }
  } ]
}