{
  "resourceType": "Bundle",
  "id": "633b3f9e0968f80122503cd9",
  "type": "transaction",
  "entry": [ {
    "fullUrl": "https://madie.cms.gov/Patient/3d4b6868-31ce-42f8-87c1-ab06d851d53f",
    "resource": {
      "resourceType": "Patient",
      "id": "3d4b6868-31ce-42f8-87c1-ab06d851d53f",
      "meta": {
        "profile": [ "http://hl7.org/fhir/us/qicore/StructureDefinition/qicore-patient" ]
      },
      "text": {
        "status": "generated",
        "div": "<div xmlns=\"http://www.w3.org/1999/xhtml\"><div class=\"hapiHeaderText\">DELEncCalEGAEQ19Wks6Days <b>DENOMFAIL </b></div><table class=\"hapiPropertyTable\"><tbody><tr><td>Date of birth</td><td><span>01 February 1958</span></td></tr></tbody></table></div>"
      },
      "extension": [ {
        "url": "http://hl7.org/fhir/us/core/StructureDefinition/us-core-race",
        "extension": [ {
          "url": "ombCategory",
          "valueCoding": {
            "system": "urn:oid:2.16.840.1.113883.6.238",
            "code": "1002-5",
            "display": "American Indian or Alaska Native",
            "userSelected": true
          }
        }, {
          "url": "text",
          "valueString": "American Indian or Alaska Native"
        } ]
      }, {
        "url": "http://hl7.org/fhir/us/core/StructureDefinition/us-core-ethnicity",
        "extension": [ {
          "url": "ombCategory",
          "valueCoding": {
            "system": "urn:oid:2.16.840.1.113883.6.238",
            "code": "2135-2",
            "display": "Hispanic or Latino",
            "userSelected": true
          }
        }, {
          "url": "text",
          "valueString": "Hispanic or Latino"
        } ]
      } ],
      "identifier": [ {
        "type": {
          "coding": [ {
            "system": "http://terminology.hl7.org/CodeSystem/v2-0203",
            "code": "MR"
          } ]
        },
        "system": "https://bonnie-fhir.healthit.gov/",
        "value": "633b3f9e0968f80122503cd9"
      } ],
      "active": true,
      "name": [ {
        "use": "usual",
        "family": "DENOMFail",
        "given": [ "DELEncCalEGAEQ19Wks6Days" ]
      } ],
      "gender": "female",
      "birthDate": "1970-02-01"
    },
    "request": {
      "method": "PUT",
      "url": "Patient/3d4b6868-31ce-42f8-87c1-ab06d851d53f"
    }
  }, {
    "fullUrl": "https://madie.cms.gov/Observation/ced2f174-eeed-4662-be8a-07d3189ff849",
    "resource": {
      "resourceType": "Observation",
      "id": "ced2f174-eeed-4662-be8a-07d3189ff849",
      "meta": {
        "profile": [ "http://hl7.org/fhir/us/qicore/StructureDefinition/qicore-observation" ]
      },
      "status": "final",
      "category": [ {
        "coding": [ {
          "system": "http://terminology.hl7.org/CodeSystem/observation-category",
          "code": "exam",
          "display": "exam",
          "userSelected": true
        } ]
      } ],
      "code": {
        "coding": [ {
          "system": "http://loinc.org",
          "code": "93857-1"
        } ]
      },
      "subject": {
        "reference": "Patient/3d4b6868-31ce-42f8-87c1-ab06d851d53f"
      },
      "effectiveDateTime": "2025-01-15T08:00:00.000+00:00",
      "valueDateTime": "2025-01-15T08:00:00+00:00"
    },
    "request": {
      "method": "PUT",
      "url": "Observation/ced2f174-eeed-4662-be8a-07d3189ff849"
    }
  }, {
    "fullUrl": "https://madie.cms.gov/Observation/6eea6b5e-9c1b-4c57-901e-45aa46aac7a7",
    "resource": {
      "resourceType": "Observation",
      "id": "6eea6b5e-9c1b-4c57-901e-45aa46aac7a7",
      "meta": {
        "profile": [ "http://hl7.org/fhir/us/qicore/StructureDefinition/qicore-observation" ]
      },
      "status": "final",
      "category": [ {
        "coding": [ {
          "system": "http://terminology.hl7.org/CodeSystem/observation-category",
          "code": "exam",
          "display": "exam",
          "userSelected": true
        } ]
      } ],
      "code": {
        "coding": [ {
          "system": "http://loinc.org",
          "code": "11778-8"
        } ]
      },
      "subject": {
        "reference": "Patient/3d4b6868-31ce-42f8-87c1-ab06d851d53f"
      },
      "effectiveDateTime": "2025-01-15T08:00:00.000+00:00",
      "valueDateTime": "2025-06-05T08:00:00.000+00:00"
    },
    "request": {
      "method": "PUT",
      "url": "Observation/6eea6b5e-9c1b-4c57-901e-45aa46aac7a7"
    }
  }, {
    "fullUrl": "https://madie.cms.gov/Encounter/5ccb6be4-5468-4f8a-9aec-1bcd4f50567f",
    "resource": {
      "resourceType": "Encounter",
      "id": "5ccb6be4-5468-4f8a-9aec-1bcd4f50567f",
      "meta": {
        "profile": [ "http://hl7.org/fhir/us/qicore/StructureDefinition/qicore-encounter" ]
      },
      "status": "finished",
      "class": {
        "system": "http://terminology.hl7.org/CodeSystem/v3-ActCode",
        "code": "IMP",
        "display": "inpatient encounter"
      },
      "type": [ {
        "coding": [ {
          "system": "http://snomed.info/sct",
          "code": "183452005"
        } ]
      } ],
      "subject": {
        "reference": "Patient/3d4b6868-31ce-42f8-87c1-ab06d851d53f"
      },
      "period": {
        "start": "2025-01-01T08:00:00.000Z",
        "end": "2025-02-05T08:15:00.000Z"
      }
    },
    "request": {
      "method": "PUT",
      "url": "Encounter/5ccb6be4-5468-4f8a-9aec-1bcd4f50567f"
    }
  }, {
    "fullUrl": "https://madie.cms.gov/Coverage/b68b7376-5229-4b9e-b223-1ef69d760cb8",
    "resource": {
      "resourceType": "Coverage",
      "id": "b68b7376-5229-4b9e-b223-1ef69d760cb8",
      "status": "active",
      "beneficiary": {
        "reference": "Patient/3d4b6868-31ce-42f8-87c1-ab06d851d53f"
      },
      "period": {
        "start": "1958-02-01T08:00:00.000Z"
      },
      "payor": [ {
        "reference": "Organization/03c18e1f-d789-4732-9130-284d57729d2a"
      } ]
    },
    "request": {
      "method": "PUT",
      "url": "Coverage/b68b7376-5229-4b9e-b223-1ef69d760cb8"
    }
  }, {
    "fullUrl": "https://madie.cms.gov/Procedure/1d6bc5b8-4b27-4317-a038-d4eff38c819e",
    "resource": {
      "resourceType": "Procedure",
      "id": "1d6bc5b8-4b27-4317-a038-d4eff38c819e",
      "meta": {
        "profile": [ "http://hl7.org/fhir/us/qicore/StructureDefinition/qicore-procedure" ]
      },
      "extension": [ {
        "url": "http://hl7.org/fhir/us/qicore/StructureDefinition/qicore-recorded",
        "valueDateTime": "2013-04-05T09:35:00-04:00"
      } ],
      "status": "completed",
      "code": {
        "coding": [ {
          "system": "http://snomed.info/sct",
          "code": "10745001"
        } ]
      },
      "subject": {
        "reference": "Patient/3d4b6868-31ce-42f8-87c1-ab06d851d53f"
      },
      "performedPeriod": {
        "start": "2025-01-01T08:00:00.000Z"
      }
    },
    "request": {
      "method": "PUT",
      "url": "Procedure/1d6bc5b8-4b27-4317-a038-d4eff38c819e"
    }
  }, {
    "fullUrl": "https://madie.cms.gov/Organization/03c18e1f-d789-4732-9130-284d57729d2a",
    "resource": {
      "resourceType": "Organization",
      "id": "03c18e1f-d789-4732-9130-284d57729d2a",
      "meta": {
        "profile": [ "http://hl7.org/fhir/us/qicore/StructureDefinition/qicore-organization" ]
      },
      "identifier": [ {
        "use": "temp",
        "system": "urn:oid:2.16.840.1.113883.4.4",
        "value": "21-3259825"
      } ],
      "active": true,
      "type": [ {
        "coding": [ {
          "system": "http://terminology.hl7.org/CodeSystem/organization-type",
          "code": "pay",
          "display": "Payer"
        } ]
      } ],
      "name": "Blue Cross Blue Shield of Texas",
      "telecom": [ {
        "system": "phone",
        "value": "(+1) 972-766-6900"
      } ],
      "address": [ {
        "use": "billing",
        "type": "postal",
        "line": [ "P.O. Box 660044" ],
        "city": "Dallas",
        "state": "TX",
        "postalCode": "75266-0044",
        "country": "USA"
      } ]
    },
    "request": {
      "method": "PUT",
      "url": "Organization/03c18e1f-d789-4732-9130-284d57729d2a"
    }
  }, {
    "fullUrl": "https://madie.cms.gov/Practitioner/047f7729-8539-40cd-a5fa-82d56a712160",
    "resource": {
      "resourceType": "Practitioner",
      "id": "047f7729-8539-40cd-a5fa-82d56a712160",
      "identifier": [ {
        "system": "http://hl7.org/fhir/sid/us-npi",
        "value": "123456"
      } ],
      "name": [ {
        "family": "Evil",
        "prefix": [ "Dr" ]
      } ]
    },
    "request": {
      "method": "PUT",
      "url": "Practitioner/047f7729-8539-40cd-a5fa-82d56a712160"
    }
  }, {
    "fullUrl": "https://madie.cms.gov/MeasureReport/e89fb029-2579-46f9-b1b5-922c7b42c70d",
    "resource": {
      "resourceType": "MeasureReport",
      "id": "e89fb029-2579-46f9-b1b5-922c7b42c70d",
      "meta": {
        "profile": [ "http://hl7.org/fhir/us/cqfmeasures/StructureDefinition/test-case-cqfm" ]
      },
      "contained": [ {
        "resourceType": "Parameters",
        "id": "d9e6c0d0-b901-4b87-8293-9ea76b4c99e3-parameters",
        "parameter": [ {
          "name": "subject",
          "valueString": "3d4b6868-31ce-42f8-87c1-ab06d851d53f"
        } ]
      } ],
      "extension": [ {
        "url": "http://hl7.org/fhir/us/cqfmeasures/StructureDefinition/cqfm-inputParameters",
        "valueReference": {
          "reference": "#d9e6c0d0-b901-4b87-8293-9ea76b4c99e3-parameters"
        }
      }, {
        "url": "http://hl7.org/fhir/us/cqfmeasures/StructureDefinition/cqfm-testCaseDescription",
        "valueMarkdown": "Calculated EGA = 19 weeks and 6 days\n"
      } ],
      "modifierExtension": [ {
        "url": "http://hl7.org/fhir/us/cqfmeasures/StructureDefinition/cqfm-isTestCase",
        "valueBoolean": true
      } ],
      "status": "complete",
      "type": "individual",
      "measure": "https://madie.cms.gov/Measure/CMS1028FHIRPCSevereOBComps",
      "period": {
        "start": "2025-01-01",
        "end": "2025-12-31"
      },
      "group": [ {
        "population": [ {
          "code": {
            "coding": [ {
              "system": "http://terminology.hl7.org/CodeSystem/measure-population",
              "code": "initial-population",
              "display": "Initial Population"
            } ]
          },
          "count": 1
        }, {
          "code": {
            "coding": [ {
              "system": "http://terminology.hl7.org/CodeSystem/measure-population",
              "code": "denominator",
              "display": "Denominator"
            } ]
          },
          "count": 0
        }, {
          "code": {
            "coding": [ {
              "system": "http://terminology.hl7.org/CodeSystem/measure-population",
              "code": "numerator",
              "display": "Numerator"
            } ]
          },
          "count": 0
        }, {
          "code": {
            "coding": [ {
              "system": "http://terminology.hl7.org/CodeSystem/measure-population",
              "code": "numerator-exclusion",
              "display": "Numerator Exclusion"
            } ]
          },
          "count": 0
        } ]
      }, {
        "population": [ {
          "code": {
            "coding": [ {
              "system": "http://terminology.hl7.org/CodeSystem/measure-population",
              "code": "initial-population",
              "display": "Initial Population"
            } ]
          },
          "count": 1
        }, {
          "code": {
            "coding": [ {
              "system": "http://terminology.hl7.org/CodeSystem/measure-population",
              "code": "denominator",
              "display": "Denominator"
            } ]
          },
          "count": 0
        }, {
          "code": {
            "coding": [ {
              "system": "http://terminology.hl7.org/CodeSystem/measure-population",
              "code": "numerator",
              "display": "Numerator"
            } ]
          },
          "count": 0
        }, {
          "code": {
            "coding": [ {
              "system": "http://terminology.hl7.org/CodeSystem/measure-population",
              "code": "numerator-exclusion",
              "display": "Numerator Exclusion"
            } ]
          },
          "count": 0
        } ]
      } ],
      "evaluatedResource": [ {
        "reference": "Patient/3d4b6868-31ce-42f8-87c1-ab06d851d53f"
      }, {
        "reference": "Observation/ced2f174-eeed-4662-be8a-07d3189ff849"
      }, {
        "reference": "Observation/6eea6b5e-9c1b-4c57-901e-45aa46aac7a7"
      }, {
        "reference": "Encounter/5ccb6be4-5468-4f8a-9aec-1bcd4f50567f"
      }, {
        "reference": "Coverage/b68b7376-5229-4b9e-b223-1ef69d760cb8"
      }, {
        "reference": "Procedure/1d6bc5b8-4b27-4317-a038-d4eff38c819e"
      }, {
        "reference": "Organization/03c18e1f-d789-4732-9130-284d57729d2a"
      }, {
        "reference": "Practitioner/047f7729-8539-40cd-a5fa-82d56a712160"
      } ]
    },
    "request": {
      "method": "PUT",
      "url": "MeasureReport/e89fb029-2579-46f9-b1b5-922c7b42c70d"
    }
  } ]
}