{"resourceType":"Bundle","id":"tests-d3e306b5-c89f-4638-9794-ccce26dbb635-bundle","type":"transaction","entry":[{"fullUrl":"https://madie.cms.gov/Patient/d3e306b5-c89f-4638-9794-ccce26dbb635","resource":{"resourceType":"Patient","id":"d3e306b5-c89f-4638-9794-ccce26dbb635","meta":{"profile":["http://hl7.org/fhir/us/qicore/StructureDefinition/qicore-patient"]},"extension":[{"url":"http://hl7.org/fhir/us/core/StructureDefinition/us-core-race","extension":[{"url":"ombCategory","valueCoding":{"system":"urn:oid:2.16.840.1.113883.6.238","code":"1002-5","display":"American Indian or Alaska Native","userSelected":true}},{"url":"text","valueString":"American Indian or Alaska Native"}]},{"url":"http://hl7.org/fhir/us/core/StructureDefinition/us-core-ethnicity","extension":[{"url":"ombCategory","valueCoding":{"system":"urn:oid:2.16.840.1.113883.6.238","code":"2135-2","display":"Hispanic or Latino","userSelected":true}},{"url":"text","valueString":"Hispanic or Latino"}]}],"identifier":[{"type":{"coding":[{"system":"http://terminology.hl7.org/CodeSystem/v2-0203","code":"MR"}]},"system":"https://bonnie-fhir.healthit.gov/","value":"62b1e15a3968556e5150cf3b"}],"name":[{"family":"DENOMEXPass","given":["AdultHistoryOfBipolarRelapse"]}],"gender":"male","birthDate":"2007-01-01"},"request":{"method":"PUT","url":"Patient/d3e306b5-c89f-4638-9794-ccce26dbb635"}},{"fullUrl":"https://madie.cms.gov/Encounter/encounter-to-screen-for-depression-cf3c","resource":{"resourceType":"Encounter","id":"eb2d4b98-457b-4ef7-96c0-50f2f2c9bdff","meta":{"profile":["http://hl7.org/fhir/us/qicore/StructureDefinition/qicore-encounter"]},"status":"finished","class":{"system":"http://terminology.hl7.org/CodeSystem/v3-ActCode","code":"AMB","display":"ambulatory"},"type":[{"coding":[{"system":"http://snomed.info/sct","version":"2021-09","code":"10197000","display":"Psychiatric interview and evaluation (procedure)","userSelected":true}]}],"subject":{"reference":"Patient/d3e306b5-c89f-4638-9794-ccce26dbb635"},"period":{"start":"2025-06-15T08:00:00.000+00:00","end":"2025-06-21T08:15:00.000+00:00"}},"request":{"method":"PUT","url":"Encounter/eb2d4b98-457b-4ef7-96c0-50f2f2c9bdff"}},{"fullUrl":"https://madie.cms.gov/Condition/bipolar-diagnosis-cf3d","resource":{"resourceType":"Condition","id":"dcf2895e-b6e0-41ac-b338-a0d3ae2e9695","meta":{"profile":["http://hl7.org/fhir/us/qicore/StructureDefinition/qicore-condition"]},"clinicalStatus":{"coding":[{"system":"http://terminology.hl7.org/CodeSystem/condition-clinical","code":"relapse","display":"relapse","userSelected":true}]},"category":[{"coding":[{"system":"http://hl7.org/fhir/us/core/CodeSystem/condition-category","code":"health-concern","display":"Health Concern"}]}],"code":{"coding":[{"system":"http://snomed.info/sct","version":"2021-09","code":"10875004","display":"Severe mixed bipolar I disorder with psychotic features, mood-incongruent (disorder)","userSelected":true}]},"subject":{"reference":"Patient/d3e306b5-c89f-4638-9794-ccce26dbb635"},"onsetDateTime":"2025-06-15T07:59:00.000+00:00"},"request":{"method":"PUT","url":"Condition/dcf2895e-b6e0-41ac-b338-a0d3ae2e9695"}},{"fullUrl":"https://madie.cms.gov/Coverage/1","resource":{"resourceType":"Coverage","id":"19326b11-bbab-48ba-9a6f-42a20658fc0d","meta":{"profile":["http://hl7.org/fhir/us/qicore/StructureDefinition/qicore-coverage"]},"status":"active","beneficiary":{"reference":"Patient/d3e306b5-c89f-4638-9794-ccce26dbb635"},"payor":[{"reference":"Organization/80e3e0d1-b2aa-43a6-b1d2-00bfa3164a0f"}]},"request":{"method":"PUT","url":"Coverage/19326b11-bbab-48ba-9a6f-42a20658fc0d"}},{"fullUrl":"https://madie.cms.gov/Organization/123456","resource":{"resourceType":"Organization","id":"80e3e0d1-b2aa-43a6-b1d2-00bfa3164a0f","meta":{"profile":["http://hl7.org/fhir/us/qicore/StructureDefinition/qicore-organization"]},"identifier":[{"use":"temp","system":"urn:oid:2.16.840.1.113883.4.4","value":"21-3259825"}],"active":true,"type":[{"coding":[{"system":"http://terminology.hl7.org/CodeSystem/organization-type","code":"pay","display":"Payer"}]}],"name":"Blue Cross Blue Shield of Texas","telecom":[{"system":"phone","value":"(+1) 972-766-6900"}],"address":[{"use":"billing","type":"postal","line":["P.O. Box 660044"],"city":"Dallas","state":"TX","postalCode":"75266-0044","country":"USA"}]},"request":{"method":"PUT","url":"Organization/80e3e0d1-b2aa-43a6-b1d2-00bfa3164a0f"}},{"fullUrl":"https://madie.cms.gov/Practitioner/practitioner-123456","resource":{"resourceType":"Practitioner","id":"4329a2d4-c777-471b-a32c-a38374cd7cc7","meta":{"profile":["http://hl7.org/fhir/us/qicore/StructureDefinition/qicore-practitioner"]},"identifier":[{"system":"http://hl7.org/fhir/sid/us-npi","value":"123456"}],"name":[{"family":"Evil","prefix":["Dr"]}]},"request":{"method":"PUT","url":"Practitioner/4329a2d4-c777-471b-a32c-a38374cd7cc7"}},{"fullUrl":"https://madie.cms.gov/MeasureReport/1dd7786d-dfa2-42c7-adb4-a9d26e7d24b7","resource":{"resourceType":"MeasureReport","id":"1dd7786d-dfa2-42c7-adb4-a9d26e7d24b7","meta":{"profile":["http://hl7.org/fhir/us/cqfmeasures/StructureDefinition/test-case-cqfm"]},"contained":[{"resourceType":"Parameters","id":"23981342-ab3e-4a06-994e-d3fb2d2c3d0e-parameters","parameter":[{"name":"subject","valueString":"d3e306b5-c89f-4638-9794-ccce26dbb635"}]}],"extension":[{"url":"http://hl7.org/fhir/us/cqfmeasures/StructureDefinition/cqfm-inputParameters","valueReference":{"reference":"#23981342-ab3e-4a06-994e-d3fb2d2c3d0e-parameters"}},{"url":"http://hl7.org/fhir/us/cqfmeasures/StructureDefinition/cqfm-testCaseDescription","valueMarkdown":"18 yo patient with history of bipolar - relapse"}],"modifierExtension":[{"url":"http://hl7.org/fhir/us/cqfmeasures/StructureDefinition/cqfm-isTestCase","valueBoolean":true}],"status":"complete","type":"individual","measure":"https://madie.cms.gov/Measure/PCSDepressionScreenAndFollowUpFHIR","period":{"start":"2025-01-01","end":"2025-12-31"},"group":[{"population":[{"code":{"coding":[{"system":"http://terminology.hl7.org/CodeSystem/measure-population","code":"initial-population","display":"Initial Population"}]},"count":1},{"code":{"coding":[{"system":"http://terminology.hl7.org/CodeSystem/measure-population","code":"denominator","display":"Denominator"}]},"count":1},{"code":{"coding":[{"system":"http://terminology.hl7.org/CodeSystem/measure-population","code":"denominator-exclusion","display":"Denominator Exclusion"}]},"count":1},{"code":{"coding":[{"system":"http://terminology.hl7.org/CodeSystem/measure-population","code":"numerator","display":"Numerator"}]},"count":0},{"code":{"coding":[{"system":"http://terminology.hl7.org/CodeSystem/measure-population","code":"denominator-exception","display":"Denominator Exception"}]},"count":0}]}]},"request":{"method":"PUT","url":"MeasureReport/1dd7786d-dfa2-42c7-adb4-a9d26e7d24b7"}}]}