{"resourceType":"Bundle","id":"tests-629f2165-c162-4ed7-901f-9056ed997beb-bundle","type":"transaction","entry":[{"fullUrl":"https://madie.cms.gov/Encounter/72983581-e62a-4ede-afab-c30eb6cc0117","resource":{"resourceType":"Encounter","id":"72983581-e62a-4ede-afab-c30eb6cc0117","meta":{"profile":["http://hl7.org/fhir/us/qicore/StructureDefinition/qicore-encounter"]},"status":"finished","class":{"system":"http://terminology.hl7.org/CodeSystem/v3-ActCode","code":"IMP","display":"inpatient encounter"},"type":[{"coding":[{"system":"http://snomed.info/sct","code":"112689000","display":"Hospital admission, elective, with complete pre-admission work-up"}],"text":"Hospital admission, elective, with complete pre-admission work-up"}],"priority":{"coding":[{"system":"http://snomed.info/sct","code":"103390000"}]},"subject":{"reference":"Patient/629f2165-c162-4ed7-901f-9056ed997beb"},"period":{"start":"2026-04-10T08:00:00+00:00","end":"2026-04-14T08:15:00+00:00"}},"request":{"method":"PUT","url":"Encounter/72983581-e62a-4ede-afab-c30eb6cc0117"}},{"fullUrl":"https://madie.cms.gov/Observation/533442a0-5488-4923-9358-b3908a5a2fb4","resource":{"resourceType":"Observation","id":"533442a0-5488-4923-9358-b3908a5a2fb4","meta":{"profile":["http://hl7.org/fhir/us/qicore/StructureDefinition/qicore-observation"]},"status":"final","category":[{"coding":[{"system":"http://terminology.hl7.org/CodeSystem/observation-category","code":"laboratory","display":"Laboratory"}],"text":"Laboratory"}],"code":{"coding":[{"system":"http://loinc.org","code":"2703-7","display":"Oxygen [Partial pressure] in Arterial blood"}],"text":"Oxygen [Partial pressure] in Arterial blood"},"subject":{"reference":"Patient/629f2165-c162-4ed7-901f-9056ed997beb"},"encounter":{"reference":"Encounter/72983581-e62a-4ede-afab-c30eb6cc0117"},"effectiveDateTime":"2026-04-11T08:01:00+00:00","valueQuantity":{"value":49,"unit":"mmHg","system":"http://unitsofmeasure.org","code":"mm[Hg]"}},"request":{"method":"PUT","url":"Observation/533442a0-5488-4923-9358-b3908a5a2fb4"}},{"fullUrl":"https://madie.cms.gov/Patient/629f2165-c162-4ed7-901f-9056ed997beb","resource":{"resourceType":"Patient","id":"629f2165-c162-4ed7-901f-9056ed997beb","meta":{"profile":["http://hl7.org/fhir/us/qicore/StructureDefinition/qicore-patient"]},"extension":[{"url":"http://hl7.org/fhir/us/core/StructureDefinition/us-core-race","extension":[{"url":"ombCategory","valueCoding":{"system":"urn:oid:2.16.840.1.113883.6.238","code":"2054-5","display":"Black or African American","userSelected":true}},{"url":"text","valueString":"Black or African American"}]},{"url":"http://hl7.org/fhir/us/core/StructureDefinition/us-core-ethnicity","extension":[{"url":"ombCategory","valueCoding":{"system":"urn:oid:2.16.840.1.113883.6.238","code":"2186-5","display":"Not Hispanic or Latino","userSelected":true}},{"url":"text","valueString":"Not Hispanic or Latino"}]}],"identifier":[{"type":{"coding":[{"system":"http://terminology.hl7.org/CodeSystem/v2-0203","code":"MR"}]},"system":"https://bonnie-fhir.healthit.gov/","value":"61152a3b98086b7a79cbd7c1"}],"active":true,"name":[{"use":"usual","family":"DENEXFail","given":["Pa02LT50EQFirstORstrt"]}],"gender":"female","birthDate":"1966-07-12"},"request":{"method":"PUT","url":"Patient/629f2165-c162-4ed7-901f-9056ed997beb"}},{"fullUrl":"https://madie.cms.gov/Procedure/5a3c2abb-fb2d-4d62-a395-7d8850950759","resource":{"resourceType":"Procedure","id":"5a3c2abb-fb2d-4d62-a395-7d8850950759","meta":{"profile":["http://hl7.org/fhir/us/qicore/StructureDefinition/qicore-procedure"]},"extension":[{"url":"http://hl7.org/fhir/us/qicore/StructureDefinition/qicore-recorded","valueDateTime":"2026-04-11T08:30:00+00:00"}],"status":"completed","category":{"coding":[{"system":"http://snomed.info/sct","code":"18286008","display":"General or neuraxial anesthesia"}]},"code":{"coding":[{"system":"http://snomed.info/sct","code":"112943005","display":"Epidural injection of anesthetic substance, diagnostic, caudal, continuous"}]},"subject":{"reference":"Patient/629f2165-c162-4ed7-901f-9056ed997beb"},"performedDateTime":"2026-04-11T08:00:00+00:00"},"request":{"method":"PUT","url":"Procedure/5a3c2abb-fb2d-4d62-a395-7d8850950759"}},{"fullUrl":"https://madie.cms.gov/Procedure/d34e123d-009c-44dd-a3fe-e9539e5b819a","resource":{"resourceType":"Procedure","id":"d34e123d-009c-44dd-a3fe-e9539e5b819a","meta":{"profile":["http://hl7.org/fhir/us/qicore/StructureDefinition/qicore-procedure"]},"extension":[{"url":"http://hl7.org/fhir/us/qicore/StructureDefinition/qicore-recorded","valueDateTime":"2026-04-12T08:10:00+00:00"}],"status":"completed","category":{"coding":[{"system":"http://snomed.info/sct","code":"18286008","display":"General or neuraxial anesthesia"}]},"code":{"coding":[{"system":"http://snomed.info/sct","code":"112943005","display":"Epidural injection of anesthetic substance, diagnostic, caudal, continuous"}]},"subject":{"reference":"Patient/629f2165-c162-4ed7-901f-9056ed997beb"},"performedDateTime":"2026-04-12T08:00:00+00:00"},"request":{"method":"PUT","url":"Procedure/d34e123d-009c-44dd-a3fe-e9539e5b819a"}},{"fullUrl":"https://madie.cms.gov/MeasureReport/330c4c1c-1800-41a0-b7f5-f4b5fcb4e39b","resource":{"resourceType":"MeasureReport","id":"330c4c1c-1800-41a0-b7f5-f4b5fcb4e39b","meta":{"profile":["http://hl7.org/fhir/us/cqfmeasures/StructureDefinition/test-case-cqfm"]},"contained":[{"resourceType":"Parameters","id":"ab43e406-ef80-4e5c-b481-1d76b40143a0-parameters","parameter":[{"name":"subject","valueString":"629f2165-c162-4ed7-901f-9056ed997beb"}]}],"extension":[{"url":"http://hl7.org/fhir/us/cqfmeasures/StructureDefinition/cqfm-inputParameters","valueReference":{"reference":"#ab43e406-ef80-4e5c-b481-1d76b40143a0-parameters"}},{"url":"http://hl7.org/fhir/us/cqfmeasures/StructureDefinition/cqfm-testCaseDescription","valueMarkdown":"Enc 1: Elective hosp with proc (anesthesia) within first 3 days of encounter. PaO2 <50 and within 48 hours of start of procedure. Meets Exc.\nEnc 2: Intubated outside of OR after first procedure. Meets Num 1. \nExc from enc 1 does not impact enc 2."}],"modifierExtension":[{"url":"http://hl7.org/fhir/us/cqfmeasures/StructureDefinition/cqfm-isTestCase","valueBoolean":true}],"status":"complete","type":"individual","measure":"https://madie.cms.gov/Measure/CMS1218HHRFFHIR","period":{"start":"2026-01-01","end":"2026-12-31"},"group":[{"population":[{"code":{"coding":[{"system":"http://terminology.hl7.org/CodeSystem/measure-population","code":"initial-population","display":"Initial Population"}]},"count":1},{"code":{"coding":[{"system":"http://terminology.hl7.org/CodeSystem/measure-population","code":"denominator","display":"Denominator"}]},"count":1},{"code":{"coding":[{"system":"http://terminology.hl7.org/CodeSystem/measure-population","code":"denominator-exclusion","display":"Denominator Exclusion"}]},"count":0},{"code":{"coding":[{"system":"http://terminology.hl7.org/CodeSystem/measure-population","code":"numerator","display":"Numerator"}]},"count":0}]}]},"request":{"method":"PUT","url":"MeasureReport/330c4c1c-1800-41a0-b7f5-f4b5fcb4e39b"}}]}