{"resourceType":"Bundle","id":"tests-a65e5180-3578-4013-bdc2-925e1af1e627-bundle","type":"transaction","entry":[{"fullUrl":"https://madie.cms.gov/Encounter/95e71c21-2633-4e7c-93b3-c7d78bf68b7c","resource":{"resourceType":"Encounter","id":"95e71c21-2633-4e7c-93b3-c7d78bf68b7c","meta":{"profile":["http://hl7.org/fhir/us/qicore/StructureDefinition/qicore-encounter"]},"status":"finished","class":{"system":"http://terminology.hl7.org/CodeSystem/v3-ActCode","code":"IMP","display":"inpatient encounter"},"type":[{"coding":[{"system":"http://snomed.info/sct","code":"112689000","display":"Hospital admission, elective, with complete pre-admission work-up"}],"text":"Hospital admission, elective, with complete pre-admission work-up"}],"priority":{"coding":[{"system":"http://snomed.info/sct","code":"103390000"}]},"subject":{"reference":"Patient/a65e5180-3578-4013-bdc2-925e1af1e627"},"period":{"start":"2026-04-10T08:00:00+00:00","end":"2026-04-14T08:15:00+00:00"},"diagnosis":[{"condition":{"reference":"Procedure/df1261cd-8480-4a03-bdbd-c083460f0538"},"rank":1}]},"request":{"method":"PUT","url":"Encounter/95e71c21-2633-4e7c-93b3-c7d78bf68b7c"}},{"fullUrl":"https://madie.cms.gov/Encounter/64ff2503-eba7-40ae-a0e1-03d1b34bb55a","resource":{"resourceType":"Encounter","id":"64ff2503-eba7-40ae-a0e1-03d1b34bb55a","meta":{"profile":["http://hl7.org/fhir/us/qicore/StructureDefinition/qicore-encounter"]},"status":"finished","class":{"system":"http://terminology.hl7.org/CodeSystem/v3-ActCode","code":"IMP","display":"inpatient encounter"},"type":[{"coding":[{"system":"http://snomed.info/sct","code":"112689000","display":"Hospital admission, elective, with complete pre-admission work-up"}],"text":"Hospital admission, elective, with complete pre-admission work-up"}],"priority":{"coding":[{"system":"http://snomed.info/sct","code":"103390000"}]},"subject":{"reference":"Patient/a65e5180-3578-4013-bdc2-925e1af1e627"},"period":{"start":"2026-04-19T08:00:00+00:00","end":"2026-04-23T08:15:00+00:00"},"diagnosis":[{"condition":{"reference":"Procedure/5af37929-2081-4583-b236-0e7bfb4fd6a7"},"rank":1}]},"request":{"method":"PUT","url":"Encounter/64ff2503-eba7-40ae-a0e1-03d1b34bb55a"}},{"fullUrl":"https://madie.cms.gov/Patient/a65e5180-3578-4013-bdc2-925e1af1e627","resource":{"resourceType":"Patient","id":"a65e5180-3578-4013-bdc2-925e1af1e627","meta":{"profile":["http://hl7.org/fhir/us/qicore/StructureDefinition/qicore-patient"]},"extension":[{"url":"http://hl7.org/fhir/us/core/StructureDefinition/us-core-race","extension":[{"url":"ombCategory","valueCoding":{"system":"urn:oid:2.16.840.1.113883.6.238","code":"2054-5","display":"Black or African American","userSelected":true}},{"url":"text","valueString":"Black or African American"}]},{"url":"http://hl7.org/fhir/us/core/StructureDefinition/us-core-ethnicity","extension":[{"url":"ombCategory","valueCoding":{"system":"urn:oid:2.16.840.1.113883.6.238","code":"2186-5","display":"Not Hispanic or Latino","userSelected":true}},{"url":"text","valueString":"Not Hispanic or Latino"}]}],"identifier":[{"type":{"coding":[{"system":"http://terminology.hl7.org/CodeSystem/v2-0203","code":"MR"}]},"system":"https://bonnie-fhir.healthit.gov/","value":"61152a3b98086b7a79cbd7c1"}],"active":true,"name":[{"use":"usual","family":"DENEXFail","given":["1EncPaO2Exc2EncNum"]}],"gender":"female","birthDate":"1966-07-12"},"request":{"method":"PUT","url":"Patient/a65e5180-3578-4013-bdc2-925e1af1e627"}},{"fullUrl":"https://madie.cms.gov/Procedure/df1261cd-8480-4a03-bdbd-c083460f0538","resource":{"resourceType":"Procedure","id":"df1261cd-8480-4a03-bdbd-c083460f0538","meta":{"profile":["http://hl7.org/fhir/us/qicore/StructureDefinition/qicore-procedure"]},"extension":[{"url":"http://hl7.org/fhir/us/qicore/StructureDefinition/qicore-recorded","valueDateTime":"2026-04-11T10:30:00+00:00"}],"status":"completed","category":{"coding":[{"system":"http://snomed.info/sct","code":"18286008","display":"General or neuraxial anesthesia"}]},"code":{"coding":[{"system":"http://snomed.info/sct","code":"112943005","display":"Epidural injection of anesthetic substance, diagnostic, caudal, continuous"}]},"subject":{"reference":"Patient/a65e5180-3578-4013-bdc2-925e1af1e627"},"performedPeriod":{"start":"2026-04-12T08:00:00+00:00","end":"2026-04-12T10:15:00+00:00"}},"request":{"method":"PUT","url":"Procedure/df1261cd-8480-4a03-bdbd-c083460f0538"}},{"fullUrl":"https://madie.cms.gov/Procedure/5af37929-2081-4583-b236-0e7bfb4fd6a7","resource":{"resourceType":"Procedure","id":"5af37929-2081-4583-b236-0e7bfb4fd6a7","meta":{"profile":["http://hl7.org/fhir/us/qicore/StructureDefinition/qicore-procedure"]},"extension":[{"url":"http://hl7.org/fhir/us/qicore/StructureDefinition/qicore-recorded","valueDateTime":"2026-04-11T10:30:00+00:00"}],"status":"completed","category":{"coding":[{"system":"http://snomed.info/sct","code":"18286008","display":"General or neuraxial anesthesia"}]},"code":{"coding":[{"system":"http://snomed.info/sct","code":"112943005","display":"Epidural injection of anesthetic substance, diagnostic, caudal, continuous"}]},"subject":{"reference":"Patient/a65e5180-3578-4013-bdc2-925e1af1e627"},"performedDateTime":"2026-04-19T11:00:00+00:00"},"request":{"method":"PUT","url":"Procedure/5af37929-2081-4583-b236-0e7bfb4fd6a7"}},{"fullUrl":"https://madie.cms.gov/Procedure/58e02236-9b73-44e7-b825-a9f1465d239d","resource":{"resourceType":"Procedure","id":"58e02236-9b73-44e7-b825-a9f1465d239d","meta":{"profile":["http://hl7.org/fhir/us/qicore/StructureDefinition/qicore-procedure"]},"extension":[{"url":"http://hl7.org/fhir/us/qicore/StructureDefinition/qicore-recorded","valueDateTime":"2026-04-11T10:10:00+00:00"}],"status":"completed","code":{"coding":[{"system":"http://www.cms.gov/Medicare/Coding/ICD10","code":"0BW10FZ","display":"Revision of Tracheostomy Device in Trachea, Open Approach"}],"text":"Revision of Tracheostomy Device in Trachea, Open Approach"},"subject":{"reference":"Patient/a65e5180-3578-4013-bdc2-925e1af1e627"},"performedDateTime":"2026-04-11T10:00:00+00:00"},"request":{"method":"PUT","url":"Procedure/58e02236-9b73-44e7-b825-a9f1465d239d"}},{"fullUrl":"https://madie.cms.gov/Procedure/0a627e64-6744-4a77-8396-6a60c3eda904","resource":{"resourceType":"Procedure","id":"0a627e64-6744-4a77-8396-6a60c3eda904","meta":{"profile":["http://hl7.org/fhir/us/qicore/StructureDefinition/qicore-procedure"]},"extension":[{"url":"http://hl7.org/fhir/us/qicore/StructureDefinition/qicore-recorded","valueDateTime":"2026-04-20T08:10:00+00:00"}],"status":"completed","code":{"coding":[{"system":"http://www.cms.gov/Medicare/Coding/ICD10","code":"0BH13EZ","display":"Insertion of Endotracheal Airway into Trachea, Percutaneous Approach"}],"text":"Insertion of Endotracheal Airway into Trachea, Percutaneous Approach"},"subject":{"reference":"Patient/a65e5180-3578-4013-bdc2-925e1af1e627"},"performedDateTime":"2026-04-20T08:00:00+00:00"},"request":{"method":"PUT","url":"Procedure/0a627e64-6744-4a77-8396-6a60c3eda904"}},{"fullUrl":"https://madie.cms.gov/MeasureReport/596c08f8-9874-48bf-9eea-2a96b3e9abcf","resource":{"resourceType":"MeasureReport","id":"596c08f8-9874-48bf-9eea-2a96b3e9abcf","meta":{"profile":["http://hl7.org/fhir/us/cqfmeasures/StructureDefinition/test-case-cqfm"]},"contained":[{"resourceType":"Parameters","id":"14a99ccb-04f9-42bd-98c0-f0006f05f867-parameters","parameter":[{"name":"subject","valueString":"a65e5180-3578-4013-bdc2-925e1af1e627"}]}],"extension":[{"url":"http://hl7.org/fhir/us/cqfmeasures/StructureDefinition/cqfm-inputParameters","valueReference":{"reference":"#14a99ccb-04f9-42bd-98c0-f0006f05f867-parameters"}},{"url":"http://hl7.org/fhir/us/cqfmeasures/StructureDefinition/cqfm-testCaseDescription","valueMarkdown":"Enc 1: Elective hosp with trach before day of 1st OR proc (gen anesthesia).  Meets Exclusion.\nEnc 2: Elective hosp with intubation after OR proc (gen anesthesia). Meets Numerator 1. \nTesting to make sure Enc1 exclusion does not impact Enc2."}],"modifierExtension":[{"url":"http://hl7.org/fhir/us/cqfmeasures/StructureDefinition/cqfm-isTestCase","valueBoolean":true}],"status":"complete","type":"individual","measure":"https://madie.cms.gov/Measure/CMS1218HHRFFHIR","period":{"start":"2026-01-01","end":"2026-12-31"},"group":[{"population":[{"code":{"coding":[{"system":"http://terminology.hl7.org/CodeSystem/measure-population","code":"initial-population","display":"Initial Population"}]},"count":2},{"code":{"coding":[{"system":"http://terminology.hl7.org/CodeSystem/measure-population","code":"denominator","display":"Denominator"}]},"count":2},{"code":{"coding":[{"system":"http://terminology.hl7.org/CodeSystem/measure-population","code":"denominator-exclusion","display":"Denominator Exclusion"}]},"count":1},{"code":{"coding":[{"system":"http://terminology.hl7.org/CodeSystem/measure-population","code":"numerator","display":"Numerator"}]},"count":1}]}]},"request":{"method":"PUT","url":"MeasureReport/596c08f8-9874-48bf-9eea-2a96b3e9abcf"}}]}