{"resourceType":"Bundle","id":"tests-8c1d0b6e-067f-4a0b-b4c5-adec7b2aeeef-bundle","type":"transaction","entry":[{"fullUrl":"https://madie.cms.gov/Encounter/3accf54f-f59e-4e86-95b3-c37b348127ca","resource":{"resourceType":"Encounter","id":"3accf54f-f59e-4e86-95b3-c37b348127ca","meta":{"profile":["http://hl7.org/fhir/us/qicore/StructureDefinition/qicore-encounter"]},"status":"finished","class":{"system":"http://terminology.hl7.org/CodeSystem/v3-ActCode","code":"IMP","display":"inpatient encounter"},"type":[{"coding":[{"system":"http://snomed.info/sct","code":"112689000","display":"Hospital admission, elective, with complete pre-admission work-up"}],"text":"Hospital admission, elective, with complete pre-admission work-up"}],"priority":{"coding":[{"system":"http://snomed.info/sct","code":"103390000"}]},"subject":{"reference":"Patient/8c1d0b6e-067f-4a0b-b4c5-adec7b2aeeef"},"period":{"start":"2026-04-10T08:00:00+00:00","end":"2026-04-14T08:15:00+00:00"},"diagnosis":[{"condition":{"reference":"Procedure/6e51d157-23f9-4b5d-9b20-a2bd06a38f8a"},"rank":1}]},"request":{"method":"PUT","url":"Encounter/3accf54f-f59e-4e86-95b3-c37b348127ca"}},{"fullUrl":"https://madie.cms.gov/Observation/72e1722a-3953-4b5c-b2a5-917e43c78018","resource":{"resourceType":"Observation","id":"72e1722a-3953-4b5c-b2a5-917e43c78018","meta":{"profile":["http://hl7.org/fhir/us/qicore/StructureDefinition/qicore-observation"]},"status":"final","category":[{"coding":[{"system":"http://terminology.hl7.org/CodeSystem/observation-category","code":"laboratory","display":"Laboratory"}],"text":"Laboratory"}],"code":{"coding":[{"system":"http://loinc.org","code":"13056-7","display":"Platelets [#/volume] in Plasma by Automated count"}],"text":"Platelets [#/volume] in Plasma by Automated count"},"subject":{"reference":"Patient/8c1d0b6e-067f-4a0b-b4c5-adec7b2aeeef"},"encounter":{"reference":"Encounter/3accf54f-f59e-4e86-95b3-c37b348127ca"},"effectiveDateTime":"2026-04-11T08:00:00+00:00","valueQuantity":{"value":1000,"unit":"/mm3","system":"http://unitsofmeasure.org","code":"/mm3"}},"request":{"method":"PUT","url":"Observation/72e1722a-3953-4b5c-b2a5-917e43c78018"}},{"fullUrl":"https://madie.cms.gov/Observation/91c4c2b0-c305-48c7-b890-ed4efd3e52ac","resource":{"resourceType":"Observation","id":"91c4c2b0-c305-48c7-b890-ed4efd3e52ac","meta":{"profile":["http://hl7.org/fhir/us/qicore/StructureDefinition/qicore-observation"]},"status":"final","category":[{"coding":[{"system":"http://terminology.hl7.org/CodeSystem/observation-category","code":"laboratory","display":"Laboratory"}],"text":"Laboratory"}],"code":{"coding":[{"system":"http://loinc.org","code":"13056-7","display":"Platelets [#/volume] in Plasma by Automated count"}],"text":"Hemoglobin Lab Test"},"subject":{"reference":"Patient/8c1d0b6e-067f-4a0b-b4c5-adec7b2aeeef"},"encounter":{"reference":"Encounter/3accf54f-f59e-4e86-95b3-c37b348127ca"},"effectiveDateTime":"2026-04-12T08:00:00+00:00","valueQuantity":{"value":1200,"unit":"/mm3","system":"http://unitsofmeasure.org","code":"/mm3"}},"request":{"method":"PUT","url":"Observation/91c4c2b0-c305-48c7-b890-ed4efd3e52ac"}},{"fullUrl":"https://madie.cms.gov/Patient/8c1d0b6e-067f-4a0b-b4c5-adec7b2aeeef","resource":{"resourceType":"Patient","id":"8c1d0b6e-067f-4a0b-b4c5-adec7b2aeeef","meta":{"profile":["http://hl7.org/fhir/us/qicore/StructureDefinition/qicore-patient"]},"extension":[{"url":"http://hl7.org/fhir/us/core/StructureDefinition/us-core-race","extension":[{"url":"ombCategory","valueCoding":{"system":"urn:oid:2.16.840.1.113883.6.238","code":"2054-5","display":"Black or African American","userSelected":true}},{"url":"text","valueString":"Black or African American"}]},{"url":"http://hl7.org/fhir/us/core/StructureDefinition/us-core-ethnicity","extension":[{"url":"ombCategory","valueCoding":{"system":"urn:oid:2.16.840.1.113883.6.238","code":"2186-5","display":"Not Hispanic or Latino","userSelected":true}},{"url":"text","valueString":"Not Hispanic or Latino"}]}],"identifier":[{"type":{"coding":[{"system":"http://terminology.hl7.org/CodeSystem/v2-0203","code":"MR"}]},"system":"https://bonnie-fhir.healthit.gov/","value":"61152a3b98086b7a79cbd7c1"}],"active":true,"name":[{"use":"usual","family":"DENOMPass","given":["RiskVariableFirstPlateletmm3Units"]}],"gender":"female","birthDate":"1966-07-12"},"request":{"method":"PUT","url":"Patient/8c1d0b6e-067f-4a0b-b4c5-adec7b2aeeef"}},{"fullUrl":"https://madie.cms.gov/Procedure/6e51d157-23f9-4b5d-9b20-a2bd06a38f8a","resource":{"resourceType":"Procedure","id":"6e51d157-23f9-4b5d-9b20-a2bd06a38f8a","meta":{"profile":["http://hl7.org/fhir/us/qicore/StructureDefinition/qicore-procedure"]},"extension":[{"url":"http://hl7.org/fhir/us/qicore/StructureDefinition/qicore-recorded","valueDateTime":"2026-04-11T10:30:00+00:00"}],"status":"completed","category":{"coding":[{"system":"http://snomed.info/sct","code":"18286008","display":"General or neuraxial anesthesia"}]},"code":{"coding":[{"system":"http://snomed.info/sct","code":"112943005","display":"Epidural injection of anesthetic substance, diagnostic, caudal, continuous"}]},"subject":{"reference":"Patient/8c1d0b6e-067f-4a0b-b4c5-adec7b2aeeef"},"performedPeriod":{"start":"2026-04-11T08:00:00+00:00","end":"2026-04-11T10:15:00+00:00"}},"request":{"method":"PUT","url":"Procedure/6e51d157-23f9-4b5d-9b20-a2bd06a38f8a"}},{"fullUrl":"https://madie.cms.gov/MeasureReport/06613e29-d434-4b6e-be90-c1aa1c5f0d7e","resource":{"resourceType":"MeasureReport","id":"06613e29-d434-4b6e-be90-c1aa1c5f0d7e","meta":{"profile":["http://hl7.org/fhir/us/cqfmeasures/StructureDefinition/test-case-cqfm"]},"contained":[{"resourceType":"Parameters","id":"4413328f-9552-4ffa-af49-85df93a667b6-parameters","parameter":[{"name":"subject","valueString":"8c1d0b6e-067f-4a0b-b4c5-adec7b2aeeef"}]}],"extension":[{"url":"http://hl7.org/fhir/us/cqfmeasures/StructureDefinition/cqfm-inputParameters","valueReference":{"reference":"#4413328f-9552-4ffa-af49-85df93a667b6-parameters"}},{"url":"http://hl7.org/fhir/us/cqfmeasures/StructureDefinition/cqfm-testCaseDescription","valueMarkdown":"  Elective hospitalization with procedure (general anesthesia) within first 3 days of encounter. Meets IPP/Denom. RV test includes 2 platelet values; RV displays the first (10000 10*9/L) not the second (12000 10*9/L), as expected. \n"}],"modifierExtension":[{"url":"http://hl7.org/fhir/us/cqfmeasures/StructureDefinition/cqfm-isTestCase","valueBoolean":true}],"status":"complete","type":"individual","measure":"https://madie.cms.gov/Measure/CMS1218HHRFFHIR","period":{"start":"2026-01-01","end":"2026-12-31"},"group":[{"population":[{"code":{"coding":[{"system":"http://terminology.hl7.org/CodeSystem/measure-population","code":"initial-population","display":"Initial Population"}]},"count":1},{"code":{"coding":[{"system":"http://terminology.hl7.org/CodeSystem/measure-population","code":"denominator","display":"Denominator"}]},"count":1},{"code":{"coding":[{"system":"http://terminology.hl7.org/CodeSystem/measure-population","code":"denominator-exclusion","display":"Denominator Exclusion"}]},"count":0},{"code":{"coding":[{"system":"http://terminology.hl7.org/CodeSystem/measure-population","code":"numerator","display":"Numerator"}]},"count":0}]}]},"request":{"method":"PUT","url":"MeasureReport/06613e29-d434-4b6e-be90-c1aa1c5f0d7e"}}]}