{"resourceType":"Bundle","id":"tests-8415bf7d-2920-4ec3-9774-7a6f4272397e-bundle","type":"transaction","entry":[{"fullUrl":"https://madie.cms.gov/Encounter/299cf49a-525d-4981-aa9e-f45f12a284cc","resource":{"resourceType":"Encounter","id":"299cf49a-525d-4981-aa9e-f45f12a284cc","meta":{"profile":["http://hl7.org/fhir/us/qicore/StructureDefinition/qicore-encounter"]},"status":"finished","class":{"system":"http://terminology.hl7.org/CodeSystem/v3-ActCode","code":"IMP","display":"inpatient encounter"},"type":[{"coding":[{"system":"http://snomed.info/sct","code":"112689000","display":"Hospital admission, elective, with complete pre-admission work-up"}],"text":"Hospital admission, elective, with complete pre-admission work-up"}],"priority":{"coding":[{"system":"http://snomed.info/sct","code":"103390000"}]},"subject":{"reference":"Patient/8415bf7d-2920-4ec3-9774-7a6f4272397e"},"period":{"start":"2026-04-10T08:00:00+00:00","end":"2026-04-17T08:15:00+00:00"}},"request":{"method":"PUT","url":"Encounter/299cf49a-525d-4981-aa9e-f45f12a284cc"}},{"fullUrl":"https://madie.cms.gov/Patient/8415bf7d-2920-4ec3-9774-7a6f4272397e","resource":{"resourceType":"Patient","id":"8415bf7d-2920-4ec3-9774-7a6f4272397e","meta":{"profile":["http://hl7.org/fhir/us/qicore/StructureDefinition/qicore-patient"]},"extension":[{"url":"http://hl7.org/fhir/us/core/StructureDefinition/us-core-race","extension":[{"url":"ombCategory","valueCoding":{"system":"urn:oid:2.16.840.1.113883.6.238","code":"2054-5","display":"Black or African American","userSelected":true}},{"url":"text","valueString":"Black or African American"}]},{"url":"http://hl7.org/fhir/us/core/StructureDefinition/us-core-ethnicity","extension":[{"url":"ombCategory","valueCoding":{"system":"urn:oid:2.16.840.1.113883.6.238","code":"2186-5","display":"Not Hispanic or Latino","userSelected":true}},{"url":"text","valueString":"Not Hispanic or Latino"}]}],"identifier":[{"type":{"coding":[{"system":"http://terminology.hl7.org/CodeSystem/v2-0203","code":"MR"}]},"system":"https://bonnie-fhir.healthit.gov/","value":"61152a3b98086b7a79cbd7c1"}],"active":true,"name":[{"use":"usual","family":"NUMER1Pass","given":["3Intubations2DuringProc1OutsideOfProc"]}],"gender":"female","birthDate":"1966-07-12"},"request":{"method":"PUT","url":"Patient/8415bf7d-2920-4ec3-9774-7a6f4272397e"}},{"fullUrl":"https://madie.cms.gov/Procedure/6236b103-08fa-4431-a8ee-6e590d569079","resource":{"resourceType":"Procedure","id":"6236b103-08fa-4431-a8ee-6e590d569079","meta":{"profile":["http://hl7.org/fhir/us/qicore/StructureDefinition/qicore-procedure"]},"extension":[{"url":"http://hl7.org/fhir/us/qicore/StructureDefinition/qicore-recorded","valueDateTime":"2026-04-11T10:20:00+00:00"}],"status":"completed","category":{"coding":[{"system":"http://snomed.info/sct","code":"18286008","display":"General or neuraxial anesthesia"}]},"code":{"coding":[{"system":"http://snomed.info/sct","code":"112943005","display":"Epidural injection of anesthetic substance, diagnostic, caudal, continuous"}]},"subject":{"reference":"Patient/8415bf7d-2920-4ec3-9774-7a6f4272397e"},"performedPeriod":{"start":"2026-04-11T08:00:00+00:00","end":"2026-04-11T10:15:00+00:00"}},"request":{"method":"PUT","url":"Procedure/6236b103-08fa-4431-a8ee-6e590d569079"}},{"fullUrl":"https://madie.cms.gov/Procedure/a48900b7-6979-481a-8ada-0f0c27c13a14","resource":{"resourceType":"Procedure","id":"a48900b7-6979-481a-8ada-0f0c27c13a14","meta":{"profile":["http://hl7.org/fhir/us/qicore/StructureDefinition/qicore-procedure"]},"extension":[{"url":"http://hl7.org/fhir/us/qicore/StructureDefinition/qicore-recorded","valueDateTime":"2026-04-12T09:20:00+00:00"}],"status":"completed","code":{"coding":[{"system":"http://www.cms.gov/Medicare/Coding/ICD10","code":"0BH13EZ","display":"Insertion of Endotracheal Airway into Trachea, Percutaneous Approach"}],"text":"Insertion of Endotracheal Airway into Trachea, Percutaneous Approach"},"subject":{"reference":"Patient/8415bf7d-2920-4ec3-9774-7a6f4272397e"},"performedDateTime":"2026-04-12T09:16:00+00:00"},"request":{"method":"PUT","url":"Procedure/a48900b7-6979-481a-8ada-0f0c27c13a14"}},{"fullUrl":"https://madie.cms.gov/Procedure/1fd61a9a-559b-42d6-b26a-fff676282014","resource":{"resourceType":"Procedure","id":"1fd61a9a-559b-42d6-b26a-fff676282014","meta":{"profile":["http://hl7.org/fhir/us/qicore/StructureDefinition/qicore-procedure"]},"extension":[{"url":"http://hl7.org/fhir/us/qicore/StructureDefinition/qicore-recorded","valueDateTime":"2026-04-12T10:30:00+00:00"}],"status":"completed","category":{"coding":[{"system":"http://snomed.info/sct","code":"18286008","display":"General or neuraxial anesthesia"}]},"code":{"coding":[{"system":"http://snomed.info/sct","code":"112943005","display":"Epidural injection of anesthetic substance, diagnostic, caudal, continuous"}]},"subject":{"reference":"Patient/8415bf7d-2920-4ec3-9774-7a6f4272397e"},"performedPeriod":{"start":"2026-04-12T08:00:00+00:00","end":"2026-04-12T10:15:00+00:00"}},"request":{"method":"PUT","url":"Procedure/1fd61a9a-559b-42d6-b26a-fff676282014"}},{"fullUrl":"https://madie.cms.gov/Procedure/d4ab1feb-676f-4ef8-8317-23050757d747","resource":{"resourceType":"Procedure","id":"d4ab1feb-676f-4ef8-8317-23050757d747","meta":{"profile":["http://hl7.org/fhir/us/qicore/StructureDefinition/qicore-procedure"]},"extension":[{"url":"http://hl7.org/fhir/us/qicore/StructureDefinition/qicore-recorded","valueDateTime":"2026-04-13T10:20:00+00:00"}],"status":"completed","code":{"coding":[{"system":"http://www.cms.gov/Medicare/Coding/ICD10","code":"0BH13EZ","display":"Insertion of Endotracheal Airway into Trachea, Percutaneous Approach"}],"text":"Insertion of Endotracheal Airway into Trachea, Percutaneous Approach"},"subject":{"reference":"Patient/8415bf7d-2920-4ec3-9774-7a6f4272397e"},"performedPeriod":{"start":"2026-04-13T08:00:00+00:00","end":"2026-04-13T10:15:00+00:00"}},"request":{"method":"PUT","url":"Procedure/d4ab1feb-676f-4ef8-8317-23050757d747"}},{"fullUrl":"https://madie.cms.gov/Procedure/e7c7330b-300d-462c-a26f-bcb5d20686dc","resource":{"resourceType":"Procedure","id":"e7c7330b-300d-462c-a26f-bcb5d20686dc","meta":{"profile":["http://hl7.org/fhir/us/qicore/StructureDefinition/qicore-procedure"]},"extension":[{"url":"http://hl7.org/fhir/us/qicore/StructureDefinition/qicore-recorded","valueDateTime":"2026-04-13T10:20:00+00:00"}],"status":"completed","code":{"coding":[{"system":"http://www.cms.gov/Medicare/Coding/ICD10","code":"0BH13EZ","display":"Insertion of Endotracheal Airway into Trachea, Percutaneous Approach"}],"text":"Insertion of Endotracheal Airway into Trachea, Percutaneous Approach"},"subject":{"reference":"Patient/8415bf7d-2920-4ec3-9774-7a6f4272397e"},"performedPeriod":{"start":"2026-04-13T08:00:00+00:00","end":"2026-04-13T10:15:00+00:00"}},"request":{"method":"PUT","url":"Procedure/e7c7330b-300d-462c-a26f-bcb5d20686dc"}},{"fullUrl":"https://madie.cms.gov/MeasureReport/658b2468-bbea-45ec-9a23-6886310f7c40","resource":{"resourceType":"MeasureReport","id":"658b2468-bbea-45ec-9a23-6886310f7c40","meta":{"profile":["http://hl7.org/fhir/us/cqfmeasures/StructureDefinition/test-case-cqfm"]},"contained":[{"resourceType":"Parameters","id":"ad3db63b-c9db-42cc-a0b4-467b306a3e57-parameters","parameter":[{"name":"subject","valueString":"8415bf7d-2920-4ec3-9774-7a6f4272397e"}]}],"extension":[{"url":"http://hl7.org/fhir/us/cqfmeasures/StructureDefinition/cqfm-inputParameters","valueReference":{"reference":"#ad3db63b-c9db-42cc-a0b4-467b306a3e57-parameters"}},{"url":"http://hl7.org/fhir/us/cqfmeasures/StructureDefinition/cqfm-testCaseDescription","valueMarkdown":"Elective hospitalization with 3 procs. 1st intubation during 2nd general anesthesia period so (fails Num 1 criteria) but has 2nd intubation later, outside of proc. Meets Numerator. \nHas a later procedure, with intubation during. Numerator still meets"}],"modifierExtension":[{"url":"http://hl7.org/fhir/us/cqfmeasures/StructureDefinition/cqfm-isTestCase","valueBoolean":true}],"status":"complete","type":"individual","measure":"https://madie.cms.gov/Measure/CMS1218HHRFFHIR","period":{"start":"2026-01-01","end":"2026-12-31"},"group":[{"population":[{"code":{"coding":[{"system":"http://terminology.hl7.org/CodeSystem/measure-population","code":"initial-population","display":"Initial Population"}]},"count":1},{"code":{"coding":[{"system":"http://terminology.hl7.org/CodeSystem/measure-population","code":"denominator","display":"Denominator"}]},"count":1},{"code":{"coding":[{"system":"http://terminology.hl7.org/CodeSystem/measure-population","code":"denominator-exclusion","display":"Denominator Exclusion"}]},"count":0},{"code":{"coding":[{"system":"http://terminology.hl7.org/CodeSystem/measure-population","code":"numerator","display":"Numerator"}]},"count":1}]}]},"request":{"method":"PUT","url":"MeasureReport/658b2468-bbea-45ec-9a23-6886310f7c40"}}]}