{"resourceType":"Bundle","id":"tests-8942da50-6322-4df7-bd03-21aecbc427a4-bundle","type":"transaction","entry":[{"fullUrl":"https://madie.cms.gov/Encounter/8d171f87-8d07-4b06-9212-b3a3d99b854c","resource":{"resourceType":"Encounter","id":"8d171f87-8d07-4b06-9212-b3a3d99b854c","meta":{"profile":["http://hl7.org/fhir/us/qicore/StructureDefinition/qicore-encounter"]},"status":"finished","class":{"system":"http://terminology.hl7.org/CodeSystem/v3-ActCode","code":"IMP","display":"inpatient encounter"},"type":[{"coding":[{"system":"http://snomed.info/sct","code":"112689000","display":"Hospital admission, elective, with complete pre-admission work-up"}],"text":"Hospital admission, elective, with complete pre-admission work-up"}],"priority":{"coding":[{"system":"http://snomed.info/sct","code":"103390000"}]},"subject":{"reference":"Patient/8942da50-6322-4df7-bd03-21aecbc427a4"},"period":{"start":"2026-04-10T08:00:00+00:00","end":"2026-04-14T08:15:00+00:00"}},"request":{"method":"PUT","url":"Encounter/8d171f87-8d07-4b06-9212-b3a3d99b854c"}},{"fullUrl":"https://madie.cms.gov/Encounter/7f3b569a-c37c-4122-b663-d69e39ee4009","resource":{"resourceType":"Encounter","id":"7f3b569a-c37c-4122-b663-d69e39ee4009","meta":{"profile":["http://hl7.org/fhir/us/qicore/StructureDefinition/qicore-encounter"]},"status":"finished","class":{"system":"http://terminology.hl7.org/CodeSystem/v3-ActCode","code":"IMP","display":"inpatient encounter"},"type":[{"coding":[{"system":"http://snomed.info/sct","code":"112689000","display":"Hospital admission, elective, with complete pre-admission work-up"}],"text":"Hospital admission, elective, with complete pre-admission work-up"}],"priority":{"coding":[{"system":"http://snomed.info/sct","code":"103390000"}]},"subject":{"reference":"Patient/8942da50-6322-4df7-bd03-21aecbc427a4"},"period":{"start":"2026-04-18T08:00:00+00:00","end":"2026-04-22T08:15:00+00:00"},"diagnosis":[{"condition":{"reference":"Procedure/a7fea444-5119-4b7b-b1de-03f336fe567e"},"rank":1}]},"request":{"method":"PUT","url":"Encounter/7f3b569a-c37c-4122-b663-d69e39ee4009"}},{"fullUrl":"https://madie.cms.gov/Patient/8942da50-6322-4df7-bd03-21aecbc427a4","resource":{"resourceType":"Patient","id":"8942da50-6322-4df7-bd03-21aecbc427a4","meta":{"profile":["http://hl7.org/fhir/us/qicore/StructureDefinition/qicore-patient"]},"extension":[{"url":"http://hl7.org/fhir/us/core/StructureDefinition/us-core-race","extension":[{"url":"ombCategory","valueCoding":{"system":"urn:oid:2.16.840.1.113883.6.238","code":"1002-5","display":"American Indian or Alaska Native","userSelected":true}},{"url":"text","valueString":"American Indian or Alaska Native"}]},{"url":"http://hl7.org/fhir/us/core/StructureDefinition/us-core-ethnicity","extension":[{"url":"ombCategory","valueCoding":{"system":"urn:oid:2.16.840.1.113883.6.238","code":"2186-5","display":"Not Hispanic or Latino","userSelected":true}},{"url":"text","valueString":"Not Hispanic or Latino"}]}],"identifier":[{"type":{"coding":[{"system":"http://terminology.hl7.org/CodeSystem/v2-0203","code":"MR"}]},"system":"https://bonnie-fhir.healthit.gov/","value":"61152a3b98086b7a79cbd7c1"}],"active":true,"name":[{"use":"usual","family":"DENEXFail","given":["2Enc1stMVexc2ndNum"]}],"gender":"male","birthDate":"1966-07-12"},"request":{"method":"PUT","url":"Patient/8942da50-6322-4df7-bd03-21aecbc427a4"}},{"fullUrl":"https://madie.cms.gov/Procedure/9ed0bf3b-576e-4393-bce8-1acf57c771f2","resource":{"resourceType":"Procedure","id":"9ed0bf3b-576e-4393-bce8-1acf57c771f2","meta":{"profile":["http://hl7.org/fhir/us/qicore/StructureDefinition/qicore-procedure"]},"extension":[{"url":"http://hl7.org/fhir/us/qicore/StructureDefinition/qicore-recorded","valueDateTime":"2026-04-11T10:30:00+00:00"}],"status":"completed","category":{"coding":[{"system":"http://snomed.info/sct","code":"18286008","display":"General or neuraxial anesthesia"}]},"code":{"coding":[{"system":"http://snomed.info/sct","code":"112943005","display":"Epidural injection of anesthetic substance, diagnostic, caudal, continuous"}]},"subject":{"reference":"Patient/8942da50-6322-4df7-bd03-21aecbc427a4"},"performedPeriod":{"start":"2026-04-11T08:00:00+00:00","end":"2026-04-11T10:15:00+00:00"}},"request":{"method":"PUT","url":"Procedure/9ed0bf3b-576e-4393-bce8-1acf57c771f2"}},{"fullUrl":"https://madie.cms.gov/Procedure/14da3f01-1fd6-46d5-ab9c-f2ad1e21b817","resource":{"resourceType":"Procedure","id":"14da3f01-1fd6-46d5-ab9c-f2ad1e21b817","meta":{"profile":["http://hl7.org/fhir/us/qicore/StructureDefinition/qicore-procedure"]},"extension":[{"url":"http://hl7.org/fhir/us/qicore/StructureDefinition/qicore-recorded","valueDateTime":"2026-04-19T10:30:00+00:00"}],"status":"completed","category":{"coding":[{"system":"http://snomed.info/sct","code":"18286008","display":"General or neuraxial anesthesia"}]},"code":{"coding":[{"system":"http://snomed.info/sct","code":"112943005","display":"Epidural injection of anesthetic substance, diagnostic, caudal, continuous"}]},"subject":{"reference":"Patient/8942da50-6322-4df7-bd03-21aecbc427a4"},"performedPeriod":{"start":"2026-04-19T08:00:00+00:00","end":"2026-04-19T10:15:00+00:00"}},"request":{"method":"PUT","url":"Procedure/14da3f01-1fd6-46d5-ab9c-f2ad1e21b817"}},{"fullUrl":"https://madie.cms.gov/Procedure/e5d94529-4ad1-401a-80e7-13dd21139a73","resource":{"resourceType":"Procedure","id":"e5d94529-4ad1-401a-80e7-13dd21139a73","meta":{"profile":["http://hl7.org/fhir/us/qicore/StructureDefinition/qicore-procedure"]},"extension":[{"url":"http://hl7.org/fhir/us/qicore/StructureDefinition/qicore-recorded","valueDateTime":"2026-04-13T10:20:00+00:00"}],"status":"completed","code":{"coding":[{"system":"http://www.cms.gov/Medicare/Coding/ICD10","code":"0BH13EZ","display":"Insertion of Endotracheal Airway into Trachea, Percutaneous Approach"}],"text":"Insertion of Endotracheal Airway into Trachea, Percutaneous Approach"},"subject":{"reference":"Patient/8942da50-6322-4df7-bd03-21aecbc427a4"},"performedPeriod":{"start":"2026-04-12T08:00:00+00:00","end":"2026-04-13T10:15:00+00:00"}},"request":{"method":"PUT","url":"Procedure/e5d94529-4ad1-401a-80e7-13dd21139a73"}},{"fullUrl":"https://madie.cms.gov/Procedure/5eebed59-64a4-40ca-8aa7-fddf7f162c37","resource":{"resourceType":"Procedure","id":"5eebed59-64a4-40ca-8aa7-fddf7f162c37","meta":{"profile":["http://hl7.org/fhir/us/qicore/StructureDefinition/qicore-procedure"]},"extension":[{"url":"http://hl7.org/fhir/us/qicore/StructureDefinition/qicore-recorded","valueDateTime":"2026-04-11T06:10:00+00:00"}],"status":"completed","code":{"coding":[{"system":"http://snomed.info/sct","code":"243141005","display":"Mechanically assisted spontaneous ventilation"}],"text":"Mechanically assisted spontaneous ventilation"},"subject":{"reference":"Patient/8942da50-6322-4df7-bd03-21aecbc427a4"},"performedDateTime":"2026-04-11T06:59:00+00:00"},"request":{"method":"PUT","url":"Procedure/5eebed59-64a4-40ca-8aa7-fddf7f162c37"}},{"fullUrl":"https://madie.cms.gov/Procedure/7da9476b-5401-4576-928a-ffc5dc9a8e18","resource":{"resourceType":"Procedure","id":"7da9476b-5401-4576-928a-ffc5dc9a8e18","meta":{"profile":["http://hl7.org/fhir/us/qicore/StructureDefinition/qicore-procedure"]},"extension":[{"url":"http://hl7.org/fhir/us/qicore/StructureDefinition/qicore-recorded","valueDateTime":"2026-04-20T08:10:00+00:00"}],"status":"completed","code":{"coding":[{"system":"http://www.cms.gov/Medicare/Coding/ICD10","code":"0BH13EZ","display":"Insertion of Endotracheal Airway into Trachea, Percutaneous Approach"}],"text":"Insertion of Endotracheal Airway into Trachea, Percutaneous Approach"},"subject":{"reference":"Patient/8942da50-6322-4df7-bd03-21aecbc427a4"},"performedDateTime":"2026-04-20T08:00:00+00:00"},"request":{"method":"PUT","url":"Procedure/7da9476b-5401-4576-928a-ffc5dc9a8e18"}},{"fullUrl":"https://madie.cms.gov/MeasureReport/cb5d672e-b979-4892-abc9-66d0d6b3dcbc","resource":{"resourceType":"MeasureReport","id":"cb5d672e-b979-4892-abc9-66d0d6b3dcbc","meta":{"profile":["http://hl7.org/fhir/us/cqfmeasures/StructureDefinition/test-case-cqfm"]},"contained":[{"resourceType":"Parameters","id":"0b876b37-a5d8-4ad4-ba10-0d0ef899d077-parameters","parameter":[{"name":"subject","valueString":"8942da50-6322-4df7-bd03-21aecbc427a4"}]}],"extension":[{"url":"http://hl7.org/fhir/us/cqfmeasures/StructureDefinition/cqfm-inputParameters","valueReference":{"reference":"#0b876b37-a5d8-4ad4-ba10-0d0ef899d077-parameters"}},{"url":"http://hl7.org/fhir/us/cqfmeasures/StructureDefinition/cqfm-testCaseDescription","valueMarkdown":"1st encounter excluded - MV starts more than 1 hr prior to first proc. 2nd encounter meets numerator 1 intubation outside of procedural area. "}],"modifierExtension":[{"url":"http://hl7.org/fhir/us/cqfmeasures/StructureDefinition/cqfm-isTestCase","valueBoolean":true}],"status":"complete","type":"individual","measure":"https://madie.cms.gov/Measure/CMS1218HHRFFHIR","period":{"start":"2026-01-01","end":"2026-12-31"},"group":[{"population":[{"code":{"coding":[{"system":"http://terminology.hl7.org/CodeSystem/measure-population","code":"initial-population","display":"Initial Population"}]},"count":2},{"code":{"coding":[{"system":"http://terminology.hl7.org/CodeSystem/measure-population","code":"denominator","display":"Denominator"}]},"count":2},{"code":{"coding":[{"system":"http://terminology.hl7.org/CodeSystem/measure-population","code":"denominator-exclusion","display":"Denominator Exclusion"}]},"count":1},{"code":{"coding":[{"system":"http://terminology.hl7.org/CodeSystem/measure-population","code":"numerator","display":"Numerator"}]},"count":1}]}]},"request":{"method":"PUT","url":"MeasureReport/cb5d672e-b979-4892-abc9-66d0d6b3dcbc"}}]}