{"resourceType":"Bundle","id":"tests-4e29d86b-a6d3-45ac-98c4-7a3e5e4f6495-bundle","type":"transaction","entry":[{"fullUrl":"https://madie.cms.gov/Encounter/44994c33-8520-40df-a248-1a95fd4f9d15","resource":{"resourceType":"Encounter","id":"44994c33-8520-40df-a248-1a95fd4f9d15","meta":{"profile":["http://hl7.org/fhir/us/qicore/StructureDefinition/qicore-encounter"]},"status":"finished","class":{"system":"http://terminology.hl7.org/CodeSystem/v3-ActCode","code":"IMP","display":"inpatient encounter"},"type":[{"coding":[{"system":"http://snomed.info/sct","code":"112689000","display":"Hospital admission, elective, with complete pre-admission work-up"}],"text":"Hospital admission, elective, with complete pre-admission work-up"}],"priority":{"coding":[{"system":"http://snomed.info/sct","code":"103390000"}]},"subject":{"reference":"Patient/4e29d86b-a6d3-45ac-98c4-7a3e5e4f6495"},"period":{"start":"2026-04-10T08:00:00+00:00","end":"2026-04-14T08:15:00+00:00"}},"request":{"method":"PUT","url":"Encounter/44994c33-8520-40df-a248-1a95fd4f9d15"}},{"fullUrl":"https://madie.cms.gov/Patient/4e29d86b-a6d3-45ac-98c4-7a3e5e4f6495","resource":{"resourceType":"Patient","id":"4e29d86b-a6d3-45ac-98c4-7a3e5e4f6495","meta":{"profile":["http://hl7.org/fhir/us/qicore/StructureDefinition/qicore-patient"]},"extension":[{"url":"http://hl7.org/fhir/us/core/StructureDefinition/us-core-race","extension":[{"url":"ombCategory","valueCoding":{"system":"urn:oid:2.16.840.1.113883.6.238","code":"2054-5","display":"Black or African American","userSelected":true}},{"url":"text","valueString":"Black or African American"}]},{"url":"http://hl7.org/fhir/us/core/StructureDefinition/us-core-ethnicity","extension":[{"url":"ombCategory","valueCoding":{"system":"urn:oid:2.16.840.1.113883.6.238","code":"2186-5","display":"Not Hispanic or Latino","userSelected":true}},{"url":"text","valueString":"Not Hispanic or Latino"}]}],"identifier":[{"type":{"coding":[{"system":"http://terminology.hl7.org/CodeSystem/v2-0203","code":"MR"}]},"system":"https://bonnie-fhir.healthit.gov/","value":"61152a3b98086b7a79cbd7c1"}],"active":true,"name":[{"use":"usual","family":"NUMER1Pass","given":["IntubAftFirstORrelvtDatetime"]}],"gender":"female","birthDate":"1966-07-12"},"request":{"method":"PUT","url":"Patient/4e29d86b-a6d3-45ac-98c4-7a3e5e4f6495"}},{"fullUrl":"https://madie.cms.gov/Procedure/b80dd72d-a8a4-4dce-88e1-4710f07dd7bd","resource":{"resourceType":"Procedure","id":"b80dd72d-a8a4-4dce-88e1-4710f07dd7bd","meta":{"profile":["http://hl7.org/fhir/us/qicore/StructureDefinition/qicore-procedure"]},"extension":[{"url":"http://hl7.org/fhir/us/qicore/StructureDefinition/qicore-recorded","valueDateTime":"2026-04-11T08:20:00+00:00"}],"status":"completed","category":{"coding":[{"system":"http://snomed.info/sct","code":"18286008","display":"General or neuraxial anesthesia"}]},"code":{"coding":[{"system":"http://snomed.info/sct","code":"112943005","display":"Epidural injection of anesthetic substance, diagnostic, caudal, continuous"}]},"subject":{"reference":"Patient/4e29d86b-a6d3-45ac-98c4-7a3e5e4f6495"},"performedDateTime":"2026-04-11T08:00:00+00:00"},"request":{"method":"PUT","url":"Procedure/b80dd72d-a8a4-4dce-88e1-4710f07dd7bd"}},{"fullUrl":"https://madie.cms.gov/Procedure/8ad8ae1f-8ef0-43dd-8e3a-be3b30710516","resource":{"resourceType":"Procedure","id":"8ad8ae1f-8ef0-43dd-8e3a-be3b30710516","meta":{"profile":["http://hl7.org/fhir/us/qicore/StructureDefinition/qicore-procedure"]},"extension":[{"url":"http://hl7.org/fhir/us/qicore/StructureDefinition/qicore-recorded","valueDateTime":"2026-04-12T08:10:00+00:00"}],"status":"completed","code":{"coding":[{"system":"http://www.cms.gov/Medicare/Coding/ICD10","code":"0BH13EZ","display":"Insertion of Endotracheal Airway into Trachea, Percutaneous Approach"}],"text":"Insertion of Endotracheal Airway into Trachea, Percutaneous Approach"},"subject":{"reference":"Patient/4e29d86b-a6d3-45ac-98c4-7a3e5e4f6495"},"performedDateTime":"2026-04-12T08:00:00+00:00"},"request":{"method":"PUT","url":"Procedure/8ad8ae1f-8ef0-43dd-8e3a-be3b30710516"}},{"fullUrl":"https://madie.cms.gov/MeasureReport/d491a87b-00e5-410c-86b6-edb07502080d","resource":{"resourceType":"MeasureReport","id":"d491a87b-00e5-410c-86b6-edb07502080d","meta":{"profile":["http://hl7.org/fhir/us/cqfmeasures/StructureDefinition/test-case-cqfm"]},"contained":[{"resourceType":"Parameters","id":"bce8f517-3166-429a-aae5-f03c19dfa37f-parameters","parameter":[{"name":"subject","valueString":"4e29d86b-a6d3-45ac-98c4-7a3e5e4f6495"}]}],"extension":[{"url":"http://hl7.org/fhir/us/cqfmeasures/StructureDefinition/cqfm-inputParameters","valueReference":{"reference":"#bce8f517-3166-429a-aae5-f03c19dfa37f-parameters"}},{"url":"http://hl7.org/fhir/us/cqfmeasures/StructureDefinition/cqfm-testCaseDescription","valueMarkdown":"Elective hospitalization with procedure (general anesthesia) within first 3 days of encounter. \nIntubated within 30 days after end of anesthesia, outside of OR location. \nTest used relative date times. \nMeets Numerator 1."}],"modifierExtension":[{"url":"http://hl7.org/fhir/us/cqfmeasures/StructureDefinition/cqfm-isTestCase","valueBoolean":true}],"status":"complete","type":"individual","measure":"https://madie.cms.gov/Measure/CMS1218HHRFFHIR","period":{"start":"2026-01-01","end":"2026-12-31"},"group":[{"population":[{"code":{"coding":[{"system":"http://terminology.hl7.org/CodeSystem/measure-population","code":"initial-population","display":"Initial Population"}]},"count":1},{"code":{"coding":[{"system":"http://terminology.hl7.org/CodeSystem/measure-population","code":"denominator","display":"Denominator"}]},"count":1},{"code":{"coding":[{"system":"http://terminology.hl7.org/CodeSystem/measure-population","code":"denominator-exclusion","display":"Denominator Exclusion"}]},"count":0},{"code":{"coding":[{"system":"http://terminology.hl7.org/CodeSystem/measure-population","code":"numerator","display":"Numerator"}]},"count":1}]}]},"request":{"method":"PUT","url":"MeasureReport/d491a87b-00e5-410c-86b6-edb07502080d"}}]}