{"resourceType":"Bundle","id":"tests-b5548207-b73d-4013-8827-b76a641a2cf7-bundle","type":"transaction","entry":[{"fullUrl":"https://madie.cms.gov/Encounter/d051c6a4-4289-4734-812c-41a29573e6ae","resource":{"resourceType":"Encounter","id":"d051c6a4-4289-4734-812c-41a29573e6ae","meta":{"profile":["http://hl7.org/fhir/us/qicore/StructureDefinition/qicore-encounter"]},"status":"finished","class":{"system":"http://terminology.hl7.org/CodeSystem/v3-ActCode","code":"IMP","display":"inpatient encounter"},"type":[{"coding":[{"system":"http://snomed.info/sct","code":"112689000","display":"Hospital admission, elective, with complete pre-admission work-up"}],"text":"Hospital admission, elective, with complete pre-admission work-up"}],"priority":{"coding":[{"system":"http://snomed.info/sct","code":"103390000"}]},"subject":{"reference":"Patient/b5548207-b73d-4013-8827-b76a641a2cf7"},"period":{"start":"2026-04-10T08:00:00+00:00","end":"2026-04-14T08:15:00+00:00"}},"request":{"method":"PUT","url":"Encounter/d051c6a4-4289-4734-812c-41a29573e6ae"}},{"fullUrl":"https://madie.cms.gov/Patient/b5548207-b73d-4013-8827-b76a641a2cf7","resource":{"resourceType":"Patient","id":"b5548207-b73d-4013-8827-b76a641a2cf7","meta":{"profile":["http://hl7.org/fhir/us/qicore/StructureDefinition/qicore-patient"]},"extension":[{"url":"http://hl7.org/fhir/us/core/StructureDefinition/us-core-race","extension":[{"url":"ombCategory","valueCoding":{"system":"urn:oid:2.16.840.1.113883.6.238","code":"2054-5","display":"Black or African American","userSelected":true}},{"url":"text","valueString":"Black or African American"}]},{"url":"http://hl7.org/fhir/us/core/StructureDefinition/us-core-ethnicity","extension":[{"url":"ombCategory","valueCoding":{"system":"urn:oid:2.16.840.1.113883.6.238","code":"2186-5","display":"Not Hispanic or Latino","userSelected":true}},{"url":"text","valueString":"Not Hispanic or Latino"}]}],"identifier":[{"type":{"coding":[{"system":"http://terminology.hl7.org/CodeSystem/v2-0203","code":"MR"}]},"system":"https://bonnie-fhir.healthit.gov/","value":"61152a3b98086b7a79cbd7c1"}],"active":true,"name":[{"use":"usual","family":"NUMERPass","given":["Num3IntubationDuring1stProcExtubationGT48HrsProc"]}],"gender":"female","birthDate":"1966-07-12"},"request":{"method":"PUT","url":"Patient/b5548207-b73d-4013-8827-b76a641a2cf7"}},{"fullUrl":"https://madie.cms.gov/Procedure/63aa6189-a217-49b7-83ec-c8e8ac2724a8","resource":{"resourceType":"Procedure","id":"63aa6189-a217-49b7-83ec-c8e8ac2724a8","meta":{"profile":["http://hl7.org/fhir/us/qicore/StructureDefinition/qicore-procedure"]},"extension":[{"url":"http://hl7.org/fhir/us/qicore/StructureDefinition/qicore-recorded","valueDateTime":"2026-04-11T09:20:00+00:00"}],"status":"completed","category":{"coding":[{"system":"http://snomed.info/sct","code":"18286008","display":"General or neuraxial anesthesia"}]},"code":{"coding":[{"system":"http://snomed.info/sct","code":"112943005","display":"Epidural injection of anesthetic substance, diagnostic, caudal, continuous"}]},"subject":{"reference":"Patient/b5548207-b73d-4013-8827-b76a641a2cf7"},"performedPeriod":{"start":"2026-04-11T08:00:00+00:00","end":"2026-04-11T09:15:00+00:00"}},"request":{"method":"PUT","url":"Procedure/63aa6189-a217-49b7-83ec-c8e8ac2724a8"}},{"fullUrl":"https://madie.cms.gov/Procedure/9195ee3d-2be6-4fe5-9ea5-1c837acd834b","resource":{"resourceType":"Procedure","id":"9195ee3d-2be6-4fe5-9ea5-1c837acd834b","meta":{"profile":["http://hl7.org/fhir/us/qicore/StructureDefinition/qicore-procedure"]},"extension":[{"url":"http://hl7.org/fhir/us/qicore/StructureDefinition/qicore-recorded","valueDateTime":"2026-04-11T09:10:00+00:00"}],"status":"completed","code":{"coding":[{"system":"http://www.cms.gov/Medicare/Coding/ICD10","code":"0BH13EZ","display":"Insertion of Endotracheal Airway into Trachea, Percutaneous Approach"}],"text":"Insertion of Endotracheal Airway into Trachea, Percutaneous Approach"},"subject":{"reference":"Patient/b5548207-b73d-4013-8827-b76a641a2cf7"},"performedDateTime":"2026-04-11T09:00:00+00:00"},"request":{"method":"PUT","url":"Procedure/9195ee3d-2be6-4fe5-9ea5-1c837acd834b"}},{"fullUrl":"https://madie.cms.gov/Procedure/2fd159e4-ed0a-465e-8ebf-3589dc7987ed","resource":{"resourceType":"Procedure","id":"2fd159e4-ed0a-465e-8ebf-3589dc7987ed","meta":{"profile":["http://hl7.org/fhir/us/qicore/StructureDefinition/qicore-procedure"]},"extension":[{"url":"http://hl7.org/fhir/us/qicore/StructureDefinition/qicore-recorded","valueDateTime":"2026-04-21T12:00:00+00:00"}],"status":"completed","code":{"coding":[{"system":"http://snomed.info/sct","code":"271280005","display":"Removal of endotracheal tube (procedure)"}],"text":"Removal of endotracheal tube (procedure)"},"subject":{"reference":"Patient/b5548207-b73d-4013-8827-b76a641a2cf7"},"performedDateTime":"2026-04-13T10:16:00+00:00"},"request":{"method":"PUT","url":"Procedure/2fd159e4-ed0a-465e-8ebf-3589dc7987ed"}},{"fullUrl":"https://madie.cms.gov/MeasureReport/2756880c-843a-4013-9690-25e562fca893","resource":{"resourceType":"MeasureReport","id":"2756880c-843a-4013-9690-25e562fca893","meta":{"profile":["http://hl7.org/fhir/us/cqfmeasures/StructureDefinition/test-case-cqfm"]},"contained":[{"resourceType":"Parameters","id":"2274d84d-8cac-4d41-a32d-1c735127bbe9-parameters","parameter":[{"name":"subject","valueString":"b5548207-b73d-4013-8827-b76a641a2cf7"}]}],"extension":[{"url":"http://hl7.org/fhir/us/cqfmeasures/StructureDefinition/cqfm-inputParameters","valueReference":{"reference":"#2274d84d-8cac-4d41-a32d-1c735127bbe9-parameters"}},{"url":"http://hl7.org/fhir/us/cqfmeasures/StructureDefinition/cqfm-testCaseDescription","valueMarkdown":"Elective hospitalization with procedure (general anesthesia) relative date time within first 3 days of encounter. Intubated during first procedure, and extubated 48 hours + 1 minute after end of anesthesia. No oxygen prior to extubation. Meets Num 3."}],"modifierExtension":[{"url":"http://hl7.org/fhir/us/cqfmeasures/StructureDefinition/cqfm-isTestCase","valueBoolean":true}],"status":"complete","type":"individual","measure":"https://madie.cms.gov/Measure/CMS1218HHRFFHIR","period":{"start":"2026-01-01","end":"2026-12-31"},"group":[{"population":[{"code":{"coding":[{"system":"http://terminology.hl7.org/CodeSystem/measure-population","code":"initial-population","display":"Initial Population"}]},"count":1},{"code":{"coding":[{"system":"http://terminology.hl7.org/CodeSystem/measure-population","code":"denominator","display":"Denominator"}]},"count":1},{"code":{"coding":[{"system":"http://terminology.hl7.org/CodeSystem/measure-population","code":"denominator-exclusion","display":"Denominator Exclusion"}]},"count":0},{"code":{"coding":[{"system":"http://terminology.hl7.org/CodeSystem/measure-population","code":"numerator","display":"Numerator"}]},"count":1}]}]},"request":{"method":"PUT","url":"MeasureReport/2756880c-843a-4013-9690-25e562fca893"}}]}