{"resourceType":"Bundle","id":"tests-1939f5b2-658c-4f27-a62c-2368b76f4ac8-bundle","type":"transaction","entry":[{"fullUrl":"https://madie.cms.gov/Encounter/9af66a07-008a-4d89-8c4f-61b525b368be","resource":{"resourceType":"Encounter","id":"9af66a07-008a-4d89-8c4f-61b525b368be","meta":{"profile":["http://hl7.org/fhir/us/qicore/StructureDefinition/qicore-encounter"]},"status":"finished","class":{"system":"http://terminology.hl7.org/CodeSystem/v3-ActCode","code":"IMP","display":"inpatient encounter"},"type":[{"coding":[{"system":"http://snomed.info/sct","code":"112689000","display":"Hospital admission, elective, with complete pre-admission work-up"}],"text":"Hospital admission, elective, with complete pre-admission work-up"}],"priority":{"coding":[{"system":"http://snomed.info/sct","code":"103390000"}]},"subject":{"reference":"Patient/1939f5b2-658c-4f27-a62c-2368b76f4ac8"},"period":{"start":"2026-04-10T08:00:00+00:00","end":"2026-04-14T08:15:00+00:00"},"diagnosis":[{"condition":{"reference":"Procedure/47a8d0cd-6e1c-41b1-b30f-c9cbf0621bb6"},"rank":1}]},"request":{"method":"PUT","url":"Encounter/9af66a07-008a-4d89-8c4f-61b525b368be"}},{"fullUrl":"https://madie.cms.gov/Observation/1afecf05-521a-4723-9299-269722203451","resource":{"resourceType":"Observation","id":"1afecf05-521a-4723-9299-269722203451","meta":{"profile":["http://hl7.org/fhir/us/qicore/StructureDefinition/qicore-observation"]},"status":"final","category":[{"coding":[{"system":"http://terminology.hl7.org/CodeSystem/observation-category","code":"laboratory","display":"Laboratory"}],"text":"Laboratory"}],"code":{"coding":[{"system":"http://loinc.org","code":"1751-7","display":"Albumin [Mass/volume] in Serum or Plasma"}],"text":"Albumin [Mass/volume] in Serum or Plasma"},"subject":{"reference":"Patient/1939f5b2-658c-4f27-a62c-2368b76f4ac8"},"encounter":{"reference":"Encounter/9af66a07-008a-4d89-8c4f-61b525b368be"},"effectiveDateTime":"2026-04-11T08:00:00+00:00","valueQuantity":{"value":1,"unit":"g/dl","system":"http://unitsofmeasure.org","code":"g/dl"}},"request":{"method":"PUT","url":"Observation/1afecf05-521a-4723-9299-269722203451"}},{"fullUrl":"https://madie.cms.gov/Observation/635482fa-bbb5-43e1-b77b-8ab031bd962c","resource":{"resourceType":"Observation","id":"635482fa-bbb5-43e1-b77b-8ab031bd962c","meta":{"profile":["http://hl7.org/fhir/us/qicore/StructureDefinition/qicore-observation"]},"status":"final","category":[{"coding":[{"system":"http://terminology.hl7.org/CodeSystem/observation-category","code":"laboratory","display":"Laboratory"}],"text":"Laboratory"}],"code":{"coding":[{"system":"http://loinc.org","code":"1751-7","display":"Albumin [Mass/volume] in Serum or Plasma"}],"text":"Albumin [Mass/volume] in Serum or Plasma"},"subject":{"reference":"Patient/1939f5b2-658c-4f27-a62c-2368b76f4ac8"},"encounter":{"reference":"Encounter/9af66a07-008a-4d89-8c4f-61b525b368be"},"effectiveDateTime":"2026-04-11T10:00:00+00:00","valueQuantity":{"value":2,"unit":"g/dl","system":"http://unitsofmeasure.org","code":"g/dl"}},"request":{"method":"PUT","url":"Observation/635482fa-bbb5-43e1-b77b-8ab031bd962c"}},{"fullUrl":"https://madie.cms.gov/Patient/1939f5b2-658c-4f27-a62c-2368b76f4ac8","resource":{"resourceType":"Patient","id":"1939f5b2-658c-4f27-a62c-2368b76f4ac8","meta":{"profile":["http://hl7.org/fhir/us/qicore/StructureDefinition/qicore-patient"]},"extension":[{"url":"http://hl7.org/fhir/us/core/StructureDefinition/us-core-race","extension":[{"url":"ombCategory","valueCoding":{"system":"urn:oid:2.16.840.1.113883.6.238","code":"2054-5","display":"Black or African American","userSelected":true}},{"url":"text","valueString":"Black or African American"}]},{"url":"http://hl7.org/fhir/us/core/StructureDefinition/us-core-ethnicity","extension":[{"url":"ombCategory","valueCoding":{"system":"urn:oid:2.16.840.1.113883.6.238","code":"2186-5","display":"Not Hispanic or Latino","userSelected":true}},{"url":"text","valueString":"Not Hispanic or Latino"}]}],"identifier":[{"type":{"coding":[{"system":"http://terminology.hl7.org/CodeSystem/v2-0203","code":"MR"}]},"system":"https://bonnie-fhir.healthit.gov/","value":"61152a3b98086b7a79cbd7c1"}],"active":true,"name":[{"use":"usual","family":"DENOMPass","given":["RiskVariableFirstAlbuminGDLunit"]}],"gender":"female","birthDate":"1966-07-12"},"request":{"method":"PUT","url":"Patient/1939f5b2-658c-4f27-a62c-2368b76f4ac8"}},{"fullUrl":"https://madie.cms.gov/Procedure/47a8d0cd-6e1c-41b1-b30f-c9cbf0621bb6","resource":{"resourceType":"Procedure","id":"47a8d0cd-6e1c-41b1-b30f-c9cbf0621bb6","meta":{"profile":["http://hl7.org/fhir/us/qicore/StructureDefinition/qicore-procedure"]},"extension":[{"url":"http://hl7.org/fhir/us/qicore/StructureDefinition/qicore-recorded","valueDateTime":"2026-04-11T10:30:00+00:00"}],"status":"completed","category":{"coding":[{"system":"http://snomed.info/sct","code":"18286008","display":"General or neuraxial anesthesia"}]},"code":{"coding":[{"system":"http://snomed.info/sct","code":"112943005","display":"Epidural injection of anesthetic substance, diagnostic, caudal, continuous"}]},"subject":{"reference":"Patient/1939f5b2-658c-4f27-a62c-2368b76f4ac8"},"performedPeriod":{"start":"2026-04-11T08:00:00+00:00","end":"2026-04-11T10:15:00+00:00"}},"request":{"method":"PUT","url":"Procedure/47a8d0cd-6e1c-41b1-b30f-c9cbf0621bb6"}},{"fullUrl":"https://madie.cms.gov/MeasureReport/068c392d-8b27-4f5b-9c88-b12f44561089","resource":{"resourceType":"MeasureReport","id":"068c392d-8b27-4f5b-9c88-b12f44561089","meta":{"profile":["http://hl7.org/fhir/us/cqfmeasures/StructureDefinition/test-case-cqfm"]},"contained":[{"resourceType":"Parameters","id":"02c43865-4339-4118-a2c0-4e05ef369afe-parameters","parameter":[{"name":"subject","valueString":"1939f5b2-658c-4f27-a62c-2368b76f4ac8"}]}],"extension":[{"url":"http://hl7.org/fhir/us/cqfmeasures/StructureDefinition/cqfm-inputParameters","valueReference":{"reference":"#02c43865-4339-4118-a2c0-4e05ef369afe-parameters"}},{"url":"http://hl7.org/fhir/us/cqfmeasures/StructureDefinition/cqfm-testCaseDescription","valueMarkdown":"Encounter with 2 albumins during encounter. RV returns first, not second value. First value = 1. Second value = 2. Test for RV first albumin using unit g/dL passes. "}],"modifierExtension":[{"url":"http://hl7.org/fhir/us/cqfmeasures/StructureDefinition/cqfm-isTestCase","valueBoolean":true}],"status":"complete","type":"individual","measure":"https://madie.cms.gov/Measure/CMS1218HHRFFHIR","period":{"start":"2026-01-01","end":"2026-12-31"},"group":[{"population":[{"code":{"coding":[{"system":"http://terminology.hl7.org/CodeSystem/measure-population","code":"initial-population","display":"Initial Population"}]},"count":1},{"code":{"coding":[{"system":"http://terminology.hl7.org/CodeSystem/measure-population","code":"denominator","display":"Denominator"}]},"count":1},{"code":{"coding":[{"system":"http://terminology.hl7.org/CodeSystem/measure-population","code":"denominator-exclusion","display":"Denominator Exclusion"}]},"count":0},{"code":{"coding":[{"system":"http://terminology.hl7.org/CodeSystem/measure-population","code":"numerator","display":"Numerator"}]},"count":0}]}]},"request":{"method":"PUT","url":"MeasureReport/068c392d-8b27-4f5b-9c88-b12f44561089"}}]}