{"resourceType":"Bundle","id":"tests-055e466e-dd71-4a1f-b3d4-bc54ecf95721-bundle","type":"transaction","entry":[{"fullUrl":"https://madie.cms.gov/Procedure/97488fbd-ef1e-4536-9ed4-5fe4f21918bc","resource":{"resourceType":"Procedure","id":"97488fbd-ef1e-4536-9ed4-5fe4f21918bc","meta":{"profile":["http://hl7.org/fhir/us/qicore/StructureDefinition/qicore-procedure"]},"extension":[{"url":"http://hl7.org/fhir/us/qicore/StructureDefinition/qicore-recorded","valueDateTime":"2026-04-11T10:30:00+00:00"}],"status":"completed","category":{"coding":[{"system":"http://snomed.info/sct","code":"18286008","display":"General or neuraxial anesthesia"}]},"code":{"coding":[{"system":"http://snomed.info/sct","code":"112943005","display":"Epidural injection of anesthetic substance, diagnostic, caudal, continuous"}]},"subject":{"reference":"Patient/055e466e-dd71-4a1f-b3d4-bc54ecf95721"},"performedPeriod":{"start":"2026-04-11T08:00:00+00:00","end":"2026-04-11T10:15:00+00:00"}},"request":{"method":"PUT","url":"Procedure/97488fbd-ef1e-4536-9ed4-5fe4f21918bc"}},{"fullUrl":"https://madie.cms.gov/Encounter/d77ba7cc-5212-4d51-b38d-2e91ae68f6e0","resource":{"resourceType":"Encounter","id":"d77ba7cc-5212-4d51-b38d-2e91ae68f6e0","meta":{"profile":["http://hl7.org/fhir/us/qicore/StructureDefinition/qicore-encounter"]},"status":"finished","class":{"system":"http://terminology.hl7.org/CodeSystem/v3-ActCode","code":"IMP","display":"inpatient encounter"},"type":[{"coding":[{"system":"http://snomed.info/sct","code":"112689000"}]}],"subject":{"reference":"Patient/055e466e-dd71-4a1f-b3d4-bc54ecf95721"},"period":{"start":"2026-04-10T08:00:00+00:00","end":"2026-04-14T10:15:00+00:00"}},"request":{"method":"PUT","url":"Encounter/d77ba7cc-5212-4d51-b38d-2e91ae68f6e0"}},{"fullUrl":"https://madie.cms.gov/Encounter/c09dd7ed-2c55-49fb-971d-09e38195cc23","resource":{"resourceType":"Encounter","id":"c09dd7ed-2c55-49fb-971d-09e38195cc23","meta":{"profile":["http://hl7.org/fhir/us/qicore/StructureDefinition/qicore-encounter"]},"status":"finished","class":{"system":"http://terminology.hl7.org/CodeSystem/v3-ActCode","code":"EMER","display":"emergency"},"type":[{"coding":[{"system":"http://snomed.info/sct","code":"4525004"}]}],"subject":{"reference":"Patient/055e466e-dd71-4a1f-b3d4-bc54ecf95721"},"period":{"start":"2026-04-09T08:00:00+00:00","end":"2026-04-10T08:00:00+00:00"}},"request":{"method":"PUT","url":"Encounter/c09dd7ed-2c55-49fb-971d-09e38195cc23"}},{"fullUrl":"https://madie.cms.gov/Patient/055e466e-dd71-4a1f-b3d4-bc54ecf95721","resource":{"resourceType":"Patient","id":"055e466e-dd71-4a1f-b3d4-bc54ecf95721","meta":{"profile":["http://hl7.org/fhir/us/qicore/StructureDefinition/qicore-patient"]},"extension":[{"url":"http://hl7.org/fhir/us/core/StructureDefinition/us-core-race","extension":[{"url":"ombCategory","valueCoding":{"system":"urn:oid:2.16.840.1.113883.6.238","code":"2028-9","display":"Asian","userSelected":true}},{"url":"text","valueString":"Asian"}]},{"url":"http://hl7.org/fhir/us/core/StructureDefinition/us-core-ethnicity","extension":[{"url":"ombCategory","valueCoding":{"system":"urn:oid:2.16.840.1.113883.6.238","code":"2186-5","display":"Not Hispanic or Latino","userSelected":true}},{"url":"text","valueString":"Not Hispanic or Latino"}]}],"identifier":[{"type":{"coding":[{"system":"http://terminology.hl7.org/CodeSystem/v2-0203","code":"MR"}]},"system":"https://bonnie-fhir.healthit.gov/","value":"61152a3b98086b7a79cbd7c1"}],"active":true,"name":[{"use":"usual","family":"IPPFail","given":["NonElecEncWithEDVisitEndDTSameAsIPStartDT"]}],"gender":"female","birthDate":"1966-04-09"},"request":{"method":"PUT","url":"Patient/055e466e-dd71-4a1f-b3d4-bc54ecf95721"}},{"fullUrl":"https://madie.cms.gov/MeasureReport/48aa2317-685d-463c-8bc2-6a317530bbbf","resource":{"resourceType":"MeasureReport","id":"48aa2317-685d-463c-8bc2-6a317530bbbf","meta":{"profile":["http://hl7.org/fhir/us/cqfmeasures/StructureDefinition/test-case-cqfm"]},"contained":[{"resourceType":"Parameters","id":"97a2797c-5d80-4588-a370-3516c892a017-parameters","parameter":[{"name":"subject","valueString":"055e466e-dd71-4a1f-b3d4-bc54ecf95721"}]}],"extension":[{"url":"http://hl7.org/fhir/us/cqfmeasures/StructureDefinition/cqfm-inputParameters","valueReference":{"reference":"#97a2797c-5d80-4588-a370-3516c892a017-parameters"}},{"url":"http://hl7.org/fhir/us/cqfmeasures/StructureDefinition/cqfm-testCaseDescription","valueMarkdown":"Non-elective IP (no class of 'elective') within first 3 days of encounter. But has ED visit ends same time as start of IP visit so Fails IPP. "}],"modifierExtension":[{"url":"http://hl7.org/fhir/us/cqfmeasures/StructureDefinition/cqfm-isTestCase","valueBoolean":true}],"status":"complete","type":"individual","measure":"https://madie.cms.gov/Measure/CMS1218HHRFFHIR","period":{"start":"2026-01-01","end":"2026-12-31"},"group":[{"population":[{"code":{"coding":[{"system":"http://terminology.hl7.org/CodeSystem/measure-population","code":"initial-population","display":"Initial Population"}]},"count":0},{"code":{"coding":[{"system":"http://terminology.hl7.org/CodeSystem/measure-population","code":"denominator","display":"Denominator"}]},"count":0},{"code":{"coding":[{"system":"http://terminology.hl7.org/CodeSystem/measure-population","code":"denominator-exclusion","display":"Denominator Exclusion"}]},"count":0},{"code":{"coding":[{"system":"http://terminology.hl7.org/CodeSystem/measure-population","code":"numerator","display":"Numerator"}]},"count":0}]}]},"request":{"method":"PUT","url":"MeasureReport/48aa2317-685d-463c-8bc2-6a317530bbbf"}}]}