{"resourceType":"Bundle","id":"tests-f9b2fb9f-d553-420c-aac3-8633fb3d4d16-bundle","type":"transaction","entry":[{"fullUrl":"https://madie.cms.gov/Encounter/dd40e042-1de1-4987-a942-f6ffec54b143","resource":{"resourceType":"Encounter","id":"dd40e042-1de1-4987-a942-f6ffec54b143","meta":{"profile":["http://hl7.org/fhir/us/qicore/StructureDefinition/qicore-encounter"]},"status":"finished","class":{"system":"http://terminology.hl7.org/CodeSystem/v3-ActCode","code":"IMP","display":"inpatient encounter"},"type":[{"coding":[{"system":"http://snomed.info/sct","code":"112689000","display":"Hospital admission, elective, with complete pre-admission work-up"}],"text":"Hospital admission, elective, with complete pre-admission work-up"}],"priority":{"coding":[{"system":"http://snomed.info/sct","code":"103390000"}]},"subject":{"reference":"Patient/f9b2fb9f-d553-420c-aac3-8633fb3d4d16"},"period":{"start":"2026-04-10T08:00:00+00:00","end":"2026-04-14T08:15:00+00:00"}},"request":{"method":"PUT","url":"Encounter/dd40e042-1de1-4987-a942-f6ffec54b143"}},{"fullUrl":"https://madie.cms.gov/Patient/f9b2fb9f-d553-420c-aac3-8633fb3d4d16","resource":{"resourceType":"Patient","id":"f9b2fb9f-d553-420c-aac3-8633fb3d4d16","meta":{"profile":["http://hl7.org/fhir/us/qicore/StructureDefinition/qicore-patient"]},"extension":[{"url":"http://hl7.org/fhir/us/core/StructureDefinition/us-core-race","extension":[{"url":"ombCategory","valueCoding":{"system":"urn:oid:2.16.840.1.113883.6.238","code":"2054-5","display":"Black or African American","userSelected":true}},{"url":"text","valueString":"Black or African American"}]},{"url":"http://hl7.org/fhir/us/core/StructureDefinition/us-core-ethnicity","extension":[{"url":"ombCategory","valueCoding":{"system":"urn:oid:2.16.840.1.113883.6.238","code":"2186-5","display":"Not Hispanic or Latino","userSelected":true}},{"url":"text","valueString":"Not Hispanic or Latino"}]}],"identifier":[{"type":{"coding":[{"system":"http://terminology.hl7.org/CodeSystem/v2-0203","code":"MR"}]},"system":"https://bonnie-fhir.healthit.gov/","value":"61152a3b98086b7a79cbd7c1"}],"active":true,"name":[{"use":"usual","family":"NUMER4Pass","given":["Num4MVStartsExactly48HrsFromEndOfORProc"]}],"gender":"female","birthDate":"1966-07-12"},"request":{"method":"PUT","url":"Patient/f9b2fb9f-d553-420c-aac3-8633fb3d4d16"}},{"fullUrl":"https://madie.cms.gov/Procedure/9b0c9fef-3066-4669-8b78-6f10fbb0d58e","resource":{"resourceType":"Procedure","id":"9b0c9fef-3066-4669-8b78-6f10fbb0d58e","meta":{"profile":["http://hl7.org/fhir/us/qicore/StructureDefinition/qicore-procedure"]},"extension":[{"url":"http://hl7.org/fhir/us/qicore/StructureDefinition/qicore-recorded","valueDateTime":"2026-04-11T10:15:00+00:00"}],"status":"completed","category":{"coding":[{"system":"http://snomed.info/sct","code":"18286008","display":"General or neuraxial anesthesia"}]},"code":{"coding":[{"system":"http://snomed.info/sct","code":"112943005","display":"Epidural injection of anesthetic substance, diagnostic, caudal, continuous"}]},"subject":{"reference":"Patient/f9b2fb9f-d553-420c-aac3-8633fb3d4d16"},"performedPeriod":{"start":"2026-04-11T08:00:00+00:00","end":"2026-04-11T10:15:00+00:00"}},"request":{"method":"PUT","url":"Procedure/9b0c9fef-3066-4669-8b78-6f10fbb0d58e"}},{"fullUrl":"https://madie.cms.gov/Procedure/9ac85517-6981-4ce6-8206-f2e1a7bcd642","resource":{"resourceType":"Procedure","id":"9ac85517-6981-4ce6-8206-f2e1a7bcd642","meta":{"profile":["http://hl7.org/fhir/us/qicore/StructureDefinition/qicore-procedure"]},"extension":[{"url":"http://hl7.org/fhir/us/qicore/StructureDefinition/qicore-recorded","valueDateTime":"2026-04-13T11:20:30+00:00"}],"status":"completed","code":{"coding":[{"system":"http://snomed.info/sct","code":"243141005","display":"Mechanically assisted spontaneous ventilation"}],"text":"Mechanically assisted spontaneous ventilation"},"subject":{"reference":"Patient/f9b2fb9f-d553-420c-aac3-8633fb3d4d16"},"performedPeriod":{"start":"2026-04-13T10:15:00+00:00","end":"2026-04-13T11:15:00+00:00"}},"request":{"method":"PUT","url":"Procedure/9ac85517-6981-4ce6-8206-f2e1a7bcd642"}},{"fullUrl":"https://madie.cms.gov/MeasureReport/a5f9dd09-e115-4df6-b01d-fea105dfb6f3","resource":{"resourceType":"MeasureReport","id":"a5f9dd09-e115-4df6-b01d-fea105dfb6f3","meta":{"profile":["http://hl7.org/fhir/us/cqfmeasures/StructureDefinition/test-case-cqfm"]},"contained":[{"resourceType":"Parameters","id":"61d8a5de-63e7-4050-b091-28465918a61d-parameters","parameter":[{"name":"subject","valueString":"f9b2fb9f-d553-420c-aac3-8633fb3d4d16"}]}],"extension":[{"url":"http://hl7.org/fhir/us/cqfmeasures/StructureDefinition/cqfm-inputParameters","valueReference":{"reference":"#61d8a5de-63e7-4050-b091-28465918a61d-parameters"}},{"url":"http://hl7.org/fhir/us/cqfmeasures/StructureDefinition/cqfm-testCaseDescription","valueMarkdown":"Elective hospitalization with procedure (general anesthesia) within first 3 days of encounter. Mech ventilation starts exactly 48 hours from end of OR proc. Edge case, Numer4 passes. MV must start >= 48 hours after end of proc. "}],"modifierExtension":[{"url":"http://hl7.org/fhir/us/cqfmeasures/StructureDefinition/cqfm-isTestCase","valueBoolean":true}],"status":"complete","type":"individual","measure":"https://madie.cms.gov/Measure/CMS1218HHRFFHIR","period":{"start":"2026-01-01","end":"2026-12-31"},"group":[{"population":[{"code":{"coding":[{"system":"http://terminology.hl7.org/CodeSystem/measure-population","code":"initial-population","display":"Initial Population"}]},"count":1},{"code":{"coding":[{"system":"http://terminology.hl7.org/CodeSystem/measure-population","code":"denominator","display":"Denominator"}]},"count":1},{"code":{"coding":[{"system":"http://terminology.hl7.org/CodeSystem/measure-population","code":"denominator-exclusion","display":"Denominator Exclusion"}]},"count":0},{"code":{"coding":[{"system":"http://terminology.hl7.org/CodeSystem/measure-population","code":"numerator","display":"Numerator"}]},"count":1}]}]},"request":{"method":"PUT","url":"MeasureReport/a5f9dd09-e115-4df6-b01d-fea105dfb6f3"}}]}