{"resourceType":"Bundle","id":"tests-cb4e080a-0fb4-4a02-b923-aef5a4264fb3-bundle","type":"transaction","entry":[{"fullUrl":"https://madie.cms.gov/Encounter/a8f0b4fd-06f8-4320-9c71-d7fd39f5a7fa","resource":{"resourceType":"Encounter","id":"a8f0b4fd-06f8-4320-9c71-d7fd39f5a7fa","meta":{"profile":["http://hl7.org/fhir/us/qicore/StructureDefinition/qicore-encounter"]},"status":"finished","class":{"system":"http://terminology.hl7.org/CodeSystem/v3-ActCode","code":"IMP","display":"inpatient encounter"},"type":[{"coding":[{"system":"http://snomed.info/sct","code":"112689000","display":"Hospital admission, elective, with complete pre-admission work-up"}],"text":"Hospital admission, elective, with complete pre-admission work-up"}],"priority":{"coding":[{"system":"http://snomed.info/sct","code":"103390000"}]},"subject":{"reference":"Patient/cb4e080a-0fb4-4a02-b923-aef5a4264fb3"},"period":{"start":"2026-04-10T08:00:00+00:00","end":"2026-04-16T08:15:00+00:00"}},"request":{"method":"PUT","url":"Encounter/a8f0b4fd-06f8-4320-9c71-d7fd39f5a7fa"}},{"fullUrl":"https://madie.cms.gov/Patient/cb4e080a-0fb4-4a02-b923-aef5a4264fb3","resource":{"resourceType":"Patient","id":"cb4e080a-0fb4-4a02-b923-aef5a4264fb3","meta":{"profile":["http://hl7.org/fhir/us/qicore/StructureDefinition/qicore-patient"]},"extension":[{"url":"http://hl7.org/fhir/us/core/StructureDefinition/us-core-race","extension":[{"url":"ombCategory","valueCoding":{"system":"urn:oid:2.16.840.1.113883.6.238","code":"2054-5","display":"Black or African American","userSelected":true}},{"url":"text","valueString":"Black or African American"}]},{"url":"http://hl7.org/fhir/us/core/StructureDefinition/us-core-ethnicity","extension":[{"url":"ombCategory","valueCoding":{"system":"urn:oid:2.16.840.1.113883.6.238","code":"2186-5","display":"Not Hispanic or Latino","userSelected":true}},{"url":"text","valueString":"Not Hispanic or Latino"}]}],"identifier":[{"type":{"coding":[{"system":"http://terminology.hl7.org/CodeSystem/v2-0203","code":"MR"}]},"system":"https://bonnie-fhir.healthit.gov/","value":"61152a3b98086b7a79cbd7c1"}],"active":true,"name":[{"use":"usual","family":"NUMER1Pass","given":["2IntubsDurFirstORandAft2ndProc"]}],"gender":"female","birthDate":"1966-07-12"},"request":{"method":"PUT","url":"Patient/cb4e080a-0fb4-4a02-b923-aef5a4264fb3"}},{"fullUrl":"https://madie.cms.gov/Procedure/a4c95ebd-badd-49e7-b0e9-28f816a5d84f","resource":{"resourceType":"Procedure","id":"a4c95ebd-badd-49e7-b0e9-28f816a5d84f","meta":{"profile":["http://hl7.org/fhir/us/qicore/StructureDefinition/qicore-procedure"]},"extension":[{"url":"http://hl7.org/fhir/us/qicore/StructureDefinition/qicore-recorded","valueDateTime":"2026-04-11T10:20:00+00:00"}],"status":"completed","category":{"coding":[{"system":"http://snomed.info/sct","code":"18286008","display":"General or neuraxial anesthesia"}]},"code":{"coding":[{"system":"http://snomed.info/sct","code":"112943005","display":"Epidural injection of anesthetic substance, diagnostic, caudal, continuous"}]},"subject":{"reference":"Patient/cb4e080a-0fb4-4a02-b923-aef5a4264fb3"},"performedPeriod":{"start":"2026-04-11T08:00:00+00:00","end":"2026-04-11T10:15:00+00:00"}},"request":{"method":"PUT","url":"Procedure/a4c95ebd-badd-49e7-b0e9-28f816a5d84f"}},{"fullUrl":"https://madie.cms.gov/Procedure/40fd3407-3544-43c2-8949-e122424bb7be","resource":{"resourceType":"Procedure","id":"40fd3407-3544-43c2-8949-e122424bb7be","meta":{"profile":["http://hl7.org/fhir/us/qicore/StructureDefinition/qicore-procedure"]},"extension":[{"url":"http://hl7.org/fhir/us/qicore/StructureDefinition/qicore-recorded","valueDateTime":"2026-04-12T09:10:00+00:00"}],"status":"completed","code":{"coding":[{"system":"http://www.cms.gov/Medicare/Coding/ICD10","code":"0BH13EZ","display":"Insertion of Endotracheal Airway into Trachea, Percutaneous Approach"}],"text":"Insertion of Endotracheal Airway into Trachea, Percutaneous Approach"},"subject":{"reference":"Patient/cb4e080a-0fb4-4a02-b923-aef5a4264fb3"},"performedDateTime":"2026-04-11T09:00:00+00:00"},"request":{"method":"PUT","url":"Procedure/40fd3407-3544-43c2-8949-e122424bb7be"}},{"fullUrl":"https://madie.cms.gov/Procedure/b50ef5e1-9b7c-463d-b2d2-9484e5f2225b","resource":{"resourceType":"Procedure","id":"b50ef5e1-9b7c-463d-b2d2-9484e5f2225b","meta":{"profile":["http://hl7.org/fhir/us/qicore/StructureDefinition/qicore-procedure"]},"extension":[{"url":"http://hl7.org/fhir/us/qicore/StructureDefinition/qicore-recorded","valueDateTime":"2026-04-13T11:30:00+00:00"}],"status":"completed","category":{"coding":[{"system":"http://snomed.info/sct","code":"18286008","display":"General or neuraxial anesthesia"}]},"code":{"coding":[{"system":"http://snomed.info/sct","code":"112943005","display":"Epidural injection of anesthetic substance, diagnostic, caudal, continuous"}]},"subject":{"reference":"Patient/cb4e080a-0fb4-4a02-b923-aef5a4264fb3"},"performedPeriod":{"start":"2026-04-13T08:00:00+00:00","end":"2026-04-13T11:15:00+00:00"}},"request":{"method":"PUT","url":"Procedure/b50ef5e1-9b7c-463d-b2d2-9484e5f2225b"}},{"fullUrl":"https://madie.cms.gov/Procedure/2d4ca25e-042e-4bbf-8473-af4a45920c9b","resource":{"resourceType":"Procedure","id":"2d4ca25e-042e-4bbf-8473-af4a45920c9b","meta":{"profile":["http://hl7.org/fhir/us/qicore/StructureDefinition/qicore-procedure"]},"extension":[{"url":"http://hl7.org/fhir/us/qicore/StructureDefinition/qicore-recorded","valueDateTime":"2026-04-14T12:10:00+00:00"}],"status":"completed","code":{"coding":[{"system":"http://www.cms.gov/Medicare/Coding/ICD10","code":"0BH13EZ","display":"Insertion of Endotracheal Airway into Trachea, Percutaneous Approach"}],"text":"Insertion of Endotracheal Airway into Trachea, Percutaneous Approach"},"subject":{"reference":"Patient/cb4e080a-0fb4-4a02-b923-aef5a4264fb3"},"performedDateTime":"2026-04-13T12:00:00+00:00"},"request":{"method":"PUT","url":"Procedure/2d4ca25e-042e-4bbf-8473-af4a45920c9b"}},{"fullUrl":"https://madie.cms.gov/MeasureReport/b070b3a0-fe3e-409c-9a23-9c423d2fd45b","resource":{"resourceType":"MeasureReport","id":"b070b3a0-fe3e-409c-9a23-9c423d2fd45b","meta":{"profile":["http://hl7.org/fhir/us/cqfmeasures/StructureDefinition/test-case-cqfm"]},"contained":[{"resourceType":"Parameters","id":"235928c3-38fa-452b-95ce-b01c328f4b37-parameters","parameter":[{"name":"subject","valueString":"cb4e080a-0fb4-4a02-b923-aef5a4264fb3"}]}],"extension":[{"url":"http://hl7.org/fhir/us/cqfmeasures/StructureDefinition/cqfm-inputParameters","valueReference":{"reference":"#235928c3-38fa-452b-95ce-b01c328f4b37-parameters"}},{"url":"http://hl7.org/fhir/us/cqfmeasures/StructureDefinition/cqfm-testCaseDescription","valueMarkdown":"Elective hospitalization with procedure (general anesthesia) within first 3 days of encounter. Intubated during first proc. Intubated after end of second proc and not in proc area. Meets Numerator 1"}],"modifierExtension":[{"url":"http://hl7.org/fhir/us/cqfmeasures/StructureDefinition/cqfm-isTestCase","valueBoolean":true}],"status":"complete","type":"individual","measure":"https://madie.cms.gov/Measure/CMS1218HHRFFHIR","period":{"start":"2026-01-01","end":"2026-12-31"},"group":[{"population":[{"code":{"coding":[{"system":"http://terminology.hl7.org/CodeSystem/measure-population","code":"initial-population","display":"Initial Population"}]},"count":1},{"code":{"coding":[{"system":"http://terminology.hl7.org/CodeSystem/measure-population","code":"denominator","display":"Denominator"}]},"count":1},{"code":{"coding":[{"system":"http://terminology.hl7.org/CodeSystem/measure-population","code":"denominator-exclusion","display":"Denominator Exclusion"}]},"count":0},{"code":{"coding":[{"system":"http://terminology.hl7.org/CodeSystem/measure-population","code":"numerator","display":"Numerator"}]},"count":1}]}]},"request":{"method":"PUT","url":"MeasureReport/b070b3a0-fe3e-409c-9a23-9c423d2fd45b"}}]}