{
  "resourceType": "Bundle",
  "id": "612e6aef02c62a011f2ebd2e",
  "type": "transaction",
  "entry": [ {
    "fullUrl": "https://madie.cms.gov/Patient/bc83eb4d-4953-4995-9a14-5e2a764a6728",
    "resource": {
      "resourceType": "Patient",
      "id": "bc83eb4d-4953-4995-9a14-5e2a764a6728",
      "meta": {
        "profile": [ "http://hl7.org/fhir/us/qicore/StructureDefinition/qicore-patient" ]
      },
      "text": {
        "status": "generated",
        "div": "<div xmlns=\"http://www.w3.org/1999/xhtml\"><div class=\"hapiHeaderText\">TestMultipleOccur_1inExcl1inNum <b>NUMERPASS </b></div><table class=\"hapiPropertyTable\"><tbody><tr><td>Identifier</td><td>c25140d0e4b4dc40f8f038d62a9837e3e354787555978149ab2cc0d8c8c47525</td></tr><tr><td>Date of birth</td><td><span>02 January 1974</span></td></tr></tbody></table></div>"
      },
      "extension": [ {
        "url": "http://hl7.org/fhir/us/core/StructureDefinition/us-core-race",
        "extension": [ {
          "url": "ombCategory",
          "valueCoding": {
            "system": "urn:oid:2.16.840.1.113883.6.238",
            "code": "1002-5",
            "display": "American Indian or Alaska Native",
            "userSelected": true
          }
        }, {
          "url": "text",
          "valueString": "American Indian or Alaska Native"
        } ]
      }, {
        "url": "http://hl7.org/fhir/us/core/StructureDefinition/us-core-ethnicity",
        "extension": [ {
          "url": "ombCategory",
          "valueCoding": {
            "system": "urn:oid:2.16.840.1.113883.6.238",
            "code": "2135-2",
            "display": "Hispanic or Latino",
            "userSelected": true
          }
        }, {
          "url": "text",
          "valueString": "Hispanic or Latino"
        } ]
      } ],
      "identifier": [ {
        "type": {
          "coding": [ {
            "system": "http://terminology.hl7.org/CodeSystem/v2-0203",
            "code": "MR"
          } ]
        },
        "system": "https://bonnie-fhir.healthit.gov/",
        "value": "612e6aef02c62a011f2ebd2e"
      } ],
      "active": true,
      "name": [ {
        "use": "usual",
        "family": "NUMERPass",
        "given": [ "TestMultipleOccur_1inExcl1inNum" ]
      } ],
      "gender": "male",
      "birthDate": "1975-01-02"
    },
    "request": {
      "method": "PUT",
      "url": "Patient/bc83eb4d-4953-4995-9a14-5e2a764a6728"
    }
  }, {
    "fullUrl": "https://madie.cms.gov/Encounter/1ac9e9f3-5d12-4f48-94be-9d0c7ff9e5d5",
    "resource": {
      "resourceType": "Encounter",
      "id": "1ac9e9f3-5d12-4f48-94be-9d0c7ff9e5d5",
      "meta": {
        "profile": [ "http://hl7.org/fhir/us/qicore/StructureDefinition/qicore-encounter" ]
      },
      "status": "finished",
      "class": {
        "system": "http://terminology.hl7.org/CodeSystem/v3-ActCode",
        "code": "IMP",
        "display": "inpatient encounter"
      },
      "type": [ {
        "coding": [ {
          "system": "http://snomed.info/sct",
          "code": "183452005"
        } ]
      } ],
      "subject": {
        "reference": "Patient/bc83eb4d-4953-4995-9a14-5e2a764a6728"
      },
      "period": {
        "start": "2026-04-01T08:00:00+00:00",
        "end": "2026-04-05T08:15:00+00:00"
      },
      "length": {
        "value": 4.0,
        "unit": "days"
      }
    },
    "request": {
      "method": "PUT",
      "url": "Encounter/1ac9e9f3-5d12-4f48-94be-9d0c7ff9e5d5"
    }
  }, {
    "fullUrl": "https://madie.cms.gov/Encounter/a42642e2-297b-4b36-aace-20e4aa2fff8a",
    "resource": {
      "resourceType": "Encounter",
      "id": "a42642e2-297b-4b36-aace-20e4aa2fff8a",
      "meta": {
        "profile": [ "http://hl7.org/fhir/us/qicore/StructureDefinition/qicore-encounter" ]
      },
      "status": "finished",
      "class": {
        "system": "http://terminology.hl7.org/CodeSystem/v3-ActCode",
        "code": "IMP",
        "display": "inpatient encounter"
      },
      "type": [ {
        "coding": [ {
          "system": "http://snomed.info/sct",
          "code": "8715000"
        } ]
      } ],
      "subject": {
        "reference": "Patient/bc83eb4d-4953-4995-9a14-5e2a764a6728"
      },
      "period": {
        "start": "2026-11-01T08:00:00+00:00",
        "end": "2026-11-26T08:15:00+00:00"
      },
      "length": {
        "value": 25.0,
        "unit": "days"
      }
    },
    "request": {
      "method": "PUT",
      "url": "Encounter/a42642e2-297b-4b36-aace-20e4aa2fff8a"
    }
  }, {
    "fullUrl": "https://madie.cms.gov/Procedure/a1584f30-06ab-49b7-8df0-f83785a12cc0",
    "resource": {
      "resourceType": "Procedure",
      "id": "a1584f30-06ab-49b7-8df0-f83785a12cc0",
      "meta": {
        "profile": [ "http://hl7.org/fhir/us/qicore/StructureDefinition/qicore-procedure" ]
      },
      "extension": [ {
        "url": "http://hl7.org/fhir/us/qicore/StructureDefinition/qicore-recorded",
        "valueDateTime": "2013-04-03T09:35:00-04:00"
      } ],
      "status": "completed",
      "code": {
        "coding": [ {
          "system": "http://snomed.info/sct",
          "code": "133918004"
        } ]
      },
      "subject": {
        "reference": "Patient/bc83eb4d-4953-4995-9a14-5e2a764a6728"
      },
      "performedPeriod": {
        "start": "2026-04-01T08:00:00+00:00",
        "end": "2026-04-01T08:15:00+00:00"
      }
    },
    "request": {
      "method": "PUT",
      "url": "Procedure/a1584f30-06ab-49b7-8df0-f83785a12cc0"
    }
  }, {
    "fullUrl": "https://madie.cms.gov/Coverage/62ea50bb-2ef0-46e6-b917-4e06228d3cf2",
    "resource": {
      "resourceType": "Coverage",
      "id": "62ea50bb-2ef0-46e6-b917-4e06228d3cf2",
      "status": "active",
      "beneficiary": {
        "reference": "Patient/bc83eb4d-4953-4995-9a14-5e2a764a6728"
      },
      "period": {
        "start": "1975-01-02T08:00:00+00:00"
      },
      "payor": [ {
        "reference": "Organization/b2dfe006-e655-4b85-88ae-674bde0a6f6b"
      } ]
    },
    "request": {
      "method": "PUT",
      "url": "Coverage/62ea50bb-2ef0-46e6-b917-4e06228d3cf2"
    }
  }, {
    "fullUrl": "https://madie.cms.gov/MedicationAdministration/2fbbca88-758b-4928-bf0b-57ecdf867d0d",
    "resource": {
      "resourceType": "MedicationAdministration",
      "id": "2fbbca88-758b-4928-bf0b-57ecdf867d0d",
      "meta": {
        "profile": [ "http://hl7.org/fhir/us/qicore/StructureDefinition/qicore-medicationadministration" ]
      },
      "status": "completed",
      "medicationCodeableConcept": {
        "coding": [ {
          "system": "http://www.nlm.nih.gov/research/umls/rxnorm",
          "code": "855288",
          "display": "warfarin sodium 1 MG Oral Tablet",
          "userSelected": true
        } ]
      },
      "subject": {
        "reference": "Patient/bc83eb4d-4953-4995-9a14-5e2a764a6728"
      },
      "effectiveDateTime": "2026-11-01T10:00:00.000+00:00"
    },
    "request": {
      "method": "PUT",
      "url": "MedicationAdministration/2fbbca88-758b-4928-bf0b-57ecdf867d0d"
    }
  }, {
    "fullUrl": "https://madie.cms.gov/Organization/b2dfe006-e655-4b85-88ae-674bde0a6f6b",
    "resource": {
      "resourceType": "Organization",
      "id": "b2dfe006-e655-4b85-88ae-674bde0a6f6b",
      "meta": {
        "profile": [ "http://hl7.org/fhir/us/qicore/StructureDefinition/qicore-organization" ]
      },
      "identifier": [ {
        "use": "temp",
        "system": "urn:oid:2.16.840.1.113883.4.4",
        "value": "21-3259825"
      } ],
      "active": true,
      "type": [ {
        "coding": [ {
          "system": "http://terminology.hl7.org/CodeSystem/organization-type",
          "code": "pay",
          "display": "Payer"
        } ]
      } ],
      "name": "Blue Cross Blue Shield of Texas",
      "telecom": [ {
        "system": "phone",
        "value": "(+1) 972-766-6900"
      } ],
      "address": [ {
        "use": "billing",
        "type": "postal",
        "line": [ "P.O. Box 660044" ],
        "city": "Dallas",
        "state": "TX",
        "postalCode": "75266-0044",
        "country": "USA"
      } ]
    },
    "request": {
      "method": "PUT",
      "url": "Organization/b2dfe006-e655-4b85-88ae-674bde0a6f6b"
    }
  }, {
    "fullUrl": "https://madie.cms.gov/Practitioner/2277ff4c-5ee5-4c05-b09e-fbac45253007",
    "resource": {
      "resourceType": "Practitioner",
      "id": "2277ff4c-5ee5-4c05-b09e-fbac45253007",
      "identifier": [ {
        "system": "http://hl7.org/fhir/sid/us-npi",
        "value": "123456"
      } ],
      "name": [ {
        "family": "Evil",
        "prefix": [ "Dr" ]
      } ]
    },
    "request": {
      "method": "PUT",
      "url": "Practitioner/2277ff4c-5ee5-4c05-b09e-fbac45253007"
    }
  }, {
    "fullUrl": "https://madie.cms.gov/MeasureReport/01bce38a-c1d0-4a53-a8a6-448eae06dc5d",
    "resource": {
      "resourceType": "MeasureReport",
      "id": "01bce38a-c1d0-4a53-a8a6-448eae06dc5d",
      "meta": {
        "profile": [ "http://hl7.org/fhir/us/cqfmeasures/StructureDefinition/test-case-cqfm" ]
      },
      "contained": [ {
        "resourceType": "Parameters",
        "id": "b31f58f3-e104-4fc0-a607-60e4bfb0e5a3-parameters",
        "parameter": [ {
          "name": "subject",
          "valueString": "bc83eb4d-4953-4995-9a14-5e2a764a6728"
        } ]
      } ],
      "extension": [ {
        "url": "http://hl7.org/fhir/us/cqfmeasures/StructureDefinition/cqfm-inputParameters",
        "valueReference": {
          "reference": "#b31f58f3-e104-4fc0-a607-60e4bfb0e5a3-parameters"
        }
      }, {
        "url": "http://hl7.org/fhir/us/cqfmeasures/StructureDefinition/cqfm-testCaseDescription",
        "valueMarkdown": "TestMultipleOccur - 2 occurrences one is excluded due to COMP and one pass numerator\n"
      } ],
      "modifierExtension": [ {
        "url": "http://hl7.org/fhir/us/cqfmeasures/StructureDefinition/cqfm-isTestCase",
        "valueBoolean": true
      } ],
      "status": "complete",
      "type": "individual",
      "measure": "https://madie.cms.gov/Measure/CMS108VTEProphylaxisFHIR",
      "period": {
        "start": "2026-01-01",
        "end": "2026-12-31"
      },
      "group": [ {
        "population": [ {
          "code": {
            "coding": [ {
              "system": "http://terminology.hl7.org/CodeSystem/measure-population",
              "code": "initial-population",
              "display": "Initial Population"
            } ]
          },
          "count": 2
        }, {
          "code": {
            "coding": [ {
              "system": "http://terminology.hl7.org/CodeSystem/measure-population",
              "code": "denominator",
              "display": "Denominator"
            } ]
          },
          "count": 2
        }, {
          "code": {
            "coding": [ {
              "system": "http://terminology.hl7.org/CodeSystem/measure-population",
              "code": "denominator-exclusion",
              "display": "Denominator Exclusion"
            } ]
          },
          "count": 1
        }, {
          "code": {
            "coding": [ {
              "system": "http://terminology.hl7.org/CodeSystem/measure-population",
              "code": "numerator",
              "display": "Numerator"
            } ]
          },
          "count": 1
        } ]
      } ],
      "evaluatedResource": [ {
        "reference": "Patient/bc83eb4d-4953-4995-9a14-5e2a764a6728"
      }, {
        "reference": "Encounter/1ac9e9f3-5d12-4f48-94be-9d0c7ff9e5d5"
      }, {
        "reference": "Encounter/a42642e2-297b-4b36-aace-20e4aa2fff8a"
      }, {
        "reference": "Procedure/a1584f30-06ab-49b7-8df0-f83785a12cc0"
      }, {
        "reference": "Coverage/62ea50bb-2ef0-46e6-b917-4e06228d3cf2"
      }, {
        "reference": "MedicationAdministration/2fbbca88-758b-4928-bf0b-57ecdf867d0d"
      }, {
        "reference": "Organization/b2dfe006-e655-4b85-88ae-674bde0a6f6b"
      }, {
        "reference": "Practitioner/2277ff4c-5ee5-4c05-b09e-fbac45253007"
      } ]
    },
    "request": {
      "method": "PUT",
      "url": "MeasureReport/01bce38a-c1d0-4a53-a8a6-448eae06dc5d"
    }
  } ]
}