{
  "resourceType": "Bundle",
  "id": "641375ee4b11b147841ab8e5",
  "type": "transaction",
  "entry": [ {
    "fullUrl": "Patient/a2cf34eb-1f20-426f-bfce-53599a178b71",
    "resource": {
      "resourceType": "Patient",
      "id": "a2cf34eb-1f20-426f-bfce-53599a178b71",
      "meta": {
        "profile": [ "http://hl7.org/fhir/us/qicore/StructureDefinition/qicore-patient" ]
      },
      "extension": [ {
        "url": "http://hl7.org/fhir/us/core/StructureDefinition/us-core-race",
        "extension": [ {
          "url": "ombCategory",
          "valueCoding": {
            "system": "urn:oid:2.16.840.1.113883.6.238",
            "code": "1002-5",
            "display": "American Indian or Alaska Native",
            "userSelected": true
          }
        }, {
          "url": "text",
          "valueString": "American Indian or Alaska Native"
        } ]
      }, {
        "url": "http://hl7.org/fhir/us/core/StructureDefinition/us-core-ethnicity",
        "extension": [ {
          "url": "ombCategory",
          "valueCoding": {
            "system": "urn:oid:2.16.840.1.113883.6.238",
            "code": "2135-2",
            "display": "Hispanic or Latino",
            "userSelected": true
          }
        }, {
          "url": "text",
          "valueString": "Hispanic or Latino"
        } ]
      } ],
      "identifier": [ {
        "type": {
          "coding": [ {
            "system": "http://terminology.hl7.org/CodeSystem/v2-0203",
            "code": "MR"
          } ]
        },
        "system": "https://bonnie-fhir.healthit.gov/",
        "value": "641375ee4b11b147841ab8e5"
      } ],
      "name": [ {
        "family": "DENOMFail",
        "given": [ "DiabetesEncoOver75" ]
      } ],
      "gender": "female",
      "birthDate": "1938-01-01"
    },
    "request": {
      "method": "PUT",
      "url": "Patient/a2cf34eb-1f20-426f-bfce-53599a178b71"
    }
  }, {
    "fullUrl": "Condition/diabetes-b8e6",
    "resource": {
      "resourceType": "Condition",
      "id": "diabetes-b8e6",
      "meta": {
        "profile": [ "http://hl7.org/fhir/us/qicore/StructureDefinition/qicore-condition" ]
      },
      "clinicalStatus": {
        "coding": [ {
          "system": "http://terminology.hl7.org/CodeSystem/condition-clinical",
          "code": "active",
          "display": "active",
          "userSelected": true
        } ]
      },
      "category": [ {
        "coding": [ {
          "system": "http://terminology.hl7.org/CodeSystem/condition-category",
          "code": "encounter-diagnosis",
          "display": "Encounter Diagnosis",
          "userSelected": true
        } ]
      } ],
      "code": {
        "coding": [ {
          "system": "http://snomed.info/sct",
          "version": "2021-09",
          "code": "102781000119107",
          "display": "Sensory neuropathy due to type 1 diabetes mellitus (disorder)",
          "userSelected": true
        } ]
      },
      "subject": {
        "reference": "Patient/a2cf34eb-1f20-426f-bfce-53599a178b71"
      },
      "onsetDateTime": "2023-10-12T08:00:00.000+00:00"
    },
    "request": {
      "method": "PUT",
      "url": "Condition/diabetes-b8e6"
    }
  }, {
    "fullUrl": "Encounter/outpatient-consultation-b8e7",
    "resource": {
      "resourceType": "Encounter",
      "id": "outpatient-consultation-b8e7",
      "meta": {
        "profile": [ "http://hl7.org/fhir/us/qicore/StructureDefinition/qicore-encounter" ]
      },
      "status": "finished",
      "class": {
        "system": "http://terminology.hl7.org/CodeSystem/v3-ActCode",
        "code": "AMB",
        "display": "ambulatory",
        "userSelected": true
      },
      "type": [ {
        "coding": [ {
          "system": "http://snomed.info/sct",
          "version": "2021-09",
          "code": "281036007",
          "display": "Follow-up consultation (procedure)",
          "userSelected": true
        } ]
      } ],
      "subject": {
        "reference": "Patient/a2cf34eb-1f20-426f-bfce-53599a178b71"
      },
      "period": {
        "start": "2025-03-16T08:00:00.000+00:00",
        "end": "2025-03-16T08:15:00.000+00:00"
      }
    },
    "request": {
      "method": "PUT",
      "url": "Encounter/outpatient-consultation-b8e7"
    }
  }, {
    "fullUrl": "MeasureReport/b030d291-be71-4f10-a890-ddfa5e6a66b5",
    "resource": {
      "resourceType": "MeasureReport",
      "id": "b030d291-be71-4f10-a890-ddfa5e6a66b5",
      "meta": {
        "profile": [ "http://hl7.org/fhir/us/cqfmeasures/StructureDefinition/test-case-cqfm" ]
      },
      "contained": [ {
        "resourceType": "Parameters",
        "id": "c0f7d33f-deff-4021-bb4b-c5917e5a899b-parameters",
        "parameter": [ {
          "name": "subject",
          "valueString": "a2cf34eb-1f20-426f-bfce-53599a178b71"
        } ]
      } ],
      "extension": [ {
        "url": "http://hl7.org/fhir/us/cqfmeasures/StructureDefinition/cqfm-inputParameters",
        "valueReference": {
          "reference": "#c0f7d33f-deff-4021-bb4b-c5917e5a899b-parameters"
        }
      }, {
        "url": "http://hl7.org/fhir/us/cqfmeasures/StructureDefinition/cqfm-testCaseDescription",
        "valueMarkdown": "This patient turns 76 the first day of the MP, with a qualifying encounter and active diabetes diagnosis. This case tests the denominator criteria."
      } ],
      "modifierExtension": [ {
        "url": "http://hl7.org/fhir/us/cqfmeasures/StructureDefinition/cqfm-isTestCase",
        "valueBoolean": true
      } ],
      "status": "complete",
      "type": "individual",
      "measure": "Measure/KidneyHealthEvaluationFHIR",
      "period": {
        "start": "2025-01-01",
        "end": "2025-12-31"
      },
      "group": [ {
        "population": [ {
          "code": {
            "coding": [ {
              "system": "http://terminology.hl7.org/CodeSystem/measure-population",
              "code": "initial-population",
              "display": "Initial Population"
            } ]
          },
          "count": 0
        }, {
          "code": {
            "coding": [ {
              "system": "http://terminology.hl7.org/CodeSystem/measure-population",
              "code": "denominator",
              "display": "Denominator"
            } ]
          },
          "count": 0
        }, {
          "code": {
            "coding": [ {
              "system": "http://terminology.hl7.org/CodeSystem/measure-population",
              "code": "denominator-exclusion",
              "display": "Denominator Exclusion"
            } ]
          },
          "count": 0
        }, {
          "code": {
            "coding": [ {
              "system": "http://terminology.hl7.org/CodeSystem/measure-population",
              "code": "numerator",
              "display": "Numerator"
            } ]
          },
          "count": 0
        } ]
      } ],
      "evaluatedResource": [ {
        "reference": "Patient/a2cf34eb-1f20-426f-bfce-53599a178b71"
      }, {
        "reference": "Condition/diabetes-b8e6"
      }, {
        "reference": "Encounter/outpatient-consultation-b8e7"
      } ]
    },
    "request": {
      "method": "PUT",
      "url": "MeasureReport/b030d291-be71-4f10-a890-ddfa5e6a66b5"
    }
  } ]
}
