{"resourceType":"Bundle","id":"tests-747b1de3-7e95-46b4-add2-29377e45cc4f-bundle","type":"transaction","entry":[{"fullUrl":"https://madie.cms.gov/Patient/747b1de3-7e95-46b4-add2-29377e45cc4f","resource":{"resourceType":"Patient","id":"747b1de3-7e95-46b4-add2-29377e45cc4f","meta":{"profile":["http://hl7.org/fhir/us/qicore/StructureDefinition/qicore-patient"]},"extension":[{"url":"http://hl7.org/fhir/us/core/StructureDefinition/us-core-race","extension":[{"url":"ombCategory","valueCoding":{"system":"urn:oid:2.16.840.1.113883.6.238","code":"2076-8","display":"Native Hawaiian or Other Pacific Islander","userSelected":true}},{"url":"text","valueString":"Native Hawaiian or Other Pacific Islander"}]},{"url":"http://hl7.org/fhir/us/core/StructureDefinition/us-core-ethnicity","extension":[{"url":"ombCategory","valueCoding":{"system":"urn:oid:2.16.840.1.113883.6.238","code":"2186-5","display":"Not Hispanic or Latino","userSelected":true}},{"url":"text","valueString":"Not Hispanic or Latino"}]}],"identifier":[{"type":{"coding":[{"system":"http://terminology.hl7.org/CodeSystem/v2-0203","code":"MR"}]},"system":"https://bonnie-fhir.healthit.gov/","value":"62cc347a67cd2f796b838aaf"}],"name":[{"family":"NUMERPass","given":["FirstHTNWeightFU"]}],"gender":"female","birthDate":"2004-01-31"},"request":{"method":"PUT","url":"Patient/747b1de3-7e95-46b4-add2-29377e45cc4f"}},{"fullUrl":"https://madie.cms.gov/Encounter/encounter-to-screen-for-blood-pressure-d1ae","resource":{"resourceType":"Encounter","id":"28397306-0cdb-4dad-933a-0caff410af1c","meta":{"profile":["http://hl7.org/fhir/us/qicore/StructureDefinition/qicore-encounter"]},"status":"finished","class":{"system":"http://terminology.hl7.org/CodeSystem/v3-ActCode","code":"AMB","display":"ambulatory"},"type":[{"coding":[{"system":"http://snomed.info/sct","version":"2022-03","code":"103705002","display":"Patient status observation (procedure)","userSelected":true}]}],"subject":{"reference":"Patient/747b1de3-7e95-46b4-add2-29377e45cc4f"},"period":{"start":"2025-01-01T08:00:00.000+00:00","end":"2025-01-01T08:30:00.000+00:00"}},"request":{"method":"PUT","url":"Encounter/28397306-0cdb-4dad-933a-0caff410af1c"}},{"fullUrl":"https://madie.cms.gov/Observation/blood-pressure-d1af","resource":{"resourceType":"Observation","id":"0765a6af-b061-4996-9608-033343303b33","meta":{"profile":["http://hl7.org/fhir/StructureDefinition/bp"]},"status":"amended","category":[{"coding":[{"system":"http://terminology.hl7.org/CodeSystem/observation-category","code":"vital-signs","display":"Vital Signs"}],"text":"Vital Signs"}],"code":{"coding":[{"system":"http://loinc.org","code":"85354-9","display":"Blood pressure panel"}]},"subject":{"reference":"Patient/747b1de3-7e95-46b4-add2-29377e45cc4f"},"effectiveDateTime":"2025-01-01T08:01:00.000Z","component":[{"code":{"coding":[{"system":"http://loinc.org","code":"8480-6","display":"Systolic blood pressure"}]},"valueQuantity":{"value":130,"unit":"mmHg","system":"http://unitsofmeasure.org","code":"mm[Hg]"}},{"code":{"coding":[{"system":"http://loinc.org","code":"8462-4","display":"Diastolic blood pressure"}]},"valueQuantity":{"value":80,"unit":"mmHg","system":"http://unitsofmeasure.org","code":"mm[Hg]"}}]},"request":{"method":"PUT","url":"Observation/0765a6af-b061-4996-9608-033343303b33"}},{"fullUrl":"https://madie.cms.gov/ServiceRequest/follow-up-within-4-weeks-8ab0","resource":{"resourceType":"ServiceRequest","id":"25a39580-91ce-40a1-81ee-8fb212774edd","meta":{"profile":["http://hl7.org/fhir/us/qicore/StructureDefinition/qicore-servicerequest"]},"status":"active","intent":"order","code":{"coding":[{"system":"http://snomed.info/sct","version":"2022-03","code":"183617005","display":"Follow-up 1 day (finding)","userSelected":true}]},"subject":{"reference":"Patient/747b1de3-7e95-46b4-add2-29377e45cc4f"},"authoredOn":"2025-01-01T08:29:00.000+00:00"},"request":{"method":"PUT","url":"ServiceRequest/25a39580-91ce-40a1-81ee-8fb212774edd"}},{"fullUrl":"https://madie.cms.gov/ServiceRequest/weight-reduction-recommended-8ab2","resource":{"resourceType":"ServiceRequest","id":"0e23e66a-721d-4fa0-a492-81b4b5636ddd","meta":{"profile":["http://hl7.org/fhir/us/qicore/StructureDefinition/qicore-servicerequest"]},"status":"active","intent":"order","code":{"coding":[{"system":"http://snomed.info/sct","version":"2022-03","code":"1181000175107","display":"Recommendation to lose weight (procedure)","userSelected":true}]},"subject":{"reference":"Patient/747b1de3-7e95-46b4-add2-29377e45cc4f"},"authoredOn":"2025-01-01T08:29:00.000+00:00"},"request":{"method":"PUT","url":"ServiceRequest/0e23e66a-721d-4fa0-a492-81b4b5636ddd"}},{"fullUrl":"https://madie.cms.gov/Coverage/1","resource":{"resourceType":"Coverage","id":"fa53c6a8-aece-4779-836f-f4e54d6beefb","meta":{"profile":["http://hl7.org/fhir/us/qicore/StructureDefinition/qicore-coverage"]},"status":"active","beneficiary":{"reference":"Patient/747b1de3-7e95-46b4-add2-29377e45cc4f"},"payor":[{"reference":"Organization/5ad6ea38-07e9-4482-9e1b-c09eee595be9"}]},"request":{"method":"PUT","url":"Coverage/fa53c6a8-aece-4779-836f-f4e54d6beefb"}},{"fullUrl":"https://madie.cms.gov/Organization/123456","resource":{"resourceType":"Organization","id":"5ad6ea38-07e9-4482-9e1b-c09eee595be9","meta":{"profile":["http://hl7.org/fhir/us/qicore/StructureDefinition/qicore-organization"]},"identifier":[{"use":"temp","system":"urn:oid:2.16.840.1.113883.4.4","value":"21-3259825"}],"active":true,"type":[{"coding":[{"system":"http://terminology.hl7.org/CodeSystem/organization-type","code":"pay","display":"Payer"}]}],"name":"Blue Cross Blue Shield of Texas","telecom":[{"system":"phone","value":"(+1) 972-766-6900"}],"address":[{"use":"billing","type":"postal","line":["P.O. Box 660044"],"city":"Dallas","state":"TX","postalCode":"75266-0044","country":"USA"}]},"request":{"method":"PUT","url":"Organization/5ad6ea38-07e9-4482-9e1b-c09eee595be9"}},{"fullUrl":"https://madie.cms.gov/MeasureReport/46a12c29-e709-4e3b-be13-d51d7ac13c7d","resource":{"resourceType":"MeasureReport","id":"46a12c29-e709-4e3b-be13-d51d7ac13c7d","meta":{"profile":["http://hl7.org/fhir/us/cqfmeasures/StructureDefinition/test-case-cqfm"]},"contained":[{"resourceType":"Parameters","id":"6232fbfb-010c-4750-95f5-b7b76006dfa1-parameters","parameter":[{"name":"subject","valueString":"747b1de3-7e95-46b4-add2-29377e45cc4f"}]}],"extension":[{"url":"http://hl7.org/fhir/us/cqfmeasures/StructureDefinition/cqfm-inputParameters","valueReference":{"reference":"#6232fbfb-010c-4750-95f5-b7b76006dfa1-parameters"}},{"url":"http://hl7.org/fhir/us/cqfmeasures/StructureDefinition/cqfm-testCaseDescription","valueMarkdown":"Enc. 01/01 0800-0830 during MP, First HTN reading, 130/80 at 0801  (amended) with an intervention of follow up appt in 1 day authored at 0829 and recommendation to lose weight at 0829- should meet numerator criteria. "}],"modifierExtension":[{"url":"http://hl7.org/fhir/us/cqfmeasures/StructureDefinition/cqfm-isTestCase","valueBoolean":true}],"status":"complete","type":"individual","measure":"https://madie.cms.gov/Measure/PCSBPScreeningFollowUpFHIR","period":{"start":"2025-01-01","end":"2025-12-31"},"group":[{"population":[{"code":{"coding":[{"system":"http://terminology.hl7.org/CodeSystem/measure-population","code":"initial-population","display":"Initial Population"}]},"count":1},{"code":{"coding":[{"system":"http://terminology.hl7.org/CodeSystem/measure-population","code":"denominator","display":"Denominator"}]},"count":1},{"code":{"coding":[{"system":"http://terminology.hl7.org/CodeSystem/measure-population","code":"denominator-exclusion","display":"Denominator Exclusion"}]},"count":0},{"code":{"coding":[{"system":"http://terminology.hl7.org/CodeSystem/measure-population","code":"numerator","display":"Numerator"}]},"count":1},{"code":{"coding":[{"system":"http://terminology.hl7.org/CodeSystem/measure-population","code":"denominator-exception","display":"Denominator Exception"}]},"count":0}]}]},"request":{"method":"PUT","url":"MeasureReport/46a12c29-e709-4e3b-be13-d51d7ac13c7d"}}]}