{"resourceType":"Bundle","id":"tests-8fe101e0-1bbc-43d4-8c98-fe62f0589027-bundle","type":"transaction","entry":[{"fullUrl":"https://madie.cms.gov/Patient/8fe101e0-1bbc-43d4-8c98-fe62f0589027","resource":{"resourceType":"Patient","id":"8fe101e0-1bbc-43d4-8c98-fe62f0589027","meta":{"profile":["http://hl7.org/fhir/us/qicore/StructureDefinition/qicore-patient"]},"extension":[{"url":"http://hl7.org/fhir/us/core/StructureDefinition/us-core-race","extension":[{"url":"ombCategory","valueCoding":{"system":"urn:oid:2.16.840.1.113883.6.238","code":"2054-5","display":"Black or African American","userSelected":true}},{"url":"text","valueString":"Black or African American"}]},{"url":"http://hl7.org/fhir/us/core/StructureDefinition/us-core-ethnicity","extension":[{"url":"ombCategory","valueCoding":{"system":"urn:oid:2.16.840.1.113883.6.238","code":"2135-2","display":"Hispanic or Latino","userSelected":true}},{"url":"text","valueString":"Hispanic or Latino"}]}],"identifier":[{"type":{"coding":[{"system":"http://terminology.hl7.org/CodeSystem/v2-0203","code":"MR"}]},"system":"https://bonnie-fhir.healthit.gov/","value":"62cc2c0567cd2f796b838aa5"}],"name":[{"family":"NUMERFail","given":["ElevatedBPNoIntervention"]}],"gender":"male","birthDate":"2003-01-31"},"request":{"method":"PUT","url":"Patient/8fe101e0-1bbc-43d4-8c98-fe62f0589027"}},{"fullUrl":"https://madie.cms.gov/Encounter/encounter-to-screen-for-blood-pressure-d1ae","resource":{"resourceType":"Encounter","id":"1d85f563-afd6-4bb7-b28f-84d5ad947dc6","meta":{"profile":["http://hl7.org/fhir/us/qicore/StructureDefinition/qicore-encounter"]},"status":"finished","class":{"system":"http://terminology.hl7.org/CodeSystem/v3-ActCode","code":"AMB","display":"ambulatory"},"type":[{"coding":[{"system":"http://snomed.info/sct","version":"2022-03","code":"103705002","display":"Patient status observation (procedure)","userSelected":true}]}],"subject":{"reference":"Patient/8fe101e0-1bbc-43d4-8c98-fe62f0589027"},"period":{"start":"2025-01-01T08:00:00.000+00:00","end":"2025-01-01T11:30:00.000+00:00"}},"request":{"method":"PUT","url":"Encounter/1d85f563-afd6-4bb7-b28f-84d5ad947dc6"}},{"fullUrl":"https://madie.cms.gov/Observation/systolic-blood-pressure-d1af","resource":{"resourceType":"Observation","id":"16f7d813-2817-49de-bcdf-92d9b90a4bb7","meta":{"profile":["http://hl7.org/fhir/us/qicore/StructureDefinition/qicore-observation"]},"status":"final","category":[{"coding":[{"system":"http://terminology.hl7.org/CodeSystem/observation-category","code":"procedure","display":"Procedure"}]}],"code":{"coding":[{"system":"http://loinc.org","code":"8480-6","display":"Systolic blood pressure","userSelected":true}]},"subject":{"reference":"Patient/8fe101e0-1bbc-43d4-8c98-fe62f0589027"},"effectiveDateTime":"2025-01-01T08:05:00.000+00:00","valueQuantity":{"value":120.0,"unit":"mm[Hg]"}},"request":{"method":"PUT","url":"Observation/16f7d813-2817-49de-bcdf-92d9b90a4bb7"}},{"fullUrl":"https://madie.cms.gov/Observation/diastolic-blood-pressure-d1b0","resource":{"resourceType":"Observation","id":"4ef19e2d-1c9f-4c07-8a44-9704e0bb77b3","meta":{"profile":["http://hl7.org/fhir/us/qicore/StructureDefinition/qicore-observation"]},"status":"final","category":[{"coding":[{"system":"http://terminology.hl7.org/CodeSystem/observation-category","code":"procedure","display":"Procedure"}]}],"code":{"coding":[{"system":"http://loinc.org","code":"8462-4","display":"Diastolic blood pressure","userSelected":true}]},"subject":{"reference":"Patient/8fe101e0-1bbc-43d4-8c98-fe62f0589027"},"effectiveDateTime":"2025-01-01T08:05:00.000+00:00","valueQuantity":{"value":79.0,"unit":"mm[Hg]"}},"request":{"method":"PUT","url":"Observation/4ef19e2d-1c9f-4c07-8a44-9704e0bb77b3"}},{"fullUrl":"https://madie.cms.gov/Coverage/1","resource":{"resourceType":"Coverage","id":"9eb2328d-af82-404c-90ec-38e96641ba8f","meta":{"profile":["http://hl7.org/fhir/us/qicore/StructureDefinition/qicore-coverage"]},"status":"active","beneficiary":{"reference":"Patient/8fe101e0-1bbc-43d4-8c98-fe62f0589027"},"payor":[{"reference":"Organization/f6075515-d38f-4624-bde8-a1ce20473a69"}]},"request":{"method":"PUT","url":"Coverage/9eb2328d-af82-404c-90ec-38e96641ba8f"}},{"fullUrl":"https://madie.cms.gov/Organization/123456","resource":{"resourceType":"Organization","id":"f6075515-d38f-4624-bde8-a1ce20473a69","meta":{"profile":["http://hl7.org/fhir/us/qicore/StructureDefinition/qicore-organization"]},"identifier":[{"use":"temp","system":"urn:oid:2.16.840.1.113883.4.4","value":"21-3259825"}],"active":true,"type":[{"coding":[{"system":"http://terminology.hl7.org/CodeSystem/organization-type","code":"pay","display":"Payer"}]}],"name":"Blue Cross Blue Shield of Texas","telecom":[{"system":"phone","value":"(+1) 972-766-6900"}],"address":[{"use":"billing","type":"postal","line":["P.O. Box 660044"],"city":"Dallas","state":"TX","postalCode":"75266-0044","country":"USA"}]},"request":{"method":"PUT","url":"Organization/f6075515-d38f-4624-bde8-a1ce20473a69"}},{"fullUrl":"https://madie.cms.gov/Practitioner/practitioner-123456","resource":{"resourceType":"Practitioner","id":"a29780df-42bb-4c6b-9312-d0d2f3bde604","meta":{"profile":["http://hl7.org/fhir/us/qicore/StructureDefinition/qicore-practitioner"]},"identifier":[{"system":"http://hl7.org/fhir/sid/us-npi","value":"123456"}],"name":[{"family":"Evil","prefix":["Dr"]}]},"request":{"method":"PUT","url":"Practitioner/a29780df-42bb-4c6b-9312-d0d2f3bde604"}},{"fullUrl":"https://madie.cms.gov/MeasureReport/ae34b868-9d21-476f-889a-502f7c8b2df6","resource":{"resourceType":"MeasureReport","id":"ae34b868-9d21-476f-889a-502f7c8b2df6","meta":{"profile":["http://hl7.org/fhir/us/cqfmeasures/StructureDefinition/test-case-cqfm"]},"contained":[{"resourceType":"Parameters","id":"6d5c9224-b4f2-4c8c-8834-fd4cd165fcee-parameters","parameter":[{"name":"subject","valueString":"8fe101e0-1bbc-43d4-8c98-fe62f0589027"}]}],"extension":[{"url":"http://hl7.org/fhir/us/cqfmeasures/StructureDefinition/cqfm-inputParameters","valueReference":{"reference":"#6d5c9224-b4f2-4c8c-8834-fd4cd165fcee-parameters"}},{"url":"http://hl7.org/fhir/us/cqfmeasures/StructureDefinition/cqfm-testCaseDescription","valueMarkdown":"Age 18 or older with encounter on the first day of the MP, BP reading elevated 120/79, no interventions"}],"modifierExtension":[{"url":"http://hl7.org/fhir/us/cqfmeasures/StructureDefinition/cqfm-isTestCase","valueBoolean":true}],"status":"complete","type":"individual","measure":"https://madie.cms.gov/Measure/PCSBPScreeningFollowUpFHIR","period":{"start":"2025-01-01","end":"2025-12-31"},"group":[{"population":[{"code":{"coding":[{"system":"http://terminology.hl7.org/CodeSystem/measure-population","code":"initial-population","display":"Initial Population"}]},"count":1},{"code":{"coding":[{"system":"http://terminology.hl7.org/CodeSystem/measure-population","code":"denominator","display":"Denominator"}]},"count":1},{"code":{"coding":[{"system":"http://terminology.hl7.org/CodeSystem/measure-population","code":"denominator-exclusion","display":"Denominator Exclusion"}]},"count":0},{"code":{"coding":[{"system":"http://terminology.hl7.org/CodeSystem/measure-population","code":"numerator","display":"Numerator"}]},"count":0},{"code":{"coding":[{"system":"http://terminology.hl7.org/CodeSystem/measure-population","code":"denominator-exception","display":"Denominator Exception"}]},"count":0}]}]},"request":{"method":"PUT","url":"MeasureReport/ae34b868-9d21-476f-889a-502f7c8b2df6"}}]}