{"resourceType":"Bundle","id":"tests-6714818f-8aa6-4673-8c39-fd35e470461c-bundle","type":"transaction","entry":[{"fullUrl":"https://madie.cms.gov/Patient/6714818f-8aa6-4673-8c39-fd35e470461c","resource":{"resourceType":"Patient","id":"6714818f-8aa6-4673-8c39-fd35e470461c","meta":{"profile":["http://hl7.org/fhir/us/qicore/StructureDefinition/qicore-patient"]},"extension":[{"url":"http://hl7.org/fhir/us/core/StructureDefinition/us-core-race","extension":[{"url":"ombCategory","valueCoding":{"system":"urn:oid:2.16.840.1.113883.6.238","code":"2076-8","display":"Native Hawaiian or Other Pacific Islander","userSelected":true}},{"url":"text","valueString":"Native Hawaiian or Other Pacific Islander"}]},{"url":"http://hl7.org/fhir/us/core/StructureDefinition/us-core-ethnicity","extension":[{"url":"ombCategory","valueCoding":{"system":"urn:oid:2.16.840.1.113883.6.238","code":"2186-5","display":"Not Hispanic or Latino","userSelected":true}},{"url":"text","valueString":"Not Hispanic or Latino"}]}],"identifier":[{"type":{"coding":[{"system":"http://terminology.hl7.org/CodeSystem/v2-0203","code":"MR"}]},"system":"https://bonnie-fhir.healthit.gov/","value":"62cc370167cd2f796b838ab4"}],"name":[{"family":"NUMERPassX2","given":["2EncsHTNWeightActivityLab"]}],"gender":"female","birthDate":"2004-01-31"},"request":{"method":"PUT","url":"Patient/6714818f-8aa6-4673-8c39-fd35e470461c"}},{"fullUrl":"https://madie.cms.gov/Encounter/encounter-to-screen-for-blood-pressure-d1ae","resource":{"resourceType":"Encounter","id":"ab7a15cb-ec36-45ef-9e9e-43d80e5a7ecd","meta":{"profile":["http://hl7.org/fhir/us/qicore/StructureDefinition/qicore-encounter"]},"status":"finished","class":{"system":"http://terminology.hl7.org/CodeSystem/v3-ActCode","code":"AMB","display":"ambulatory"},"type":[{"coding":[{"system":"http://snomed.info/sct","version":"2022-03","code":"103705002","display":"Patient status observation (procedure)","userSelected":true}]}],"subject":{"reference":"Patient/6714818f-8aa6-4673-8c39-fd35e470461c"},"period":{"start":"2025-01-01T08:00:00.000+00:00","end":"2025-01-01T08:30:00.000+00:00"}},"request":{"method":"PUT","url":"Encounter/ab7a15cb-ec36-45ef-9e9e-43d80e5a7ecd"}},{"fullUrl":"https://madie.cms.gov/Observation/blood-pressure-1","resource":{"resourceType":"Observation","id":"4b3b32ff-7a8b-4474-85c0-090dda2d2d8a","meta":{"profile":["http://hl7.org/fhir/StructureDefinition/bp"]},"status":"final","category":[{"coding":[{"system":"http://terminology.hl7.org/CodeSystem/observation-category","code":"vital-signs","display":"Vital Signs"}],"text":"Vital Signs"}],"code":{"coding":[{"system":"http://loinc.org","code":"85354-9","display":"Blood pressure panel"}]},"subject":{"reference":"Patient/6714818f-8aa6-4673-8c39-fd35e470461c"},"effectiveDateTime":"2025-01-01T08:05:00.000Z","component":[{"code":{"coding":[{"system":"http://loinc.org","code":"8480-6","display":"Systolic blood pressure"}]},"valueQuantity":{"value":130,"unit":"mmHg","system":"http://unitsofmeasure.org","code":"mm[Hg]"}},{"code":{"coding":[{"system":"http://loinc.org","code":"8462-4","display":"Diastolic blood pressure"}]},"valueQuantity":{"value":80,"unit":"mmHg","system":"http://unitsofmeasure.org","code":"mm[Hg]"}}]},"request":{"method":"PUT","url":"Observation/4b3b32ff-7a8b-4474-85c0-090dda2d2d8a"}},{"fullUrl":"https://madie.cms.gov/ServiceRequest/follow-up-within-4-weeks-8ab0","resource":{"resourceType":"ServiceRequest","id":"11ee3fd9-28e5-4933-b5bc-dfe911223d1f","meta":{"profile":["http://hl7.org/fhir/us/qicore/StructureDefinition/qicore-servicerequest"]},"status":"active","intent":"order","code":{"coding":[{"system":"http://snomed.info/sct","version":"2022-03","code":"183617005","display":"Follow-up 1 day (finding)","userSelected":true}]},"subject":{"reference":"Patient/6714818f-8aa6-4673-8c39-fd35e470461c"},"authoredOn":"2025-01-01T08:25:00.000+00:00"},"request":{"method":"PUT","url":"ServiceRequest/11ee3fd9-28e5-4933-b5bc-dfe911223d1f"}},{"fullUrl":"https://madie.cms.gov/ServiceRequest/weight-reduction-recommended-8ab2","resource":{"resourceType":"ServiceRequest","id":"14971d86-06d2-4fa8-89b1-c606ffcce102","meta":{"profile":["http://hl7.org/fhir/us/qicore/StructureDefinition/qicore-servicerequest"]},"status":"active","intent":"order","code":{"coding":[{"system":"http://snomed.info/sct","version":"2022-03","code":"1181000175107","display":"Recommendation to lose weight (procedure)","userSelected":true}]},"subject":{"reference":"Patient/6714818f-8aa6-4673-8c39-fd35e470461c"},"authoredOn":"2025-01-01T08:25:00.000+00:00"},"request":{"method":"PUT","url":"ServiceRequest/14971d86-06d2-4fa8-89b1-c606ffcce102"}},{"fullUrl":"https://madie.cms.gov/Encounter/encounter-to-screen-for-blood-pressure-8ab5","resource":{"resourceType":"Encounter","id":"67ea10f8-a966-4af7-8af5-f4ee34b93c7a","meta":{"profile":["http://hl7.org/fhir/us/qicore/StructureDefinition/qicore-encounter"]},"status":"finished","class":{"system":"http://terminology.hl7.org/CodeSystem/v3-ActCode","code":"AMB","display":"ambulatory"},"type":[{"coding":[{"system":"http://snomed.info/sct","version":"2022-03","code":"103705002","display":"Patient status observation (procedure)","userSelected":true}]}],"subject":{"reference":"Patient/6714818f-8aa6-4673-8c39-fd35e470461c"},"period":{"start":"2025-12-31T09:00:00.000+00:00","end":"2025-12-31T09:30:00.000+00:00"}},"request":{"method":"PUT","url":"Encounter/67ea10f8-a966-4af7-8af5-f4ee34b93c7a"}},{"fullUrl":"https://madie.cms.gov/Observation/blood-pressure-2","resource":{"resourceType":"Observation","id":"a0221ffd-b9b2-4d7f-87eb-f02f08de9cdc","meta":{"profile":["http://hl7.org/fhir/StructureDefinition/bp"]},"status":"final","category":[{"coding":[{"system":"http://terminology.hl7.org/CodeSystem/observation-category","code":"vital-signs","display":"Vital Signs"}],"text":"Vital Signs"}],"code":{"coding":[{"system":"http://loinc.org","code":"85354-9","display":"Blood pressure panel"}]},"subject":{"reference":"Patient/6714818f-8aa6-4673-8c39-fd35e470461c"},"effectiveDateTime":"2025-12-31T09:05:00.000Z","component":[{"code":{"coding":[{"system":"http://loinc.org","code":"8480-6","display":"Systolic blood pressure"}]},"valueQuantity":{"value":130,"unit":"mmHg","system":"http://unitsofmeasure.org","code":"mm[Hg]"}},{"code":{"coding":[{"system":"http://loinc.org","code":"8462-4","display":"Diastolic blood pressure"}]},"valueQuantity":{"value":80,"unit":"mmHg","system":"http://unitsofmeasure.org","code":"mm[Hg]"}}]},"request":{"method":"PUT","url":"Observation/a0221ffd-b9b2-4d7f-87eb-f02f08de9cdc"}},{"fullUrl":"https://madie.cms.gov/ServiceRequest/follow-up-2-3-months-finding-b49a","resource":{"resourceType":"ServiceRequest","id":"b686ff4e-aca1-4e52-a3d6-78e8cb9a9996","meta":{"profile":["http://hl7.org/fhir/us/qicore/StructureDefinition/qicore-servicerequest"]},"status":"active","intent":"order","code":{"coding":[{"system":"http://snomed.info/sct","code":"183624006","display":"Follow-up 2-3 months (finding)","userSelected":true}]},"subject":{"reference":"Patient/6714818f-8aa6-4673-8c39-fd35e470461c"},"authoredOn":"2025-12-31T09:25:00.000+00:00"},"request":{"method":"PUT","url":"ServiceRequest/b686ff4e-aca1-4e52-a3d6-78e8cb9a9996"}},{"fullUrl":"https://madie.cms.gov/ServiceRequest/recommendation-to-increase-physical-activity-b49c","resource":{"resourceType":"ServiceRequest","id":"5de7b30d-235e-43ad-8d34-cf3bc314ace0","meta":{"profile":["http://hl7.org/fhir/us/qicore/StructureDefinition/qicore-servicerequest"]},"status":"active","intent":"order","code":{"coding":[{"system":"http://snomed.info/sct","version":"2022-03","code":"281090004","display":"Recommendation to exercise (procedure)","userSelected":true}]},"subject":{"reference":"Patient/6714818f-8aa6-4673-8c39-fd35e470461c"},"authoredOn":"2025-12-31T09:25:00.000+00:00"},"request":{"method":"PUT","url":"ServiceRequest/5de7b30d-235e-43ad-8d34-cf3bc314ace0"}},{"fullUrl":"https://madie.cms.gov/ServiceRequest/laboratory-tests-for-hypertension-b49d","resource":{"resourceType":"ServiceRequest","id":"49ba4b10-c88a-4f1c-a1bf-ee6dcb8db7f0","meta":{"profile":["http://hl7.org/fhir/us/qicore/StructureDefinition/qicore-servicerequest"]},"status":"active","intent":"order","code":{"coding":[{"system":"http://loinc.org","version":"2.72","code":"24320-4","display":"Basic metabolic 1998 panel - Serum or Plasma","userSelected":true}]},"subject":{"reference":"Patient/6714818f-8aa6-4673-8c39-fd35e470461c"},"authoredOn":"2025-12-31T09:25:00.000+00:00"},"request":{"method":"PUT","url":"ServiceRequest/49ba4b10-c88a-4f1c-a1bf-ee6dcb8db7f0"}},{"fullUrl":"https://madie.cms.gov/Coverage/1","resource":{"resourceType":"Coverage","id":"571178da-5877-4caf-ac21-c716d701db0b","meta":{"profile":["http://hl7.org/fhir/us/qicore/StructureDefinition/qicore-coverage"]},"status":"active","beneficiary":{"reference":"Patient/6714818f-8aa6-4673-8c39-fd35e470461c"},"payor":[{"reference":"Organization/80573fa1-cf83-4e9a-8f21-86a018689678"}]},"request":{"method":"PUT","url":"Coverage/571178da-5877-4caf-ac21-c716d701db0b"}},{"fullUrl":"https://madie.cms.gov/Organization/123456","resource":{"resourceType":"Organization","id":"80573fa1-cf83-4e9a-8f21-86a018689678","meta":{"profile":["http://hl7.org/fhir/us/qicore/StructureDefinition/qicore-organization"]},"identifier":[{"use":"temp","system":"urn:oid:2.16.840.1.113883.4.4","value":"21-3259825"}],"active":true,"type":[{"coding":[{"system":"http://terminology.hl7.org/CodeSystem/organization-type","code":"pay","display":"Payer"}]}],"name":"Blue Cross Blue Shield of Texas","telecom":[{"system":"phone","value":"(+1) 972-766-6900"}],"address":[{"use":"billing","type":"postal","line":["P.O. Box 660044"],"city":"Dallas","state":"TX","postalCode":"75266-0044","country":"USA"}]},"request":{"method":"PUT","url":"Organization/80573fa1-cf83-4e9a-8f21-86a018689678"}},{"fullUrl":"https://madie.cms.gov/MeasureReport/04137b92-ced1-48b3-8b67-01f74b1019a2","resource":{"resourceType":"MeasureReport","id":"04137b92-ced1-48b3-8b67-01f74b1019a2","meta":{"profile":["http://hl7.org/fhir/us/cqfmeasures/StructureDefinition/test-case-cqfm"]},"contained":[{"resourceType":"Parameters","id":"c2ae8313-db8e-4a9c-b3c2-8128827bae2e-parameters","parameter":[{"name":"subject","valueString":"6714818f-8aa6-4673-8c39-fd35e470461c"}]}],"extension":[{"url":"http://hl7.org/fhir/us/cqfmeasures/StructureDefinition/cqfm-inputParameters","valueReference":{"reference":"#c2ae8313-db8e-4a9c-b3c2-8128827bae2e-parameters"}},{"url":"http://hl7.org/fhir/us/cqfmeasures/StructureDefinition/cqfm-testCaseDescription","valueMarkdown":"Age 18+, 1st enc. 01/01 0800- 0830 during MP, bp 130/80, f/u 4 wks, wt reduction recommend.\n\n2nd enc. 12/31  0900 - 0930 during MP,  BP 130/80 ref/u 2-3 wks, recommend exercise. ordered BMP, "}],"modifierExtension":[{"url":"http://hl7.org/fhir/us/cqfmeasures/StructureDefinition/cqfm-isTestCase","valueBoolean":true}],"status":"complete","type":"individual","measure":"https://madie.cms.gov/Measure/PCSBPScreeningFollowUpFHIR","period":{"start":"2025-01-01","end":"2025-12-31"},"group":[{"population":[{"code":{"coding":[{"system":"http://terminology.hl7.org/CodeSystem/measure-population","code":"initial-population","display":"Initial Population"}]},"count":2},{"code":{"coding":[{"system":"http://terminology.hl7.org/CodeSystem/measure-population","code":"denominator","display":"Denominator"}]},"count":2},{"code":{"coding":[{"system":"http://terminology.hl7.org/CodeSystem/measure-population","code":"denominator-exclusion","display":"Denominator Exclusion"}]},"count":0},{"code":{"coding":[{"system":"http://terminology.hl7.org/CodeSystem/measure-population","code":"numerator","display":"Numerator"}]},"count":2},{"code":{"coding":[{"system":"http://terminology.hl7.org/CodeSystem/measure-population","code":"denominator-exception","display":"Denominator Exception"}]},"count":0}]}]},"request":{"method":"PUT","url":"MeasureReport/04137b92-ced1-48b3-8b67-01f74b1019a2"}}]}