{"resourceType":"Bundle","id":"tests-4fa862e7-beac-4a7d-b053-f54afb689dc9-bundle","type":"transaction","entry":[{"fullUrl":"https://madie.cms.gov/Patient/4fa862e7-beac-4a7d-b053-f54afb689dc9","resource":{"resourceType":"Patient","id":"4fa862e7-beac-4a7d-b053-f54afb689dc9","meta":{"profile":["http://hl7.org/fhir/us/qicore/StructureDefinition/qicore-patient"]},"extension":[{"url":"http://hl7.org/fhir/us/core/StructureDefinition/us-core-race","extension":[{"url":"ombCategory","valueCoding":{"system":"urn:oid:2.16.840.1.113883.6.238","code":"1002-5","display":"American Indian or Alaska Native","userSelected":true}},{"url":"text","valueString":"American Indian or Alaska Native"}]},{"url":"http://hl7.org/fhir/us/core/StructureDefinition/us-core-ethnicity","extension":[{"url":"ombCategory","valueCoding":{"system":"urn:oid:2.16.840.1.113883.6.238","code":"2135-2","display":"Hispanic or Latino","userSelected":true}},{"url":"text","valueString":"Hispanic or Latino"}]}],"identifier":[{"type":{"coding":[{"system":"http://terminology.hl7.org/CodeSystem/v2-0203","code":"MR"}]},"system":"https://bonnie-fhir.healthit.gov/","value":"62cdd64162b2323a168e975e"}],"name":[{"family":"NUMERFail","given":["SystolicNoDiastolic"]}],"gender":"male","birthDate":"1974-12-31"},"request":{"method":"PUT","url":"Patient/4fa862e7-beac-4a7d-b053-f54afb689dc9"}},{"fullUrl":"https://madie.cms.gov/Encounter/encounter-to-screen-for-blood-pressure-975f","resource":{"resourceType":"Encounter","id":"a9b4a476-5b3e-46bc-8507-e7b1b77c1be7","meta":{"profile":["http://hl7.org/fhir/us/qicore/StructureDefinition/qicore-encounter"]},"status":"finished","class":{"system":"http://terminology.hl7.org/CodeSystem/v3-ActCode","code":"AMB","display":"ambulatory"},"type":[{"coding":[{"system":"http://snomed.info/sct","version":"2022-03","code":"103705002","display":"Patient status observation (procedure)","userSelected":true}]}],"subject":{"reference":"Patient/4fa862e7-beac-4a7d-b053-f54afb689dc9"},"period":{"start":"2025-12-31T08:00:00.000+00:00","end":"2025-12-31T08:45:00.000+00:00"}},"request":{"method":"PUT","url":"Encounter/a9b4a476-5b3e-46bc-8507-e7b1b77c1be7"}},{"fullUrl":"https://madie.cms.gov/Observation/systolic-blood-pressure-9760","resource":{"resourceType":"Observation","id":"9d4d64b1-919f-4730-ad0e-5ce1e7c752e0","meta":{"profile":["http://hl7.org/fhir/us/qicore/StructureDefinition/qicore-observation"]},"status":"final","category":[{"coding":[{"system":"http://terminology.hl7.org/CodeSystem/observation-category","code":"procedure","display":"Procedure"}]}],"code":{"coding":[{"system":"http://loinc.org","code":"8480-6","display":"Systolic blood pressure","userSelected":true}]},"subject":{"reference":"Patient/4fa862e7-beac-4a7d-b053-f54afb689dc9"},"effectiveDateTime":"2025-12-31T08:05:00.000+00:00","valueQuantity":{"value":160.0,"unit":"mm[Hg]"}},"request":{"method":"PUT","url":"Observation/9d4d64b1-919f-4730-ad0e-5ce1e7c752e0"}},{"fullUrl":"https://madie.cms.gov/ServiceRequest/follow-up-within-4-weeks-9762","resource":{"resourceType":"ServiceRequest","id":"fdd827f8-1b7f-4a9a-9fbe-e52529f581bd","meta":{"profile":["http://hl7.org/fhir/us/qicore/StructureDefinition/qicore-servicerequest"]},"status":"active","intent":"order","code":{"coding":[{"system":"http://snomed.info/sct","version":"2022-03","code":"183617005","display":"Follow-up 1 day (finding)","userSelected":true}]},"subject":{"reference":"Patient/4fa862e7-beac-4a7d-b053-f54afb689dc9"},"authoredOn":"2025-12-31T08:30:00.000+00:00"},"request":{"method":"PUT","url":"ServiceRequest/fdd827f8-1b7f-4a9a-9fbe-e52529f581bd"}},{"fullUrl":"https://madie.cms.gov/ServiceRequest/dietary-recommendations-9763","resource":{"resourceType":"ServiceRequest","id":"fe23ece6-6c96-4db4-8fde-cae01e1ee283","meta":{"profile":["http://hl7.org/fhir/us/qicore/StructureDefinition/qicore-servicerequest"]},"status":"active","intent":"order","code":{"coding":[{"system":"http://snomed.info/sct","version":"2022-03","code":"103699006","display":"Patient referral to dietitian (procedure)","userSelected":true}]},"subject":{"reference":"Patient/4fa862e7-beac-4a7d-b053-f54afb689dc9"},"authoredOn":"2025-12-31T08:30:00.000+00:00"},"request":{"method":"PUT","url":"ServiceRequest/fe23ece6-6c96-4db4-8fde-cae01e1ee283"}},{"fullUrl":"https://madie.cms.gov/Coverage/1","resource":{"resourceType":"Coverage","id":"3d83cf41-cb59-4012-b119-fab2d6093f80","meta":{"profile":["http://hl7.org/fhir/us/qicore/StructureDefinition/qicore-coverage"]},"status":"active","beneficiary":{"reference":"Patient/4fa862e7-beac-4a7d-b053-f54afb689dc9"},"payor":[{"reference":"Organization/4da248b0-6e59-49b7-b80e-338aa21d299f"}]},"request":{"method":"PUT","url":"Coverage/3d83cf41-cb59-4012-b119-fab2d6093f80"}},{"fullUrl":"https://madie.cms.gov/Organization/123456","resource":{"resourceType":"Organization","id":"4da248b0-6e59-49b7-b80e-338aa21d299f","meta":{"profile":["http://hl7.org/fhir/us/qicore/StructureDefinition/qicore-organization"]},"identifier":[{"use":"temp","system":"urn:oid:2.16.840.1.113883.4.4","value":"21-3259825"}],"active":true,"type":[{"coding":[{"system":"http://terminology.hl7.org/CodeSystem/organization-type","code":"pay","display":"Payer"}]}],"name":"Blue Cross Blue Shield of Texas","telecom":[{"system":"phone","value":"(+1) 972-766-6900"}],"address":[{"use":"billing","type":"postal","line":["P.O. Box 660044"],"city":"Dallas","state":"TX","postalCode":"75266-0044","country":"USA"}]},"request":{"method":"PUT","url":"Organization/4da248b0-6e59-49b7-b80e-338aa21d299f"}},{"fullUrl":"https://madie.cms.gov/Practitioner/practitioner-123456","resource":{"resourceType":"Practitioner","id":"347da538-379d-41a3-b72d-cbae9fc21c4a","meta":{"profile":["http://hl7.org/fhir/us/qicore/StructureDefinition/qicore-practitioner"]},"identifier":[{"system":"http://hl7.org/fhir/sid/us-npi","value":"123456"}],"name":[{"family":"Evil","prefix":["Dr"]}]},"request":{"method":"PUT","url":"Practitioner/347da538-379d-41a3-b72d-cbae9fc21c4a"}},{"fullUrl":"https://madie.cms.gov/MeasureReport/0c4081e6-e951-4b76-ac88-033a6716dde6","resource":{"resourceType":"MeasureReport","id":"0c4081e6-e951-4b76-ac88-033a6716dde6","meta":{"profile":["http://hl7.org/fhir/us/cqfmeasures/StructureDefinition/test-case-cqfm"]},"contained":[{"resourceType":"Parameters","id":"453f95d1-8f9e-4d01-9c69-265ddd88c4bb-parameters","parameter":[{"name":"subject","valueString":"4fa862e7-beac-4a7d-b053-f54afb689dc9"}]}],"extension":[{"url":"http://hl7.org/fhir/us/cqfmeasures/StructureDefinition/cqfm-inputParameters","valueReference":{"reference":"#453f95d1-8f9e-4d01-9c69-265ddd88c4bb-parameters"}},{"url":"http://hl7.org/fhir/us/cqfmeasures/StructureDefinition/cqfm-testCaseDescription","valueMarkdown":"Encounter last day of MP with systolic reading 160, no diastolic, follow up scheduled and dietary  recommendations made- expect to fail as both sys/dia are meant to be required. "}],"modifierExtension":[{"url":"http://hl7.org/fhir/us/cqfmeasures/StructureDefinition/cqfm-isTestCase","valueBoolean":true}],"status":"complete","type":"individual","measure":"https://madie.cms.gov/Measure/PCSBPScreeningFollowUpFHIR","period":{"start":"2025-01-01","end":"2025-12-31"},"group":[{"population":[{"code":{"coding":[{"system":"http://terminology.hl7.org/CodeSystem/measure-population","code":"initial-population","display":"Initial Population"}]},"count":1},{"code":{"coding":[{"system":"http://terminology.hl7.org/CodeSystem/measure-population","code":"denominator","display":"Denominator"}]},"count":1},{"code":{"coding":[{"system":"http://terminology.hl7.org/CodeSystem/measure-population","code":"denominator-exclusion","display":"Denominator Exclusion"}]},"count":0},{"code":{"coding":[{"system":"http://terminology.hl7.org/CodeSystem/measure-population","code":"numerator","display":"Numerator"}]},"count":0},{"code":{"coding":[{"system":"http://terminology.hl7.org/CodeSystem/measure-population","code":"denominator-exception","display":"Denominator Exception"}]},"count":0}]}]},"request":{"method":"PUT","url":"MeasureReport/0c4081e6-e951-4b76-ac88-033a6716dde6"}}]}