{"resourceType":"Bundle","id":"tests-8d4b7579-94f8-411c-a44b-89f403d4cabd-bundle","type":"transaction","entry":[{"fullUrl":"https://madie.cms.gov/Patient/8d4b7579-94f8-411c-a44b-89f403d4cabd","resource":{"resourceType":"Patient","id":"8d4b7579-94f8-411c-a44b-89f403d4cabd","meta":{"profile":["http://hl7.org/fhir/us/qicore/StructureDefinition/qicore-patient"]},"extension":[{"url":"http://hl7.org/fhir/us/core/StructureDefinition/us-core-race","extension":[{"url":"ombCategory","valueCoding":{"system":"urn:oid:2.16.840.1.113883.6.238","code":"1002-5","display":"American Indian or Alaska Native","userSelected":true}},{"url":"text","valueString":"American Indian or Alaska Native"}]},{"url":"http://hl7.org/fhir/us/core/StructureDefinition/us-core-ethnicity","extension":[{"url":"ombCategory","valueCoding":{"system":"urn:oid:2.16.840.1.113883.6.238","code":"2135-2","display":"Hispanic or Latino","userSelected":true}},{"url":"text","valueString":"Hispanic or Latino"}]}],"identifier":[{"type":{"coding":[{"system":"http://terminology.hl7.org/CodeSystem/v2-0203","code":"MR"}]},"system":"https://bonnie-fhir.healthit.gov/","value":"SecondHighBPECGMedsNonPharm"}],"name":[{"family":"NUMERPass","given":["SecondHighBPECGMedsNonPharm"]}],"gender":"male","birthDate":"1974-12-31"},"request":{"method":"PUT","url":"Patient/8d4b7579-94f8-411c-a44b-89f403d4cabd"}},{"fullUrl":"https://madie.cms.gov/Encounter/encounter-to-screen-for-blood-pressure-975f","resource":{"resourceType":"Encounter","id":"2d7d61e2-c74d-41ae-b6cd-f9b66311ee61","meta":{"profile":["http://hl7.org/fhir/us/qicore/StructureDefinition/qicore-encounter"]},"status":"finished","class":{"system":"http://terminology.hl7.org/CodeSystem/v3-ActCode","code":"AMB","display":"ambulatory"},"type":[{"coding":[{"system":"http://snomed.info/sct","version":"2022-03","code":"103705002","display":"Patient status observation (procedure)","userSelected":true}]}],"subject":{"reference":"Patient/8d4b7579-94f8-411c-a44b-89f403d4cabd"},"period":{"start":"2025-01-01T08:00:00.000+00:00","end":"2025-01-01T08:45:00.000+00:00"}},"request":{"method":"PUT","url":"Encounter/2d7d61e2-c74d-41ae-b6cd-f9b66311ee61"}},{"fullUrl":"https://madie.cms.gov/ServiceRequest/follow-up-within-4-weeks-9762","resource":{"resourceType":"ServiceRequest","id":"2d17b8ac-8143-47d0-8699-57a71dbb9c20","meta":{"profile":["http://hl7.org/fhir/us/qicore/StructureDefinition/qicore-servicerequest"]},"status":"active","intent":"order","code":{"coding":[{"system":"http://snomed.info/sct","version":"2022-03","code":"183617005","display":"Follow-up 1 day (finding)","userSelected":true}]},"subject":{"reference":"Patient/8d4b7579-94f8-411c-a44b-89f403d4cabd"},"authoredOn":"2025-01-01T08:30:00.000+00:00"},"request":{"method":"PUT","url":"ServiceRequest/2d17b8ac-8143-47d0-8699-57a71dbb9c20"}},{"fullUrl":"https://madie.cms.gov/Encounter/encounter-to-screen-for-blood-pressure-69d7","resource":{"resourceType":"Encounter","id":"0888d576-3baa-4757-9bc9-1953bb2714ba","meta":{"profile":["http://hl7.org/fhir/us/qicore/StructureDefinition/qicore-encounter"]},"status":"finished","class":{"system":"http://terminology.hl7.org/CodeSystem/v3-ActCode","code":"AMB","display":"ambulatory"},"type":[{"coding":[{"system":"http://snomed.info/sct","version":"2022-03","code":"103705002","display":"Patient status observation (procedure)","userSelected":true}]}],"subject":{"reference":"Patient/8d4b7579-94f8-411c-a44b-89f403d4cabd"},"period":{"start":"2025-12-31T10:00:00.000+00:00","end":"2025-12-31T10:45:00.000+00:00"}},"request":{"method":"PUT","url":"Encounter/0888d576-3baa-4757-9bc9-1953bb2714ba"}},{"fullUrl":"https://madie.cms.gov/ServiceRequest/follow-up-within-4-weeks-69da","resource":{"resourceType":"ServiceRequest","id":"4bb96c3a-8d4d-4261-97ca-c1882a104eef","meta":{"profile":["http://hl7.org/fhir/us/qicore/StructureDefinition/qicore-servicerequest"]},"status":"active","intent":"order","code":{"coding":[{"system":"http://snomed.info/sct","version":"2022-03","code":"183620002","display":"Follow-up 1 week (finding)","userSelected":true}]},"subject":{"reference":"Patient/8d4b7579-94f8-411c-a44b-89f403d4cabd"},"authoredOn":"2025-12-31T10:10:00.000+00:00"},"request":{"method":"PUT","url":"ServiceRequest/4bb96c3a-8d4d-4261-97ca-c1882a104eef"}},{"fullUrl":"https://madie.cms.gov/ServiceRequest/referral-or-counseling-for-alcohol-consumption-69db","resource":{"resourceType":"ServiceRequest","id":"078137fa-e63a-47f8-b615-51285dc7541b","meta":{"profile":["http://hl7.org/fhir/us/qicore/StructureDefinition/qicore-servicerequest"]},"status":"active","intent":"order","code":{"coding":[{"system":"http://snomed.info/sct","version":"2022-03","code":"20093000","display":"Alcohol rehabilitation and detoxification (regime/therapy)","userSelected":true}]},"subject":{"reference":"Patient/8d4b7579-94f8-411c-a44b-89f403d4cabd"},"authoredOn":"2025-01-01T08:30:00.000+00:00"},"request":{"method":"PUT","url":"ServiceRequest/078137fa-e63a-47f8-b615-51285dc7541b"}},{"fullUrl":"https://madie.cms.gov/ServiceRequest/ekg-12-channel-panel-69dc","resource":{"resourceType":"ServiceRequest","id":"b11b8cdd-0584-49ee-b81f-9123fd81222b","meta":{"profile":["http://hl7.org/fhir/us/qicore/StructureDefinition/qicore-servicerequest"]},"status":"active","intent":"order","code":{"coding":[{"system":"http://loinc.org","code":"11524-6","display":"EKG study","userSelected":true}]},"subject":{"reference":"Patient/8d4b7579-94f8-411c-a44b-89f403d4cabd"},"authoredOn":"2025-12-31T10:10:00.000+00:00"},"request":{"method":"PUT","url":"ServiceRequest/b11b8cdd-0584-49ee-b81f-9123fd81222b"}},{"fullUrl":"https://madie.cms.gov/ServiceRequest/lifestyle-recommendation-69dd","resource":{"resourceType":"ServiceRequest","id":"d8fe2ab3-c3b2-484a-907d-59d635eaafd9","meta":{"profile":["http://hl7.org/fhir/us/qicore/StructureDefinition/qicore-servicerequest"]},"status":"active","intent":"order","code":{"coding":[{"system":"http://snomed.info/sct","version":"2022-03","code":"313204009","display":"Lifestyle education (procedure)","userSelected":true}]},"subject":{"reference":"Patient/8d4b7579-94f8-411c-a44b-89f403d4cabd"},"authoredOn":"2025-12-31T10:10:00.000+00:00"},"request":{"method":"PUT","url":"ServiceRequest/d8fe2ab3-c3b2-484a-907d-59d635eaafd9"}},{"fullUrl":"https://madie.cms.gov/MedicationRequest/pharmacologic-therapy-for-hypertension-69de","resource":{"resourceType":"MedicationRequest","id":"7ece3b02-1455-4405-9ad3-203be63ce090","meta":{"profile":["http://hl7.org/fhir/us/qicore/StructureDefinition/qicore-medicationrequest"]},"status":"active","intent":"order","medicationCodeableConcept":{"coding":[{"system":"http://www.nlm.nih.gov/research/umls/rxnorm","code":"1000001","display":"amlodipine 5 MG / hydrochlorothiazide 25 MG / olmesartan medoxomil 40 MG Oral Tablet","userSelected":true}]},"subject":{"reference":"Patient/8d4b7579-94f8-411c-a44b-89f403d4cabd"},"authoredOn":"2025-12-31T10:10:00.000+00:00","requester":{"reference":"Practitioner/f007","display":"Patrick Pump"}},"request":{"method":"PUT","url":"MedicationRequest/7ece3b02-1455-4405-9ad3-203be63ce090"}},{"fullUrl":"https://madie.cms.gov/Observation/blood-pressure-1","resource":{"resourceType":"Observation","id":"43c97879-3e1e-4373-b80f-4a0dcd6bb22f","meta":{"profile":["http://hl7.org/fhir/StructureDefinition/bp"]},"status":"final","category":[{"coding":[{"system":"http://terminology.hl7.org/CodeSystem/observation-category","code":"vital-signs","display":"Vital Signs"}],"text":"Vital Signs"}],"code":{"coding":[{"system":"http://loinc.org","code":"85354-9","display":"Blood pressure panel"}]},"subject":{"reference":"Patient/8d4b7579-94f8-411c-a44b-89f403d4cabd"},"effectiveDateTime":"2025-01-01T08:05:00.000Z","component":[{"code":{"coding":[{"system":"http://loinc.org","code":"8480-6","display":"Systolic blood pressure"}]},"valueQuantity":{"value":140,"unit":"mmHg","system":"http://unitsofmeasure.org","code":"mm[Hg]"}},{"code":{"coding":[{"system":"http://loinc.org","code":"8462-4","display":"Diastolic blood pressure"}]},"valueQuantity":{"value":90,"unit":"mmHg","system":"http://unitsofmeasure.org","code":"mm[Hg]"}}]},"request":{"method":"PUT","url":"Observation/43c97879-3e1e-4373-b80f-4a0dcd6bb22f"}},{"fullUrl":"https://madie.cms.gov/Observation/blood-pressure-2","resource":{"resourceType":"Observation","id":"cedd7ada-f4c1-451e-88f0-4ea05adb1a92","meta":{"profile":["http://hl7.org/fhir/StructureDefinition/bp"]},"status":"final","category":[{"coding":[{"system":"http://terminology.hl7.org/CodeSystem/observation-category","code":"vital-signs","display":"Vital Signs"}],"text":"Vital Signs"}],"code":{"coding":[{"system":"http://loinc.org","code":"85354-9","display":"Blood pressure panel"}]},"subject":{"reference":"Patient/8d4b7579-94f8-411c-a44b-89f403d4cabd"},"effectiveDateTime":"2025-12-31T10:05:00.000Z","component":[{"code":{"coding":[{"system":"http://loinc.org","code":"8480-6","display":"Systolic blood pressure"}]},"valueQuantity":{"value":160,"unit":"mmHg","system":"http://unitsofmeasure.org","code":"mm[Hg]"}},{"code":{"coding":[{"system":"http://loinc.org","code":"8462-4","display":"Diastolic blood pressure"}]},"valueQuantity":{"value":90,"unit":"mmHg","system":"http://unitsofmeasure.org","code":"mm[Hg]"}}]},"request":{"method":"PUT","url":"Observation/cedd7ada-f4c1-451e-88f0-4ea05adb1a92"}},{"fullUrl":"https://madie.cms.gov/Coverage/1","resource":{"resourceType":"Coverage","id":"8b0ec16b-0a23-49cb-a63b-895ed4296edb","meta":{"profile":["http://hl7.org/fhir/us/qicore/StructureDefinition/qicore-coverage"]},"status":"active","beneficiary":{"reference":"Patient/8d4b7579-94f8-411c-a44b-89f403d4cabd"},"payor":[{"reference":"Organization/84b56847-ad40-4bf6-b612-9e42ad2a84e5"}]},"request":{"method":"PUT","url":"Coverage/8b0ec16b-0a23-49cb-a63b-895ed4296edb"}},{"fullUrl":"https://madie.cms.gov/Organization/123456","resource":{"resourceType":"Organization","id":"84b56847-ad40-4bf6-b612-9e42ad2a84e5","meta":{"profile":["http://hl7.org/fhir/us/qicore/StructureDefinition/qicore-organization"]},"identifier":[{"use":"temp","system":"urn:oid:2.16.840.1.113883.4.4","value":"21-3259825"}],"active":true,"type":[{"coding":[{"system":"http://terminology.hl7.org/CodeSystem/organization-type","code":"pay","display":"Payer"}]}],"name":"Blue Cross Blue Shield of Texas","telecom":[{"system":"phone","value":"(+1) 972-766-6900"}],"address":[{"use":"billing","type":"postal","line":["P.O. Box 660044"],"city":"Dallas","state":"TX","postalCode":"75266-0044","country":"USA"}]},"request":{"method":"PUT","url":"Organization/84b56847-ad40-4bf6-b612-9e42ad2a84e5"}},{"fullUrl":"https://madie.cms.gov/MeasureReport/3c4174bd-aa40-4f17-989b-3e7c4cdb3f0b","resource":{"resourceType":"MeasureReport","id":"3c4174bd-aa40-4f17-989b-3e7c4cdb3f0b","meta":{"profile":["http://hl7.org/fhir/us/cqfmeasures/StructureDefinition/test-case-cqfm"]},"contained":[{"resourceType":"Parameters","id":"d6f5e806-6e66-4dbd-b83f-6d20ac8ff058-parameters","parameter":[{"name":"subject","valueString":"8d4b7579-94f8-411c-a44b-89f403d4cabd"}]}],"extension":[{"url":"http://hl7.org/fhir/us/cqfmeasures/StructureDefinition/cqfm-inputParameters","valueReference":{"reference":"#d6f5e806-6e66-4dbd-b83f-6d20ac8ff058-parameters"}},{"url":"http://hl7.org/fhir/us/cqfmeasures/StructureDefinition/cqfm-testCaseDescription","valueMarkdown":"Enc 1/1  0800-0845 during MP, BP 140/90, follow up in 1 day, alcohol consumption for rehab/detox, \n2nd Enc 12/31 @1000-1045 BP 160/90, f/u in 2 -3 mo. EKG study, lifestyle changes recommended, medication."}],"modifierExtension":[{"url":"http://hl7.org/fhir/us/cqfmeasures/StructureDefinition/cqfm-isTestCase","valueBoolean":true}],"status":"complete","type":"individual","measure":"https://madie.cms.gov/Measure/PCSBPScreeningFollowUpFHIR","period":{"start":"2025-01-01","end":"2025-12-31"},"group":[{"population":[{"code":{"coding":[{"system":"http://terminology.hl7.org/CodeSystem/measure-population","code":"initial-population","display":"Initial Population"}]},"count":2},{"code":{"coding":[{"system":"http://terminology.hl7.org/CodeSystem/measure-population","code":"denominator","display":"Denominator"}]},"count":2},{"code":{"coding":[{"system":"http://terminology.hl7.org/CodeSystem/measure-population","code":"denominator-exclusion","display":"Denominator Exclusion"}]},"count":0},{"code":{"coding":[{"system":"http://terminology.hl7.org/CodeSystem/measure-population","code":"numerator","display":"Numerator"}]},"count":2},{"code":{"coding":[{"system":"http://terminology.hl7.org/CodeSystem/measure-population","code":"denominator-exception","display":"Denominator Exception"}]},"count":0}]}]},"request":{"method":"PUT","url":"MeasureReport/3c4174bd-aa40-4f17-989b-3e7c4cdb3f0b"}}]}