{"resourceType":"Bundle","id":"tests-6714818f-8aa6-4673-8c39-fd35e470461c-bundle","type":"transaction","entry":[{"fullUrl":"https://madie.cms.gov/Patient/6714818f-8aa6-4673-8c39-fd35e470461c","resource":{"resourceType":"Patient","id":"6714818f-8aa6-4673-8c39-fd35e470461c","meta":{"profile":["http://hl7.org/fhir/us/qicore/StructureDefinition/qicore-patient"]},"extension":[{"url":"http://hl7.org/fhir/us/core/StructureDefinition/us-core-race","extension":[{"url":"ombCategory","valueCoding":{"system":"urn:oid:2.16.840.1.113883.6.238","code":"2076-8","display":"Native Hawaiian or Other Pacific Islander","userSelected":true}},{"url":"text","valueString":"Native Hawaiian or Other Pacific Islander"}]},{"url":"http://hl7.org/fhir/us/core/StructureDefinition/us-core-ethnicity","extension":[{"url":"ombCategory","valueCoding":{"system":"urn:oid:2.16.840.1.113883.6.238","code":"2186-5","display":"Not Hispanic or Latino","userSelected":true}},{"url":"text","valueString":"Not Hispanic or Latino"}]}],"identifier":[{"type":{"coding":[{"system":"http://terminology.hl7.org/CodeSystem/v2-0203","code":"MR"}]},"system":"https://bonnie-fhir.healthit.gov/","value":"62cc370167cd2f796b838ab4"}],"name":[{"family":"NUMERPassX2","given":["2EncsHTNWeightActivityLab"]}],"gender":"female","birthDate":"2004-01-31"},"request":{"method":"PUT","url":"Patient/6714818f-8aa6-4673-8c39-fd35e470461c"}},{"fullUrl":"https://madie.cms.gov/Encounter/encounter-to-screen-for-blood-pressure-d1ae","resource":{"resourceType":"Encounter","id":"a7fa572e-ad6c-4948-be87-f7c2161590a2","meta":{"profile":["http://hl7.org/fhir/us/qicore/StructureDefinition/qicore-encounter"]},"status":"finished","class":{"system":"http://terminology.hl7.org/CodeSystem/v3-ActCode","code":"AMB","display":"ambulatory"},"type":[{"coding":[{"system":"http://snomed.info/sct","version":"2022-03","code":"103705002","display":"Patient status observation (procedure)","userSelected":true}]}],"subject":{"reference":"Patient/6714818f-8aa6-4673-8c39-fd35e470461c"},"period":{"start":"2025-01-01T08:00:00.000+00:00","end":"2025-01-01T08:30:00.000+00:00"}},"request":{"method":"PUT","url":"Encounter/a7fa572e-ad6c-4948-be87-f7c2161590a2"}},{"fullUrl":"https://madie.cms.gov/Observation/blood-pressure-1","resource":{"resourceType":"Observation","id":"828fb4b3-c0a8-45b8-8fc1-2f59d7cd7507","meta":{"profile":["http://hl7.org/fhir/StructureDefinition/bp"]},"status":"final","category":[{"coding":[{"system":"http://terminology.hl7.org/CodeSystem/observation-category","code":"vital-signs","display":"Vital Signs"}],"text":"Vital Signs"}],"code":{"coding":[{"system":"http://loinc.org","code":"85354-9","display":"Blood pressure panel"}]},"subject":{"reference":"Patient/6714818f-8aa6-4673-8c39-fd35e470461c"},"effectiveDateTime":"2025-01-01T08:05:00.000Z","component":[{"code":{"coding":[{"system":"http://loinc.org","code":"8480-6","display":"Systolic blood pressure"}]},"valueQuantity":{"value":130,"unit":"mmHg","system":"http://unitsofmeasure.org","code":"mm[Hg]"}},{"code":{"coding":[{"system":"http://loinc.org","code":"8462-4","display":"Diastolic blood pressure"}]},"valueQuantity":{"value":80,"unit":"mmHg","system":"http://unitsofmeasure.org","code":"mm[Hg]"}}]},"request":{"method":"PUT","url":"Observation/828fb4b3-c0a8-45b8-8fc1-2f59d7cd7507"}},{"fullUrl":"https://madie.cms.gov/ServiceRequest/follow-up-within-4-weeks-8ab0","resource":{"resourceType":"ServiceRequest","id":"3e2e2f23-7c0f-4307-a2c8-a6b8b2d93b5e","meta":{"profile":["http://hl7.org/fhir/us/qicore/StructureDefinition/qicore-servicerequest"]},"status":"active","intent":"order","code":{"coding":[{"system":"http://snomed.info/sct","version":"2022-03","code":"183617005","display":"Follow-up 1 day (finding)","userSelected":true}]},"subject":{"reference":"Patient/6714818f-8aa6-4673-8c39-fd35e470461c"},"authoredOn":"2025-01-01T08:25:00.000+00:00"},"request":{"method":"PUT","url":"ServiceRequest/3e2e2f23-7c0f-4307-a2c8-a6b8b2d93b5e"}},{"fullUrl":"https://madie.cms.gov/ServiceRequest/weight-reduction-recommended-8ab2","resource":{"resourceType":"ServiceRequest","id":"5e914e6f-b909-4be5-9049-4ef7f02e31e7","meta":{"profile":["http://hl7.org/fhir/us/qicore/StructureDefinition/qicore-servicerequest"]},"status":"active","intent":"order","code":{"coding":[{"system":"http://snomed.info/sct","version":"2022-03","code":"1181000175107","display":"Recommendation to lose weight (procedure)","userSelected":true}]},"subject":{"reference":"Patient/6714818f-8aa6-4673-8c39-fd35e470461c"},"authoredOn":"2025-01-01T08:25:00.000+00:00"},"request":{"method":"PUT","url":"ServiceRequest/5e914e6f-b909-4be5-9049-4ef7f02e31e7"}},{"fullUrl":"https://madie.cms.gov/Encounter/encounter-to-screen-for-blood-pressure-8ab5","resource":{"resourceType":"Encounter","id":"2d082139-077b-41c9-a9d3-068f0ac7284d","meta":{"profile":["http://hl7.org/fhir/us/qicore/StructureDefinition/qicore-encounter"]},"status":"finished","class":{"system":"http://terminology.hl7.org/CodeSystem/v3-ActCode","code":"AMB","display":"ambulatory"},"type":[{"coding":[{"system":"http://snomed.info/sct","version":"2022-03","code":"103705002","display":"Patient status observation (procedure)","userSelected":true}]}],"subject":{"reference":"Patient/6714818f-8aa6-4673-8c39-fd35e470461c"},"period":{"start":"2025-12-31T09:00:00.000+00:00","end":"2025-12-31T09:30:00.000+00:00"}},"request":{"method":"PUT","url":"Encounter/2d082139-077b-41c9-a9d3-068f0ac7284d"}},{"fullUrl":"https://madie.cms.gov/Observation/blood-pressure-2","resource":{"resourceType":"Observation","id":"8d416075-9154-4666-b9e7-efc1adcfe3ba","meta":{"profile":["http://hl7.org/fhir/StructureDefinition/bp"]},"status":"final","category":[{"coding":[{"system":"http://terminology.hl7.org/CodeSystem/observation-category","code":"vital-signs","display":"Vital Signs"}],"text":"Vital Signs"}],"code":{"coding":[{"system":"http://loinc.org","code":"85354-9","display":"Blood pressure panel"}]},"subject":{"reference":"Patient/6714818f-8aa6-4673-8c39-fd35e470461c"},"effectiveDateTime":"2025-12-31T09:05:00.000Z","component":[{"code":{"coding":[{"system":"http://loinc.org","code":"8480-6","display":"Systolic blood pressure"}]},"valueQuantity":{"value":130,"unit":"mmHg","system":"http://unitsofmeasure.org","code":"mm[Hg]"}},{"code":{"coding":[{"system":"http://loinc.org","code":"8462-4","display":"Diastolic blood pressure"}]},"valueQuantity":{"value":80,"unit":"mmHg","system":"http://unitsofmeasure.org","code":"mm[Hg]"}}]},"request":{"method":"PUT","url":"Observation/8d416075-9154-4666-b9e7-efc1adcfe3ba"}},{"fullUrl":"https://madie.cms.gov/ServiceRequest/follow-up-2-3-months-finding-b49a","resource":{"resourceType":"ServiceRequest","id":"13a7a3cb-340b-461f-9d1e-e4c8b0aa172b","meta":{"profile":["http://hl7.org/fhir/us/qicore/StructureDefinition/qicore-servicerequest"]},"status":"active","intent":"order","code":{"coding":[{"system":"http://snomed.info/sct","code":"183624006","display":"Follow-up 2-3 months (finding)","userSelected":true}]},"subject":{"reference":"Patient/6714818f-8aa6-4673-8c39-fd35e470461c"},"authoredOn":"2025-12-31T09:25:00.000+00:00"},"request":{"method":"PUT","url":"ServiceRequest/13a7a3cb-340b-461f-9d1e-e4c8b0aa172b"}},{"fullUrl":"https://madie.cms.gov/ServiceRequest/recommendation-to-increase-physical-activity-b49c","resource":{"resourceType":"ServiceRequest","id":"667a501c-13a3-4de8-a033-4027dfe91835","meta":{"profile":["http://hl7.org/fhir/us/qicore/StructureDefinition/qicore-servicerequest"]},"status":"active","intent":"order","code":{"coding":[{"system":"http://snomed.info/sct","version":"2022-03","code":"281090004","display":"Recommendation to exercise (procedure)","userSelected":true}]},"subject":{"reference":"Patient/6714818f-8aa6-4673-8c39-fd35e470461c"},"authoredOn":"2025-12-31T09:25:00.000+00:00"},"request":{"method":"PUT","url":"ServiceRequest/667a501c-13a3-4de8-a033-4027dfe91835"}},{"fullUrl":"https://madie.cms.gov/ServiceRequest/laboratory-tests-for-hypertension-b49d","resource":{"resourceType":"ServiceRequest","id":"2bab9ee5-9055-4e52-8eba-f742237e9cad","meta":{"profile":["http://hl7.org/fhir/us/qicore/StructureDefinition/qicore-servicerequest"]},"status":"active","intent":"order","code":{"coding":[{"system":"http://loinc.org","version":"2.72","code":"24320-4","display":"Basic metabolic 1998 panel - Serum or Plasma","userSelected":true}]},"subject":{"reference":"Patient/6714818f-8aa6-4673-8c39-fd35e470461c"},"authoredOn":"2025-12-31T09:25:00.000+00:00"},"request":{"method":"PUT","url":"ServiceRequest/2bab9ee5-9055-4e52-8eba-f742237e9cad"}},{"fullUrl":"https://madie.cms.gov/Coverage/1","resource":{"resourceType":"Coverage","id":"899ea9a0-658e-45c6-a348-7b9a0c97286a","meta":{"profile":["http://hl7.org/fhir/us/qicore/StructureDefinition/qicore-coverage"]},"status":"active","beneficiary":{"reference":"Patient/6714818f-8aa6-4673-8c39-fd35e470461c"},"payor":[{"reference":"Organization/41c75c00-82d9-4ab2-98f6-cfaf7fc3381d"}]},"request":{"method":"PUT","url":"Coverage/899ea9a0-658e-45c6-a348-7b9a0c97286a"}},{"fullUrl":"https://madie.cms.gov/Organization/123456","resource":{"resourceType":"Organization","id":"41c75c00-82d9-4ab2-98f6-cfaf7fc3381d","meta":{"profile":["http://hl7.org/fhir/us/qicore/StructureDefinition/qicore-organization"]},"identifier":[{"use":"temp","system":"urn:oid:2.16.840.1.113883.4.4","value":"21-3259825"}],"active":true,"type":[{"coding":[{"system":"http://terminology.hl7.org/CodeSystem/organization-type","code":"pay","display":"Payer"}]}],"name":"Blue Cross Blue Shield of Texas","telecom":[{"system":"phone","value":"(+1) 972-766-6900"}],"address":[{"use":"billing","type":"postal","line":["P.O. Box 660044"],"city":"Dallas","state":"TX","postalCode":"75266-0044","country":"USA"}]},"request":{"method":"PUT","url":"Organization/41c75c00-82d9-4ab2-98f6-cfaf7fc3381d"}},{"fullUrl":"https://madie.cms.gov/MeasureReport/04137b92-ced1-48b3-8b67-01f74b1019a2","resource":{"resourceType":"MeasureReport","id":"04137b92-ced1-48b3-8b67-01f74b1019a2","meta":{"profile":["http://hl7.org/fhir/us/cqfmeasures/StructureDefinition/test-case-cqfm"]},"contained":[{"resourceType":"Parameters","id":"c2ae8313-db8e-4a9c-b3c2-8128827bae2e-parameters","parameter":[{"name":"subject","valueString":"6714818f-8aa6-4673-8c39-fd35e470461c"}]}],"extension":[{"url":"http://hl7.org/fhir/us/cqfmeasures/StructureDefinition/cqfm-inputParameters","valueReference":{"reference":"#c2ae8313-db8e-4a9c-b3c2-8128827bae2e-parameters"}},{"url":"http://hl7.org/fhir/us/cqfmeasures/StructureDefinition/cqfm-testCaseDescription","valueMarkdown":"Age 18+, 1st enc. 01/01 0800- 0830 during MP, bp 130/80, f/u 4 wks, wt reduction recommend.\n\n2nd enc. 12/31  0900 - 0930 during MP,  BP 130/80 ref/u 2-3 wks, recommend exercise. ordered BMP, "}],"modifierExtension":[{"url":"http://hl7.org/fhir/us/cqfmeasures/StructureDefinition/cqfm-isTestCase","valueBoolean":true}],"status":"complete","type":"individual","measure":"https://madie.cms.gov/Measure/PCSBPScreeningFollowUpFHIR","period":{"start":"2025-01-01","end":"2025-12-31"},"group":[{"population":[{"code":{"coding":[{"system":"http://terminology.hl7.org/CodeSystem/measure-population","code":"initial-population","display":"Initial Population"}]},"count":2},{"code":{"coding":[{"system":"http://terminology.hl7.org/CodeSystem/measure-population","code":"denominator","display":"Denominator"}]},"count":2},{"code":{"coding":[{"system":"http://terminology.hl7.org/CodeSystem/measure-population","code":"denominator-exclusion","display":"Denominator Exclusion"}]},"count":0},{"code":{"coding":[{"system":"http://terminology.hl7.org/CodeSystem/measure-population","code":"numerator","display":"Numerator"}]},"count":2},{"code":{"coding":[{"system":"http://terminology.hl7.org/CodeSystem/measure-population","code":"denominator-exception","display":"Denominator Exception"}]},"count":0}]}]},"request":{"method":"PUT","url":"MeasureReport/04137b92-ced1-48b3-8b67-01f74b1019a2"}}]}