{"resourceType":"Bundle","id":"tests-d3cc8712-ba04-4dba-aebd-a772e49e2741-bundle","type":"transaction","entry":[{"fullUrl":"https://madie.cms.gov/Patient/d3cc8712-ba04-4dba-aebd-a772e49e2741","resource":{"resourceType":"Patient","id":"d3cc8712-ba04-4dba-aebd-a772e49e2741","meta":{"profile":["http://hl7.org/fhir/us/qicore/StructureDefinition/qicore-patient"]},"extension":[{"url":"http://hl7.org/fhir/us/core/StructureDefinition/us-core-race","extension":[{"url":"ombCategory","valueCoding":{"system":"urn:oid:2.16.840.1.113883.6.238","code":"1002-5","display":"American Indian or Alaska Native","userSelected":true}},{"url":"text","valueString":"American Indian or Alaska Native"}]},{"url":"http://hl7.org/fhir/us/core/StructureDefinition/us-core-ethnicity","extension":[{"url":"ombCategory","valueCoding":{"system":"urn:oid:2.16.840.1.113883.6.238","code":"2135-2","display":"Hispanic or Latino","userSelected":true}},{"url":"text","valueString":"Hispanic or Latino"}]}],"identifier":[{"type":{"coding":[{"system":"http://terminology.hl7.org/CodeSystem/v2-0203","code":"MR"}]},"system":"https://bonnie-fhir.healthit.gov/","value":"62fa88b5e884ee19102758b5"}],"name":[{"family":"DENEXFail","given":["HypertensionDuringEnc"]}],"gender":"male","birthDate":"2004-06-18"},"request":{"method":"PUT","url":"Patient/d3cc8712-ba04-4dba-aebd-a772e49e2741"}},{"fullUrl":"https://madie.cms.gov/Encounter/encounter-to-screen-for-blood-pressure-b30d","resource":{"resourceType":"Encounter","id":"543a62d4-e0c5-4181-8654-4a3ea8f6dc26","meta":{"profile":["http://hl7.org/fhir/us/qicore/StructureDefinition/qicore-encounter"]},"status":"finished","class":{"system":"http://terminology.hl7.org/CodeSystem/v3-ActCode","code":"AMB","display":"ambulatory"},"type":[{"coding":[{"system":"http://snomed.info/sct","version":"2022-03","code":"103705002","display":"Patient status observation (procedure)","userSelected":true}]}],"subject":{"reference":"Patient/d3cc8712-ba04-4dba-aebd-a772e49e2741"},"period":{"start":"2025-01-01T08:00:00.000+00:00","end":"2025-01-01T10:00:00.000+00:00"}},"request":{"method":"PUT","url":"Encounter/543a62d4-e0c5-4181-8654-4a3ea8f6dc26"}},{"fullUrl":"https://madie.cms.gov/Condition/diagnosis-of-hypertension-b30e","resource":{"resourceType":"Condition","id":"6e403cdb-7195-47f2-a945-7ef5eb474159","meta":{"profile":["http://hl7.org/fhir/us/qicore/StructureDefinition/qicore-condition"]},"clinicalStatus":{"coding":[{"system":"http://terminology.hl7.org/CodeSystem/condition-clinical","code":"active","display":"active","userSelected":true}]},"verificationStatus":{"coding":[{"system":"http://terminology.hl7.org/CodeSystem/condition-ver-status","code":"confirmed","display":"Confirmed","userSelected":true}]},"category":[{"coding":[{"system":"http://terminology.hl7.org/CodeSystem/condition-category","code":"problem-list-item","display":"Problem List Item"}]}],"code":{"coding":[{"system":"http://snomed.info/sct","version":"2022-03","code":"10725009","display":"Benign hypertension (disorder)","userSelected":true}]},"subject":{"reference":"Patient/d3cc8712-ba04-4dba-aebd-a772e49e2741"},"onsetPeriod":{"start":"2025-01-02T00:01:00.000+00:00"}},"request":{"method":"PUT","url":"Condition/6e403cdb-7195-47f2-a945-7ef5eb474159"}},{"fullUrl":"https://madie.cms.gov/Coverage/1","resource":{"resourceType":"Coverage","id":"3030d52f-711c-4428-92e2-511542eb35b9","meta":{"profile":["http://hl7.org/fhir/us/qicore/StructureDefinition/qicore-coverage"]},"status":"active","beneficiary":{"reference":"Patient/d3cc8712-ba04-4dba-aebd-a772e49e2741"},"payor":[{"reference":"Organization/41c75c00-82d9-4ab2-98f6-cfaf7fc3381d"}]},"request":{"method":"PUT","url":"Coverage/3030d52f-711c-4428-92e2-511542eb35b9"}},{"fullUrl":"https://madie.cms.gov/Organization/123456","resource":{"resourceType":"Organization","id":"41c75c00-82d9-4ab2-98f6-cfaf7fc3381d","meta":{"profile":["http://hl7.org/fhir/us/qicore/StructureDefinition/qicore-organization"]},"identifier":[{"use":"temp","system":"urn:oid:2.16.840.1.113883.4.4","value":"21-3259825"}],"active":true,"type":[{"coding":[{"system":"http://terminology.hl7.org/CodeSystem/organization-type","code":"pay","display":"Payer"}]}],"name":"Blue Cross Blue Shield of Texas","telecom":[{"system":"phone","value":"(+1) 972-766-6900"}],"address":[{"use":"billing","type":"postal","line":["P.O. Box 660044"],"city":"Dallas","state":"TX","postalCode":"75266-0044","country":"USA"}]},"request":{"method":"PUT","url":"Organization/41c75c00-82d9-4ab2-98f6-cfaf7fc3381d"}},{"fullUrl":"https://madie.cms.gov/Practitioner/practitioner-123456","resource":{"resourceType":"Practitioner","id":"2334a0b5-b0c8-401a-99f4-94be4fc66c99","meta":{"profile":["http://hl7.org/fhir/us/qicore/StructureDefinition/qicore-practitioner"]},"identifier":[{"system":"http://hl7.org/fhir/sid/us-npi","value":"123456"}],"name":[{"family":"Evil","prefix":["Dr"]}]},"request":{"method":"PUT","url":"Practitioner/2334a0b5-b0c8-401a-99f4-94be4fc66c99"}},{"fullUrl":"https://madie.cms.gov/MeasureReport/0da903f6-32ae-47a5-83a3-c3b4d9675648","resource":{"resourceType":"MeasureReport","id":"0da903f6-32ae-47a5-83a3-c3b4d9675648","meta":{"profile":["http://hl7.org/fhir/us/cqfmeasures/StructureDefinition/test-case-cqfm"]},"contained":[{"resourceType":"Parameters","id":"caaac7d1-4738-4b0a-bbc8-8d8ffccf0df1-parameters","parameter":[{"name":"subject","valueString":"d3cc8712-ba04-4dba-aebd-a772e49e2741"}]}],"extension":[{"url":"http://hl7.org/fhir/us/cqfmeasures/StructureDefinition/cqfm-inputParameters","valueReference":{"reference":"#caaac7d1-4738-4b0a-bbc8-8d8ffccf0df1-parameters"}},{"url":"http://hl7.org/fhir/us/cqfmeasures/StructureDefinition/cqfm-testCaseDescription","valueMarkdown":"Encounter with BP reading where HTN identified 1 minute after end of day of enc"}],"modifierExtension":[{"url":"http://hl7.org/fhir/us/cqfmeasures/StructureDefinition/cqfm-isTestCase","valueBoolean":true}],"status":"complete","type":"individual","measure":"https://madie.cms.gov/Measure/PCSBPScreeningFollowUpFHIR","period":{"start":"2025-01-01","end":"2025-12-31"},"group":[{"population":[{"code":{"coding":[{"system":"http://terminology.hl7.org/CodeSystem/measure-population","code":"initial-population","display":"Initial Population"}]},"count":1},{"code":{"coding":[{"system":"http://terminology.hl7.org/CodeSystem/measure-population","code":"denominator","display":"Denominator"}]},"count":1},{"code":{"coding":[{"system":"http://terminology.hl7.org/CodeSystem/measure-population","code":"denominator-exclusion","display":"Denominator Exclusion"}]},"count":0},{"code":{"coding":[{"system":"http://terminology.hl7.org/CodeSystem/measure-population","code":"numerator","display":"Numerator"}]},"count":0},{"code":{"coding":[{"system":"http://terminology.hl7.org/CodeSystem/measure-population","code":"denominator-exception","display":"Denominator Exception"}]},"count":0}]}]},"request":{"method":"PUT","url":"MeasureReport/0da903f6-32ae-47a5-83a3-c3b4d9675648"}}]}