{"resourceType":"Bundle","id":"tests-58e117e5-ab51-4acf-92d1-55d70582eaa5-bundle","type":"transaction","entry":[{"fullUrl":"https://madie.cms.gov/Patient/58e117e5-ab51-4acf-92d1-55d70582eaa5","resource":{"resourceType":"Patient","id":"58e117e5-ab51-4acf-92d1-55d70582eaa5","meta":{"profile":["http://hl7.org/fhir/us/qicore/StructureDefinition/qicore-patient"]},"extension":[{"url":"http://hl7.org/fhir/us/core/StructureDefinition/us-core-race","extension":[{"url":"ombCategory","valueCoding":{"system":"urn:oid:2.16.840.1.113883.6.238","code":"2106-3","display":"White","userSelected":true}},{"url":"text","valueString":"White"}]},{"url":"http://hl7.org/fhir/us/core/StructureDefinition/us-core-ethnicity","extension":[{"url":"ombCategory","valueCoding":{"system":"urn:oid:2.16.840.1.113883.6.238","code":"2186-5","display":"Not Hispanic or Latino","userSelected":true}},{"url":"text","valueString":"Not Hispanic or Latino"}]}],"identifier":[{"type":{"coding":[{"system":"http://terminology.hl7.org/CodeSystem/v2-0203","code":"MR"}]},"system":"https://bonnie-fhir.healthit.gov/","value":"62cc369c67cd2f796b838ab3"}],"name":[{"family":"NUMERFail","given":["FirstHTNWeightRecNoFU"]}],"gender":"male","birthDate":"2004-01-31"},"request":{"method":"PUT","url":"Patient/58e117e5-ab51-4acf-92d1-55d70582eaa5"}},{"fullUrl":"https://madie.cms.gov/Encounter/encounter-to-screen-for-blood-pressure-d1ae","resource":{"resourceType":"Encounter","id":"ae0b8e89-48cf-4791-bb28-d32a767139fa","meta":{"profile":["http://hl7.org/fhir/us/qicore/StructureDefinition/qicore-encounter"]},"status":"finished","class":{"system":"http://terminology.hl7.org/CodeSystem/v3-ActCode","code":"AMB","display":"ambulatory"},"type":[{"coding":[{"system":"http://snomed.info/sct","version":"2022-03","code":"103705002","display":"Patient status observation (procedure)","userSelected":true}]}],"subject":{"reference":"Patient/58e117e5-ab51-4acf-92d1-55d70582eaa5"},"period":{"start":"2025-01-01T08:00:00.000+00:00","end":"2025-01-01T08:30:00.000+00:00"}},"request":{"method":"PUT","url":"Encounter/ae0b8e89-48cf-4791-bb28-d32a767139fa"}},{"fullUrl":"https://madie.cms.gov/Observation/systolic-blood-pressure-d1af","resource":{"resourceType":"Observation","id":"25e8b143-46e1-4545-b4ea-b7e739fed19f","meta":{"profile":["http://hl7.org/fhir/us/qicore/StructureDefinition/qicore-observation"]},"status":"final","category":[{"coding":[{"system":"http://terminology.hl7.org/CodeSystem/observation-category","code":"procedure","display":"Procedure"}]}],"code":{"coding":[{"system":"http://loinc.org","code":"8480-6","display":"Systolic blood pressure","userSelected":true}]},"subject":{"reference":"Patient/58e117e5-ab51-4acf-92d1-55d70582eaa5"},"effectiveDateTime":"2025-01-01T08:05:00.000+00:00","valueQuantity":{"value":130.0,"unit":"mm[Hg]"}},"request":{"method":"PUT","url":"Observation/25e8b143-46e1-4545-b4ea-b7e739fed19f"}},{"fullUrl":"https://madie.cms.gov/Observation/diastolic-blood-pressure-d1b0","resource":{"resourceType":"Observation","id":"94969790-e791-439c-88c7-95422ef92c48","meta":{"profile":["http://hl7.org/fhir/us/qicore/StructureDefinition/qicore-observation"]},"status":"final","category":[{"coding":[{"system":"http://terminology.hl7.org/CodeSystem/observation-category","code":"procedure","display":"Procedure"}]}],"code":{"coding":[{"system":"http://loinc.org","code":"8462-4","display":"Diastolic blood pressure","userSelected":true}]},"subject":{"reference":"Patient/58e117e5-ab51-4acf-92d1-55d70582eaa5"},"effectiveDateTime":"2025-01-01T08:05:00.000+00:00","valueQuantity":{"value":80.0,"unit":"mm[Hg]"}},"request":{"method":"PUT","url":"Observation/94969790-e791-439c-88c7-95422ef92c48"}},{"fullUrl":"https://madie.cms.gov/ServiceRequest/weight-reduction-recommended-8ab2","resource":{"resourceType":"ServiceRequest","id":"eaac34f7-ff90-4905-9fbc-e1edadd8c097","meta":{"profile":["http://hl7.org/fhir/us/qicore/StructureDefinition/qicore-servicerequest"]},"status":"active","intent":"order","code":{"coding":[{"system":"http://snomed.info/sct","version":"2022-03","code":"1181000175107","display":"Recommendation to lose weight (procedure)","userSelected":true}]},"subject":{"reference":"Patient/58e117e5-ab51-4acf-92d1-55d70582eaa5"},"authoredOn":"2025-01-01T08:25:00.000+00:00"},"request":{"method":"PUT","url":"ServiceRequest/eaac34f7-ff90-4905-9fbc-e1edadd8c097"}},{"fullUrl":"https://madie.cms.gov/Coverage/1","resource":{"resourceType":"Coverage","id":"fe683aef-3cdf-4db4-946a-4fcda898b699","meta":{"profile":["http://hl7.org/fhir/us/qicore/StructureDefinition/qicore-coverage"]},"status":"active","beneficiary":{"reference":"Patient/58e117e5-ab51-4acf-92d1-55d70582eaa5"},"payor":[{"reference":"Organization/77e4d06f-5e3c-436a-a598-80cefcca5028"}]},"request":{"method":"PUT","url":"Coverage/fe683aef-3cdf-4db4-946a-4fcda898b699"}},{"fullUrl":"https://madie.cms.gov/Organization/123456","resource":{"resourceType":"Organization","id":"77e4d06f-5e3c-436a-a598-80cefcca5028","meta":{"profile":["http://hl7.org/fhir/us/qicore/StructureDefinition/qicore-organization"]},"identifier":[{"use":"temp","system":"urn:oid:2.16.840.1.113883.4.4","value":"21-3259825"}],"active":true,"type":[{"coding":[{"system":"http://terminology.hl7.org/CodeSystem/organization-type","code":"pay","display":"Payer"}]}],"name":"Blue Cross Blue Shield of Texas","telecom":[{"system":"phone","value":"(+1) 972-766-6900"}],"address":[{"use":"billing","type":"postal","line":["P.O. Box 660044"],"city":"Dallas","state":"TX","postalCode":"75266-0044","country":"USA"}]},"request":{"method":"PUT","url":"Organization/77e4d06f-5e3c-436a-a598-80cefcca5028"}},{"fullUrl":"https://madie.cms.gov/Practitioner/practitioner-123456","resource":{"resourceType":"Practitioner","id":"31bea673-7c90-43c2-ad00-3d39ebecdbca","meta":{"profile":["http://hl7.org/fhir/us/qicore/StructureDefinition/qicore-practitioner"]},"identifier":[{"system":"http://hl7.org/fhir/sid/us-npi","value":"123456"}],"name":[{"family":"Evil","prefix":["Dr"]}]},"request":{"method":"PUT","url":"Practitioner/31bea673-7c90-43c2-ad00-3d39ebecdbca"}},{"fullUrl":"https://madie.cms.gov/MeasureReport/21c07359-0c37-4cb2-a505-d0a0fdab2cbe","resource":{"resourceType":"MeasureReport","id":"21c07359-0c37-4cb2-a505-d0a0fdab2cbe","meta":{"profile":["http://hl7.org/fhir/us/cqfmeasures/StructureDefinition/test-case-cqfm"]},"contained":[{"resourceType":"Parameters","id":"7e454bb1-53a9-4c37-be4f-abe59bd6457a-parameters","parameter":[{"name":"subject","valueString":"58e117e5-ab51-4acf-92d1-55d70582eaa5"}]}],"extension":[{"url":"http://hl7.org/fhir/us/cqfmeasures/StructureDefinition/cqfm-inputParameters","valueReference":{"reference":"#7e454bb1-53a9-4c37-be4f-abe59bd6457a-parameters"}},{"url":"http://hl7.org/fhir/us/cqfmeasures/StructureDefinition/cqfm-testCaseDescription","valueMarkdown":"Encounter first day of MP, BP reading 130/80, weight loss recommended but no follow up although first HTN reading. "}],"modifierExtension":[{"url":"http://hl7.org/fhir/us/cqfmeasures/StructureDefinition/cqfm-isTestCase","valueBoolean":true}],"status":"complete","type":"individual","measure":"https://madie.cms.gov/Measure/PCSBPScreeningFollowUpFHIR","period":{"start":"2025-01-01","end":"2025-12-31"},"group":[{"population":[{"code":{"coding":[{"system":"http://terminology.hl7.org/CodeSystem/measure-population","code":"initial-population","display":"Initial Population"}]},"count":1},{"code":{"coding":[{"system":"http://terminology.hl7.org/CodeSystem/measure-population","code":"denominator","display":"Denominator"}]},"count":1},{"code":{"coding":[{"system":"http://terminology.hl7.org/CodeSystem/measure-population","code":"denominator-exclusion","display":"Denominator Exclusion"}]},"count":0},{"code":{"coding":[{"system":"http://terminology.hl7.org/CodeSystem/measure-population","code":"numerator","display":"Numerator"}]},"count":0},{"code":{"coding":[{"system":"http://terminology.hl7.org/CodeSystem/measure-population","code":"denominator-exception","display":"Denominator Exception"}]},"count":0}]}]},"request":{"method":"PUT","url":"MeasureReport/21c07359-0c37-4cb2-a505-d0a0fdab2cbe"}}]}