{"resourceType":"Bundle","id":"tests-095ef9fa-0b0e-477f-9fd3-364ccfb9ee34-bundle","type":"transaction","entry":[{"fullUrl":"https://madie.cms.gov/Patient/095ef9fa-0b0e-477f-9fd3-364ccfb9ee34","resource":{"resourceType":"Patient","id":"095ef9fa-0b0e-477f-9fd3-364ccfb9ee34","meta":{"profile":["http://hl7.org/fhir/us/qicore/StructureDefinition/qicore-patient"]},"extension":[{"url":"http://hl7.org/fhir/us/core/StructureDefinition/us-core-race","extension":[{"url":"ombCategory","valueCoding":{"system":"urn:oid:2.16.840.1.113883.6.238","code":"1002-5","display":"American Indian or Alaska Native","userSelected":true}},{"url":"text","valueString":"American Indian or Alaska Native"}]},{"url":"http://hl7.org/fhir/us/core/StructureDefinition/us-core-ethnicity","extension":[{"url":"ombCategory","valueCoding":{"system":"urn:oid:2.16.840.1.113883.6.238","code":"2135-2","display":"Hispanic or Latino","userSelected":true}},{"url":"text","valueString":"Hispanic or Latino"}]}],"identifier":[{"type":{"coding":[{"system":"http://terminology.hl7.org/CodeSystem/v2-0203","code":"MR"}]},"system":"https://bonnie-fhir.healthit.gov/","value":"62cddc0a62b2323a168e9764"}],"name":[{"family":"NUMERPass","given":["SecondReadingOver130"]}],"gender":"male","birthDate":"1974-12-31"},"request":{"method":"PUT","url":"Patient/095ef9fa-0b0e-477f-9fd3-364ccfb9ee34"}},{"fullUrl":"https://madie.cms.gov/Encounter/encounter-to-screen-for-blood-pressure-975f","resource":{"resourceType":"Encounter","id":"d11d992c-e5b5-4e0d-bca5-f04ba2bfe527","meta":{"profile":["http://hl7.org/fhir/us/qicore/StructureDefinition/qicore-encounter"]},"status":"finished","class":{"system":"http://terminology.hl7.org/CodeSystem/v3-ActCode","code":"AMB","display":"ambulatory"},"type":[{"coding":[{"system":"http://snomed.info/sct","version":"2022-03","code":"103705002","display":"Patient status observation (procedure)","userSelected":true}]}],"subject":{"reference":"Patient/095ef9fa-0b0e-477f-9fd3-364ccfb9ee34"},"period":{"start":"2025-01-01T08:00:00.000+00:00","end":"2025-01-01T08:45:00.000+00:00"}},"request":{"method":"PUT","url":"Encounter/d11d992c-e5b5-4e0d-bca5-f04ba2bfe527"}},{"fullUrl":"https://madie.cms.gov/ServiceRequest/follow-up-within-4-weeks-9762","resource":{"resourceType":"ServiceRequest","id":"c6953416-6ab9-4eed-b11c-83f2b9bcb970","meta":{"profile":["http://hl7.org/fhir/us/qicore/StructureDefinition/qicore-servicerequest"]},"status":"active","intent":"order","code":{"coding":[{"system":"http://snomed.info/sct","version":"2022-03","code":"183617005","display":"Follow-up 1 day (finding)","userSelected":true}]},"subject":{"reference":"Patient/095ef9fa-0b0e-477f-9fd3-364ccfb9ee34"},"authoredOn":"2025-01-01T08:30:00.000+00:00"},"request":{"method":"PUT","url":"ServiceRequest/c6953416-6ab9-4eed-b11c-83f2b9bcb970"}},{"fullUrl":"https://madie.cms.gov/Encounter/encounter-to-screen-for-blood-pressure-69d7","resource":{"resourceType":"Encounter","id":"4d06396a-d2cf-4aff-a9de-5fe978ea88f7","meta":{"profile":["http://hl7.org/fhir/us/qicore/StructureDefinition/qicore-encounter"]},"status":"finished","class":{"system":"http://terminology.hl7.org/CodeSystem/v3-ActCode","code":"AMB","display":"ambulatory"},"type":[{"coding":[{"system":"http://snomed.info/sct","version":"2022-03","code":"103705002","display":"Patient status observation (procedure)","userSelected":true}]}],"subject":{"reference":"Patient/095ef9fa-0b0e-477f-9fd3-364ccfb9ee34"},"period":{"start":"2025-12-31T10:00:00.000+00:00","end":"2025-12-31T10:30:00.000+00:00"}},"request":{"method":"PUT","url":"Encounter/4d06396a-d2cf-4aff-a9de-5fe978ea88f7"}},{"fullUrl":"https://madie.cms.gov/ServiceRequest/follow-up-within-4-weeks-69da","resource":{"resourceType":"ServiceRequest","id":"704212e5-d27b-4286-8f73-15777b8bf9ff","meta":{"profile":["http://hl7.org/fhir/us/qicore/StructureDefinition/qicore-servicerequest"]},"status":"active","intent":"order","code":{"coding":[{"system":"http://snomed.info/sct","version":"2022-03","code":"183624006","display":"Follow-up 2-3 months (finding)","userSelected":true}]},"subject":{"reference":"Patient/095ef9fa-0b0e-477f-9fd3-364ccfb9ee34"},"authoredOn":"2025-12-31T10:10:00.000+00:00"},"request":{"method":"PUT","url":"ServiceRequest/704212e5-d27b-4286-8f73-15777b8bf9ff"}},{"fullUrl":"https://madie.cms.gov/ServiceRequest/referral-or-counseling-for-alcohol-consumption-69db","resource":{"resourceType":"ServiceRequest","id":"c2ed560d-5b10-4f3c-8aa2-b11fadc87804","meta":{"profile":["http://hl7.org/fhir/us/qicore/StructureDefinition/qicore-servicerequest"]},"status":"active","intent":"order","code":{"coding":[{"system":"http://snomed.info/sct","version":"2022-03","code":"20093000","display":"Alcohol rehabilitation and detoxification (regime/therapy)","userSelected":true}]},"subject":{"reference":"Patient/095ef9fa-0b0e-477f-9fd3-364ccfb9ee34"},"authoredOn":"2025-01-01T08:30:00.000+00:00"},"request":{"method":"PUT","url":"ServiceRequest/c2ed560d-5b10-4f3c-8aa2-b11fadc87804"}},{"fullUrl":"https://madie.cms.gov/ServiceRequest/ekg-12-channel-panel-69dc","resource":{"resourceType":"ServiceRequest","id":"a0b72eb7-91c8-40be-8910-959845b64f97","meta":{"profile":["http://hl7.org/fhir/us/qicore/StructureDefinition/qicore-servicerequest"]},"status":"active","intent":"order","code":{"coding":[{"system":"http://loinc.org","code":"34534-8","display":"EKG 12 channel panel","userSelected":true}]},"subject":{"reference":"Patient/095ef9fa-0b0e-477f-9fd3-364ccfb9ee34"},"authoredOn":"2025-12-31T10:10:00.000+00:00"},"request":{"method":"PUT","url":"ServiceRequest/a0b72eb7-91c8-40be-8910-959845b64f97"}},{"fullUrl":"https://madie.cms.gov/ServiceRequest/lifestyle-recommendation-69dd","resource":{"resourceType":"ServiceRequest","id":"e749f892-14e0-4203-a6d3-6263b86801b6","meta":{"profile":["http://hl7.org/fhir/us/qicore/StructureDefinition/qicore-servicerequest"]},"status":"active","intent":"order","code":{"coding":[{"system":"http://snomed.info/sct","version":"2022-03","code":"313204009","display":"Lifestyle education (procedure)","userSelected":true}]},"subject":{"reference":"Patient/095ef9fa-0b0e-477f-9fd3-364ccfb9ee34"},"authoredOn":"2025-12-31T10:10:00.000+00:00"},"request":{"method":"PUT","url":"ServiceRequest/e749f892-14e0-4203-a6d3-6263b86801b6"}},{"fullUrl":"https://madie.cms.gov/MedicationRequest/pharmacologic-therapy-for-hypertension-69de","resource":{"resourceType":"MedicationRequest","id":"1ab4c746-42e1-4f53-8851-67af9006f303","meta":{"profile":["http://hl7.org/fhir/us/qicore/StructureDefinition/qicore-medicationrequest"]},"status":"active","intent":"order","medicationCodeableConcept":{"coding":[{"system":"http://www.nlm.nih.gov/research/umls/rxnorm","code":"1000001","display":"amlodipine 5 MG / hydrochlorothiazide 25 MG / olmesartan medoxomil 40 MG Oral Tablet","userSelected":true}]},"subject":{"reference":"Patient/095ef9fa-0b0e-477f-9fd3-364ccfb9ee34"},"authoredOn":"2025-12-31T10:10:00.000+00:00","requester":{"reference":"Practitioner/example","display":"Patrick Pump"}},"request":{"method":"PUT","url":"MedicationRequest/1ab4c746-42e1-4f53-8851-67af9006f303"}},{"fullUrl":"https://madie.cms.gov/Observation/blood-pressure-1","resource":{"resourceType":"Observation","id":"2d4b69ef-1499-4a78-bf73-863f07e24a54","meta":{"profile":["http://hl7.org/fhir/StructureDefinition/bp"]},"status":"corrected","category":[{"coding":[{"system":"http://terminology.hl7.org/CodeSystem/observation-category","code":"vital-signs","display":"Vital Signs"}],"text":"Vital Signs"}],"code":{"coding":[{"system":"http://loinc.org","code":"85354-9","display":"Blood pressure panel"}]},"subject":{"reference":"Patient/095ef9fa-0b0e-477f-9fd3-364ccfb9ee34"},"effectiveDateTime":"2025-01-01T08:05:00.000Z","component":[{"code":{"coding":[{"system":"http://loinc.org","code":"8480-6","display":"Systolic blood pressure"}]},"valueQuantity":{"value":130,"unit":"mmHg","system":"http://unitsofmeasure.org","code":"mm[Hg]"}},{"code":{"coding":[{"system":"http://loinc.org","code":"8462-4","display":"Diastolic blood pressure"}]},"valueQuantity":{"value":80,"unit":"mmHg","system":"http://unitsofmeasure.org","code":"mm[Hg]"}}]},"request":{"method":"PUT","url":"Observation/2d4b69ef-1499-4a78-bf73-863f07e24a54"}},{"fullUrl":"https://madie.cms.gov/Observation/blood-pressure-2","resource":{"resourceType":"Observation","id":"61cc541f-5950-41ca-b7d0-7a75586e6939","meta":{"profile":["http://hl7.org/fhir/StructureDefinition/bp"]},"status":"final","category":[{"coding":[{"system":"http://terminology.hl7.org/CodeSystem/observation-category","code":"vital-signs","display":"Vital Signs"}],"text":"Vital Signs"}],"code":{"coding":[{"system":"http://loinc.org","code":"85354-9","display":"Blood pressure panel"}]},"subject":{"reference":"Patient/095ef9fa-0b0e-477f-9fd3-364ccfb9ee34"},"effectiveDateTime":"2025-12-31T10:05:00.000Z","component":[{"code":{"coding":[{"system":"http://loinc.org","code":"8480-6","display":"Systolic blood pressure"}]},"valueQuantity":{"value":131,"unit":"mmHg","system":"http://unitsofmeasure.org","code":"mm[Hg]"}},{"code":{"coding":[{"system":"http://loinc.org","code":"8462-4","display":"Diastolic blood pressure"}]},"valueQuantity":{"value":80,"unit":"mmHg","system":"http://unitsofmeasure.org","code":"mm[Hg]"}}]},"request":{"method":"PUT","url":"Observation/61cc541f-5950-41ca-b7d0-7a75586e6939"}},{"fullUrl":"https://madie.cms.gov/Coverage/1","resource":{"resourceType":"Coverage","id":"62d001b1-8afd-4aee-9440-866e03e28be9","meta":{"profile":["http://hl7.org/fhir/us/qicore/StructureDefinition/qicore-coverage"]},"status":"active","beneficiary":{"reference":"Patient/095ef9fa-0b0e-477f-9fd3-364ccfb9ee34"},"payor":[{"reference":"Organization/ec8cac12-7dd8-4c6e-8c44-d6c645085c80"}]},"request":{"method":"PUT","url":"Coverage/62d001b1-8afd-4aee-9440-866e03e28be9"}},{"fullUrl":"https://madie.cms.gov/Organization/123456","resource":{"resourceType":"Organization","id":"ec8cac12-7dd8-4c6e-8c44-d6c645085c80","meta":{"profile":["http://hl7.org/fhir/us/qicore/StructureDefinition/qicore-organization"]},"identifier":[{"use":"temp","system":"urn:oid:2.16.840.1.113883.4.4","value":"21-3259825"}],"active":true,"type":[{"coding":[{"system":"http://terminology.hl7.org/CodeSystem/organization-type","code":"pay","display":"Payer"}]}],"name":"Blue Cross Blue Shield of Texas","telecom":[{"system":"phone","value":"(+1) 972-766-6900"}],"address":[{"use":"billing","type":"postal","line":["P.O. Box 660044"],"city":"Dallas","state":"TX","postalCode":"75266-0044","country":"USA"}]},"request":{"method":"PUT","url":"Organization/ec8cac12-7dd8-4c6e-8c44-d6c645085c80"}},{"fullUrl":"https://madie.cms.gov/MeasureReport/d73eb416-173d-4307-8b58-833d87641638","resource":{"resourceType":"MeasureReport","id":"d73eb416-173d-4307-8b58-833d87641638","meta":{"profile":["http://hl7.org/fhir/us/cqfmeasures/StructureDefinition/test-case-cqfm"]},"contained":[{"resourceType":"Parameters","id":"ce036e73-096b-4a8a-b13d-5d9688ab75c6-parameters","parameter":[{"name":"subject","valueString":"095ef9fa-0b0e-477f-9fd3-364ccfb9ee34"}]}],"extension":[{"url":"http://hl7.org/fhir/us/cqfmeasures/StructureDefinition/cqfm-inputParameters","valueReference":{"reference":"#ce036e73-096b-4a8a-b13d-5d9688ab75c6-parameters"}},{"url":"http://hl7.org/fhir/us/cqfmeasures/StructureDefinition/cqfm-testCaseDescription","valueMarkdown":"Age 18+, encounter 01/01 0800 - 0845 during MP, second BP reading 130/80 with detox order, f/u in 1 day.\n2nd enc. 12/31 1000-1045, BP 131/80, EKG, lifestyle education, medication, f/u 1 day"}],"modifierExtension":[{"url":"http://hl7.org/fhir/us/cqfmeasures/StructureDefinition/cqfm-isTestCase","valueBoolean":true}],"status":"complete","type":"individual","measure":"https://madie.cms.gov/Measure/PCSBPScreeningFollowUpFHIR","period":{"start":"2025-01-01","end":"2025-12-31"},"group":[{"population":[{"code":{"coding":[{"system":"http://terminology.hl7.org/CodeSystem/measure-population","code":"initial-population","display":"Initial Population"}]},"count":2},{"code":{"coding":[{"system":"http://terminology.hl7.org/CodeSystem/measure-population","code":"denominator","display":"Denominator"}]},"count":2},{"code":{"coding":[{"system":"http://terminology.hl7.org/CodeSystem/measure-population","code":"denominator-exclusion","display":"Denominator Exclusion"}]},"count":0},{"code":{"coding":[{"system":"http://terminology.hl7.org/CodeSystem/measure-population","code":"numerator","display":"Numerator"}]},"count":2},{"code":{"coding":[{"system":"http://terminology.hl7.org/CodeSystem/measure-population","code":"denominator-exception","display":"Denominator Exception"}]},"count":0}]}]},"request":{"method":"PUT","url":"MeasureReport/d73eb416-173d-4307-8b58-833d87641638"}}]}