{"resourceType":"Bundle","id":"tests-5210ccf4-ddf8-4692-aa39-b03d84e9a469-bundle","type":"transaction","entry":[{"fullUrl":"https://madie.cms.gov/Patient/5210ccf4-ddf8-4692-aa39-b03d84e9a469","resource":{"resourceType":"Patient","id":"5210ccf4-ddf8-4692-aa39-b03d84e9a469","meta":{"profile":["http://hl7.org/fhir/us/qicore/StructureDefinition/qicore-patient"]},"extension":[{"url":"http://hl7.org/fhir/us/core/StructureDefinition/us-core-race","extension":[{"url":"ombCategory","valueCoding":{"system":"urn:oid:2.16.840.1.113883.6.238","code":"1002-5","display":"American Indian or Alaska Native","userSelected":true}},{"url":"text","valueString":"American Indian or Alaska Native"}]},{"url":"http://hl7.org/fhir/us/core/StructureDefinition/us-core-ethnicity","extension":[{"url":"ombCategory","valueCoding":{"system":"urn:oid:2.16.840.1.113883.6.238","code":"2135-2","display":"Hispanic or Latino","userSelected":true}},{"url":"text","valueString":"Hispanic or Latino"}]}],"identifier":[{"type":{"coding":[{"system":"http://terminology.hl7.org/CodeSystem/v2-0203","code":"MR"}]},"system":"https://bonnie-fhir.healthit.gov/","value":"SecondHighBPECGMedsNonPharm"}],"name":[{"family":"NUMERPass","given":["SecondHighBPECGMedsNonPharm"]}],"gender":"male","birthDate":"1974-12-31"},"request":{"method":"PUT","url":"Patient/5210ccf4-ddf8-4692-aa39-b03d84e9a469"}},{"fullUrl":"https://madie.cms.gov/Encounter/encounter-to-screen-for-blood-pressure-975f","resource":{"resourceType":"Encounter","id":"4580f089-a0c2-47e2-b70e-700d78f31542","meta":{"profile":["http://hl7.org/fhir/us/qicore/StructureDefinition/qicore-encounter"]},"status":"finished","class":{"system":"http://terminology.hl7.org/CodeSystem/v3-ActCode","code":"AMB","display":"ambulatory"},"type":[{"coding":[{"system":"http://snomed.info/sct","version":"2022-03","code":"103705002","display":"Patient status observation (procedure)","userSelected":true}]}],"subject":{"reference":"Patient/5210ccf4-ddf8-4692-aa39-b03d84e9a469"},"period":{"start":"2025-01-01T08:00:00.000+00:00","end":"2025-01-01T08:45:00.000+00:00"}},"request":{"method":"PUT","url":"Encounter/4580f089-a0c2-47e2-b70e-700d78f31542"}},{"fullUrl":"https://madie.cms.gov/ServiceRequest/follow-up-within-4-weeks-9762","resource":{"resourceType":"ServiceRequest","id":"c319518a-27fd-4aa6-a1cc-2d5d40c2ac28","meta":{"profile":["http://hl7.org/fhir/us/qicore/StructureDefinition/qicore-servicerequest"]},"status":"active","intent":"order","code":{"coding":[{"system":"http://snomed.info/sct","version":"2022-03","code":"183617005","display":"Follow-up 1 day (finding)","userSelected":true}]},"subject":{"reference":"Patient/5210ccf4-ddf8-4692-aa39-b03d84e9a469"},"authoredOn":"2025-01-01T08:30:00.000+00:00"},"request":{"method":"PUT","url":"ServiceRequest/c319518a-27fd-4aa6-a1cc-2d5d40c2ac28"}},{"fullUrl":"https://madie.cms.gov/Encounter/encounter-to-screen-for-blood-pressure-69d7","resource":{"resourceType":"Encounter","id":"eb046e76-e89e-4dff-9aab-b19749df1b78","meta":{"profile":["http://hl7.org/fhir/us/qicore/StructureDefinition/qicore-encounter"]},"status":"finished","class":{"system":"http://terminology.hl7.org/CodeSystem/v3-ActCode","code":"AMB","display":"ambulatory"},"type":[{"coding":[{"system":"http://snomed.info/sct","version":"2022-03","code":"103705002","display":"Patient status observation (procedure)","userSelected":true}]}],"subject":{"reference":"Patient/5210ccf4-ddf8-4692-aa39-b03d84e9a469"},"period":{"start":"2025-12-31T10:00:00.000+00:00","end":"2025-12-31T10:45:00.000+00:00"}},"request":{"method":"PUT","url":"Encounter/eb046e76-e89e-4dff-9aab-b19749df1b78"}},{"fullUrl":"https://madie.cms.gov/ServiceRequest/follow-up-within-4-weeks-69da","resource":{"resourceType":"ServiceRequest","id":"179c0b35-a783-4fe7-a151-88c3dee6a89e","meta":{"profile":["http://hl7.org/fhir/us/qicore/StructureDefinition/qicore-servicerequest"]},"status":"active","intent":"order","code":{"coding":[{"system":"http://snomed.info/sct","version":"2022-03","code":"183620002","display":"Follow-up 1 week (finding)","userSelected":true}]},"subject":{"reference":"Patient/5210ccf4-ddf8-4692-aa39-b03d84e9a469"},"authoredOn":"2025-12-31T10:10:00.000+00:00"},"request":{"method":"PUT","url":"ServiceRequest/179c0b35-a783-4fe7-a151-88c3dee6a89e"}},{"fullUrl":"https://madie.cms.gov/ServiceRequest/referral-or-counseling-for-alcohol-consumption-69db","resource":{"resourceType":"ServiceRequest","id":"b1afeca1-8761-4d43-83fd-a549659356c1","meta":{"profile":["http://hl7.org/fhir/us/qicore/StructureDefinition/qicore-servicerequest"]},"status":"active","intent":"order","code":{"coding":[{"system":"http://snomed.info/sct","version":"2022-03","code":"20093000","display":"Alcohol rehabilitation and detoxification (regime/therapy)","userSelected":true}]},"subject":{"reference":"Patient/5210ccf4-ddf8-4692-aa39-b03d84e9a469"},"authoredOn":"2025-01-01T08:30:00.000+00:00"},"request":{"method":"PUT","url":"ServiceRequest/b1afeca1-8761-4d43-83fd-a549659356c1"}},{"fullUrl":"https://madie.cms.gov/ServiceRequest/ekg-study-69dc","resource":{"resourceType":"ServiceRequest","id":"b2044c13-4cfa-49fc-82c5-fb453a0131bd","meta":{"profile":["http://hl7.org/fhir/us/qicore/StructureDefinition/qicore-servicenotrequested"]},"extension":[{"url":"http://hl7.org/fhir/us/qicore/StructureDefinition/qicore-doNotPerformReason","valueCodeableConcept":{"coding":[{"system":"http://snomed.info/sct","version":"2022-03","code":"413311005","display":"Patient non-compliant - declined intervention / support (situation)","userSelected":true}]}}],"status":"completed","intent":"order","doNotPerform":true,"code":{"coding":[{"system":"http://loinc.org","code":"11524-6","display":"EKG study","userSelected":true}]},"subject":{"reference":"Patient/5210ccf4-ddf8-4692-aa39-b03d84e9a469"},"authoredOn":"2025-12-31T10:10:00.000+00:00"},"request":{"method":"PUT","url":"ServiceRequest/b2044c13-4cfa-49fc-82c5-fb453a0131bd"}},{"fullUrl":"https://madie.cms.gov/ServiceRequest/lifestyle-recommendation-69dd","resource":{"resourceType":"ServiceRequest","id":"c1c5c13e-652f-400d-9f67-516ba23ad74d","meta":{"profile":["http://hl7.org/fhir/us/qicore/StructureDefinition/qicore-servicerequest"]},"status":"active","intent":"order","code":{"coding":[{"system":"http://snomed.info/sct","version":"2022-03","code":"313204009","display":"Lifestyle education (procedure)","userSelected":true}]},"subject":{"reference":"Patient/5210ccf4-ddf8-4692-aa39-b03d84e9a469"},"authoredOn":"2025-12-31T10:10:00.000+00:00"},"request":{"method":"PUT","url":"ServiceRequest/c1c5c13e-652f-400d-9f67-516ba23ad74d"}},{"fullUrl":"https://madie.cms.gov/MedicationRequest/pharmacologic-therapy-for-hypertension-69de","resource":{"resourceType":"MedicationRequest","id":"d9ac017f-5289-4ee5-81fb-2c20aae5042f","meta":{"profile":["http://hl7.org/fhir/us/qicore/StructureDefinition/qicore-medicationrequest"]},"status":"active","intent":"order","medicationCodeableConcept":{"coding":[{"system":"http://www.nlm.nih.gov/research/umls/rxnorm","code":"1000001","display":"amlodipine 5 MG / hydrochlorothiazide 25 MG / olmesartan medoxomil 40 MG Oral Tablet","userSelected":true}]},"subject":{"reference":"Patient/5210ccf4-ddf8-4692-aa39-b03d84e9a469"},"authoredOn":"2025-12-31T10:10:00.000+00:00","requester":{"reference":"Practitioner/example","display":"Patrick Pump"}},"request":{"method":"PUT","url":"MedicationRequest/d9ac017f-5289-4ee5-81fb-2c20aae5042f"}},{"fullUrl":"https://madie.cms.gov/Observation/blood-pressure-1","resource":{"resourceType":"Observation","id":"3f3d69f1-f404-43b6-b805-b5a2672fb618","meta":{"profile":["http://hl7.org/fhir/StructureDefinition/bp"]},"status":"final","category":[{"coding":[{"system":"http://terminology.hl7.org/CodeSystem/observation-category","code":"vital-signs","display":"Vital Signs"}],"text":"Vital Signs"}],"code":{"coding":[{"system":"http://loinc.org","code":"85354-9","display":"Blood pressure panel"}]},"subject":{"reference":"Patient/5210ccf4-ddf8-4692-aa39-b03d84e9a469"},"effectiveDateTime":"2025-01-01T08:05:00.000Z","component":[{"code":{"coding":[{"system":"http://loinc.org","code":"8480-6","display":"Systolic blood pressure"}]},"valueQuantity":{"value":140,"unit":"mmHg","system":"http://unitsofmeasure.org","code":"mm[Hg]"}},{"code":{"coding":[{"system":"http://loinc.org","code":"8462-4","display":"Diastolic blood pressure"}]},"valueQuantity":{"value":90,"unit":"mmHg","system":"http://unitsofmeasure.org","code":"mm[Hg]"}}]},"request":{"method":"PUT","url":"Observation/3f3d69f1-f404-43b6-b805-b5a2672fb618"}},{"fullUrl":"https://madie.cms.gov/Observation/blood-pressure-2","resource":{"resourceType":"Observation","id":"612a5146-efda-4e1b-912d-757f9a37b872","meta":{"profile":["http://hl7.org/fhir/StructureDefinition/bp"]},"status":"final","category":[{"coding":[{"system":"http://terminology.hl7.org/CodeSystem/observation-category","code":"vital-signs","display":"Vital Signs"}],"text":"Vital Signs"}],"code":{"coding":[{"system":"http://loinc.org","code":"85354-9","display":"Blood pressure panel"}]},"subject":{"reference":"Patient/5210ccf4-ddf8-4692-aa39-b03d84e9a469"},"effectiveDateTime":"2025-12-31T10:05:00.000Z","component":[{"code":{"coding":[{"system":"http://loinc.org","code":"8480-6","display":"Systolic blood pressure"}]},"valueQuantity":{"value":160,"unit":"mmHg","system":"http://unitsofmeasure.org","code":"mm[Hg]"}},{"code":{"coding":[{"system":"http://loinc.org","code":"8462-4","display":"Diastolic blood pressure"}]},"valueQuantity":{"value":90,"unit":"mmHg","system":"http://unitsofmeasure.org","code":"mm[Hg]"}}]},"request":{"method":"PUT","url":"Observation/612a5146-efda-4e1b-912d-757f9a37b872"}},{"fullUrl":"https://madie.cms.gov/Coverage/1","resource":{"resourceType":"Coverage","id":"dd5fbe7f-4980-40c9-86a6-ce9b14dc3215","meta":{"profile":["http://hl7.org/fhir/us/qicore/StructureDefinition/qicore-coverage"]},"status":"active","beneficiary":{"reference":"Patient/5210ccf4-ddf8-4692-aa39-b03d84e9a469"},"payor":[{"reference":"Organization/42846cc3-1db0-4bf7-b9ff-8b81fa6e835d"}]},"request":{"method":"PUT","url":"Coverage/dd5fbe7f-4980-40c9-86a6-ce9b14dc3215"}},{"fullUrl":"https://madie.cms.gov/Organization/123456","resource":{"resourceType":"Organization","id":"42846cc3-1db0-4bf7-b9ff-8b81fa6e835d","meta":{"profile":["http://hl7.org/fhir/us/qicore/StructureDefinition/qicore-organization"]},"identifier":[{"use":"temp","system":"urn:oid:2.16.840.1.113883.4.4","value":"21-3259825"}],"active":true,"type":[{"coding":[{"system":"http://terminology.hl7.org/CodeSystem/organization-type","code":"pay","display":"Payer"}]}],"name":"Blue Cross Blue Shield of Texas","telecom":[{"system":"phone","value":"(+1) 972-766-6900"}],"address":[{"use":"billing","type":"postal","line":["P.O. Box 660044"],"city":"Dallas","state":"TX","postalCode":"75266-0044","country":"USA"}]},"request":{"method":"PUT","url":"Organization/42846cc3-1db0-4bf7-b9ff-8b81fa6e835d"}},{"fullUrl":"https://madie.cms.gov/MeasureReport/a2ef7767-3457-4ad0-978e-b791fdbfbb96","resource":{"resourceType":"MeasureReport","id":"a2ef7767-3457-4ad0-978e-b791fdbfbb96","meta":{"profile":["http://hl7.org/fhir/us/cqfmeasures/StructureDefinition/test-case-cqfm"]},"contained":[{"resourceType":"Parameters","id":"174fac06-5776-4c81-ae91-65d6c10a6fd6-parameters","parameter":[{"name":"subject","valueString":"5210ccf4-ddf8-4692-aa39-b03d84e9a469"}]}],"extension":[{"url":"http://hl7.org/fhir/us/cqfmeasures/StructureDefinition/cqfm-inputParameters","valueReference":{"reference":"#174fac06-5776-4c81-ae91-65d6c10a6fd6-parameters"}},{"url":"http://hl7.org/fhir/us/cqfmeasures/StructureDefinition/cqfm-testCaseDescription","valueMarkdown":"Enc 1/1  0800-0845 during MP, BP 140/90, follow up in 1 day, alcohol consumption for rehab/detox, \n2nd Enc 12/31 @1000-1045 BP 160/90, f/u in 2 -3 mo. EKG study refused, lifestyle changes recommended, medication."}],"modifierExtension":[{"url":"http://hl7.org/fhir/us/cqfmeasures/StructureDefinition/cqfm-isTestCase","valueBoolean":true}],"status":"complete","type":"individual","measure":"https://madie.cms.gov/Measure/PCSBPScreeningFollowUpFHIR","period":{"start":"2025-01-01","end":"2025-12-31"},"group":[{"population":[{"code":{"coding":[{"system":"http://terminology.hl7.org/CodeSystem/measure-population","code":"initial-population","display":"Initial Population"}]},"count":2},{"code":{"coding":[{"system":"http://terminology.hl7.org/CodeSystem/measure-population","code":"denominator","display":"Denominator"}]},"count":2},{"code":{"coding":[{"system":"http://terminology.hl7.org/CodeSystem/measure-population","code":"denominator-exclusion","display":"Denominator Exclusion"}]},"count":0},{"code":{"coding":[{"system":"http://terminology.hl7.org/CodeSystem/measure-population","code":"numerator","display":"Numerator"}]},"count":1},{"code":{"coding":[{"system":"http://terminology.hl7.org/CodeSystem/measure-population","code":"denominator-exception","display":"Denominator Exception"}]},"count":1}]}]},"request":{"method":"PUT","url":"MeasureReport/a2ef7767-3457-4ad0-978e-b791fdbfbb96"}}]}