{
  "resourceType": "Bundle",
  "id": "612e6ec602c62a011f2ef89e",
  "type": "transaction",
  "entry": [ {
    "fullUrl": "https://madie.cms.gov/Patient/3d1f8f54-c264-4641-acc1-62aa3dcaa42d",
    "resource": {
      "resourceType": "Patient",
      "id": "3d1f8f54-c264-4641-acc1-62aa3dcaa42d",
      "meta": {
        "profile": [ "http://hl7.org/fhir/us/qicore/StructureDefinition/qicore-patient" ]
      },
      "text": {
        "status": "generated",
        "div": "<div xmlns=\"http://www.w3.org/1999/xhtml\"><div class=\"hapiHeaderText\">CMOPerfDayB4Enc <b>DENEXFAIL </b></div><table class=\"hapiPropertyTable\"><tbody><tr><td>Identifier</td><td>988b4053b5293f0d618963ef8ca3e167</td></tr><tr><td>Date of birth</td><td><span>03 March 1974</span></td></tr></tbody></table></div>"
      },
      "extension": [ {
        "url": "http://hl7.org/fhir/us/core/StructureDefinition/us-core-race",
        "extension": [ {
          "url": "ombCategory",
          "valueCoding": {
            "system": "urn:oid:2.16.840.1.113883.6.238",
            "code": "1002-5",
            "display": "American Indian or Alaska Native",
            "userSelected": true
          }
        }, {
          "url": "text",
          "valueString": "American Indian or Alaska Native"
        } ]
      }, {
        "url": "http://hl7.org/fhir/us/core/StructureDefinition/us-core-ethnicity",
        "extension": [ {
          "url": "ombCategory",
          "valueCoding": {
            "system": "urn:oid:2.16.840.1.113883.6.238",
            "code": "2135-2",
            "display": "Hispanic or Latino",
            "userSelected": true
          }
        }, {
          "url": "text",
          "valueString": "Hispanic or Latino"
        } ]
      } ],
      "identifier": [ {
        "type": {
          "coding": [ {
            "system": "http://terminology.hl7.org/CodeSystem/v2-0203",
            "code": "MR"
          } ]
        },
        "system": "https://bonnie-fhir.healthit.gov/",
        "value": "612e6ec602c62a011f2ef89e"
      } ],
      "active": true,
      "name": [ {
        "use": "usual",
        "family": "DENEXFail",
        "given": [ "CMOPerfDayB4Enc" ]
      } ],
      "gender": "female",
      "birthDate": "1975-03-03"
    },
    "request": {
      "method": "PUT",
      "url": "Patient/3d1f8f54-c264-4641-acc1-62aa3dcaa42d"
    }
  }, {
    "fullUrl": "https://madie.cms.gov/Encounter/b68fb442-a970-46d4-b5b7-cb90ac890b5b",
    "resource": {
      "resourceType": "Encounter",
      "id": "b68fb442-a970-46d4-b5b7-cb90ac890b5b",
      "meta": {
        "profile": [ "http://hl7.org/fhir/us/qicore/StructureDefinition/qicore-encounter" ]
      },
      "status": "finished",
      "class": {
        "system": "http://terminology.hl7.org/CodeSystem/v3-ActCode",
        "code": "IMP",
        "display": "inpatient encounter"
      },
      "type": [ {
        "coding": [ {
          "system": "http://snomed.info/sct",
          "code": "8715000"
        } ]
      } ],
      "subject": {
        "reference": "Patient/3d1f8f54-c264-4641-acc1-62aa3dcaa42d"
      },
      "period": {
        "start": "2026-12-04T08:00:00+00:00",
        "end": "2026-12-30T08:15:00+00:00"
      },
      "length": {
        "value": 26.0,
        "unit": "days"
      },
      "location": [ {
        "location": {
          "reference": "Location/7f1a3e2d-7c3f-47a0-8f24-1df2fc24313e"
        },
        "period": {
          "start": "2026-12-06T08:00:00.000+00:00",
          "end": "2026-12-12T08:15:00.000+00:00"
        }
      } ]
    },
    "request": {
      "method": "PUT",
      "url": "Encounter/b68fb442-a970-46d4-b5b7-cb90ac890b5b"
    }
  }, {
    "fullUrl": "https://madie.cms.gov/Procedure/1719ab84-9ee2-4aa7-9580-ad1cfaefb693",
    "resource": {
      "resourceType": "Procedure",
      "id": "1719ab84-9ee2-4aa7-9580-ad1cfaefb693",
      "meta": {
        "profile": [ "http://hl7.org/fhir/us/qicore/StructureDefinition/qicore-procedure" ]
      },
      "extension": [ {
        "url": "http://hl7.org/fhir/us/qicore/StructureDefinition/qicore-recorded",
        "valueDateTime": "2013-12-04T09:35:00-04:00"
      } ],
      "status": "completed",
      "code": {
        "coding": [ {
          "system": "http://snomed.info/sct",
          "code": "133918004"
        } ]
      },
      "subject": {
        "reference": "Patient/3d1f8f54-c264-4641-acc1-62aa3dcaa42d"
      },
      "performedPeriod": {
        "start": "2026-12-03T10:00:00+00:00"
      }
    },
    "request": {
      "method": "PUT",
      "url": "Procedure/1719ab84-9ee2-4aa7-9580-ad1cfaefb693"
    }
  }, {
    "fullUrl": "https://madie.cms.gov/Coverage/9c93d033-8d44-4ba1-ae2b-785d74815884",
    "resource": {
      "resourceType": "Coverage",
      "id": "9c93d033-8d44-4ba1-ae2b-785d74815884",
      "status": "active",
      "beneficiary": {
        "reference": "Patient/3d1f8f54-c264-4641-acc1-62aa3dcaa42d"
      },
      "period": {
        "start": "1975-03-03T08:00:00+00:00"
      },
      "payor": [ {
        "reference": "Organization/8f5e49c3-cbb5-43fa-88e0-769fdb749142"
      } ]
    },
    "request": {
      "method": "PUT",
      "url": "Coverage/9c93d033-8d44-4ba1-ae2b-785d74815884"
    }
  }, {
    "fullUrl": "https://madie.cms.gov/Location/7f1a3e2d-7c3f-47a0-8f24-1df2fc24313e",
    "resource": {
      "resourceType": "Location",
      "id": "7f1a3e2d-7c3f-47a0-8f24-1df2fc24313e",
      "meta": {
        "profile": [ "http://hl7.org/fhir/us/qicore/StructureDefinition/qicore-location" ]
      },
      "identifier": [ {
        "use": "usual",
        "system": "http://exampleoflocation.com",
        "value": "B1-S.F2"
      } ],
      "name": "Medical Surgical East, first floor",
      "type": [ {
        "coding": [ {
          "system": "https://www.cdc.gov/nhsn/cdaportal/terminology/codesystem/hsloc.html",
          "code": "1025-6",
          "display": "Trauma Critical Care",
          "userSelected": true
        } ]
      } ]
    },
    "request": {
      "method": "PUT",
      "url": "Location/7f1a3e2d-7c3f-47a0-8f24-1df2fc24313e"
    }
  }, {
    "fullUrl": "https://madie.cms.gov/Organization/8f5e49c3-cbb5-43fa-88e0-769fdb749142",
    "resource": {
      "resourceType": "Organization",
      "id": "8f5e49c3-cbb5-43fa-88e0-769fdb749142",
      "meta": {
        "profile": [ "http://hl7.org/fhir/us/qicore/StructureDefinition/qicore-organization" ]
      },
      "identifier": [ {
        "use": "temp",
        "system": "urn:oid:2.16.840.1.113883.4.4",
        "value": "21-3259825"
      } ],
      "active": true,
      "type": [ {
        "coding": [ {
          "system": "http://terminology.hl7.org/CodeSystem/organization-type",
          "code": "pay",
          "display": "Payer"
        } ]
      } ],
      "name": "Blue Cross Blue Shield of Texas",
      "telecom": [ {
        "system": "phone",
        "value": "(+1) 972-766-6900"
      } ],
      "address": [ {
        "use": "billing",
        "type": "postal",
        "line": [ "P.O. Box 660044" ],
        "city": "Dallas",
        "state": "TX",
        "postalCode": "75266-0044",
        "country": "USA"
      } ]
    },
    "request": {
      "method": "PUT",
      "url": "Organization/8f5e49c3-cbb5-43fa-88e0-769fdb749142"
    }
  }, {
    "fullUrl": "https://madie.cms.gov/Practitioner/8b5656b4-e0c4-4f91-a793-f833f79bcd45",
    "resource": {
      "resourceType": "Practitioner",
      "id": "8b5656b4-e0c4-4f91-a793-f833f79bcd45",
      "identifier": [ {
        "system": "http://hl7.org/fhir/sid/us-npi",
        "value": "123456"
      } ],
      "name": [ {
        "family": "Evil",
        "prefix": [ "Dr" ]
      } ]
    },
    "request": {
      "method": "PUT",
      "url": "Practitioner/8b5656b4-e0c4-4f91-a793-f833f79bcd45"
    }
  }, {
    "fullUrl": "https://madie.cms.gov/MeasureReport/7c6d7496-c671-4c16-bace-e0c0657b649e",
    "resource": {
      "resourceType": "MeasureReport",
      "id": "7c6d7496-c671-4c16-bace-e0c0657b649e",
      "meta": {
        "profile": [ "http://hl7.org/fhir/us/cqfmeasures/StructureDefinition/test-case-cqfm" ]
      },
      "contained": [ {
        "resourceType": "Parameters",
        "id": "493b6ddc-2254-477e-a9d5-c03b7aed7230-parameters",
        "parameter": [ {
          "name": "subject",
          "valueString": "3d1f8f54-c264-4641-acc1-62aa3dcaa42d"
        } ]
      } ],
      "extension": [ {
        "url": "http://hl7.org/fhir/us/cqfmeasures/StructureDefinition/cqfm-inputParameters",
        "valueReference": {
          "reference": "#493b6ddc-2254-477e-a9d5-c03b7aed7230-parameters"
        }
      }, {
        "url": "http://hl7.org/fhir/us/cqfmeasures/StructureDefinition/cqfm-testCaseDescription",
        "valueMarkdown": "comfort measures starts before IP encounter\n"
      } ],
      "modifierExtension": [ {
        "url": "http://hl7.org/fhir/us/cqfmeasures/StructureDefinition/cqfm-isTestCase",
        "valueBoolean": true
      } ],
      "status": "complete",
      "type": "individual",
      "measure": "https://madie.cms.gov/Measure/CMS190VTEProphylaxisICUFHIR",
      "period": {
        "start": "2026-01-01",
        "end": "2026-12-31"
      },
      "group": [ {
        "population": [ {
          "code": {
            "coding": [ {
              "system": "http://terminology.hl7.org/CodeSystem/measure-population",
              "code": "initial-population",
              "display": "Initial Population"
            } ]
          },
          "count": 1
        }, {
          "code": {
            "coding": [ {
              "system": "http://terminology.hl7.org/CodeSystem/measure-population",
              "code": "denominator",
              "display": "Denominator"
            } ]
          },
          "count": 1
        }, {
          "code": {
            "coding": [ {
              "system": "http://terminology.hl7.org/CodeSystem/measure-population",
              "code": "denominator-exclusion",
              "display": "Denominator Exclusion"
            } ]
          },
          "count": 0
        }, {
          "code": {
            "coding": [ {
              "system": "http://terminology.hl7.org/CodeSystem/measure-population",
              "code": "numerator",
              "display": "Numerator"
            } ]
          },
          "count": 0
        }, {
          "code": {
            "coding": [ {
              "system": "http://terminology.hl7.org/CodeSystem/measure-population",
              "code": "denominator-exception",
              "display": "Denominator Exception"
            } ]
          },
          "count": 0
        } ]
      } ],
      "evaluatedResource": [ {
        "reference": "Patient/3d1f8f54-c264-4641-acc1-62aa3dcaa42d"
      }, {
        "reference": "Encounter/b68fb442-a970-46d4-b5b7-cb90ac890b5b"
      }, {
        "reference": "Procedure/1719ab84-9ee2-4aa7-9580-ad1cfaefb693"
      }, {
        "reference": "Coverage/9c93d033-8d44-4ba1-ae2b-785d74815884"
      }, {
        "reference": "Location/7f1a3e2d-7c3f-47a0-8f24-1df2fc24313e"
      }, {
        "reference": "Organization/8f5e49c3-cbb5-43fa-88e0-769fdb749142"
      }, {
        "reference": "Practitioner/8b5656b4-e0c4-4f91-a793-f833f79bcd45"
      } ]
    },
    "request": {
      "method": "PUT",
      "url": "MeasureReport/7c6d7496-c671-4c16-bace-e0c0657b649e"
    }
  } ]
}