{
  "resourceType": "Bundle",
  "id": "63487c2f0968f801225401aa",
  "type": "transaction",
  "entry": [ {
    "fullUrl": "https://madie.cms.gov/Patient/337997e0-68a7-47e2-a9b8-f9846bf23baf",
    "resource": {
      "resourceType": "Patient",
      "id": "337997e0-68a7-47e2-a9b8-f9846bf23baf",
      "meta": {
        "profile": [ "http://hl7.org/fhir/us/qicore/StructureDefinition/qicore-patient" ]
      },
      "text": {
        "status": "generated",
        "div": "<div xmlns=\"http://www.w3.org/1999/xhtml\"><div class=\"hapiHeaderText\">AssessTimeOfDeliveryResultIsBad <b>DENFAIL </b></div><table class=\"hapiPropertyTable\"><tbody><tr><td>Identifier</td><td>2b1f0141ffe85efd85bb0ba18ddf833ac147ccc7ffd86f1de2a9b7f23de6478b</td></tr><tr><td>Date of birth</td><td><span>14 February 1985</span></td></tr></tbody></table></div>"
      },
      "extension": [ {
        "url": "http://hl7.org/fhir/us/core/StructureDefinition/us-core-race",
        "extension": [ {
          "url": "ombCategory",
          "valueCoding": {
            "system": "urn:oid:2.16.840.1.113883.6.238",
            "code": "1002-5",
            "display": "American Indian or Alaska Native",
            "userSelected": true
          }
        }, {
          "url": "text",
          "valueString": "American Indian or Alaska Native"
        } ]
      }, {
        "url": "http://hl7.org/fhir/us/core/StructureDefinition/us-core-ethnicity",
        "extension": [ {
          "url": "ombCategory",
          "valueCoding": {
            "system": "urn:oid:2.16.840.1.113883.6.238",
            "code": "2135-2",
            "display": "Hispanic or Latino",
            "userSelected": true
          }
        }, {
          "url": "text",
          "valueString": "Hispanic or Latino"
        } ]
      } ],
      "identifier": [ {
        "type": {
          "coding": [ {
            "system": "http://terminology.hl7.org/CodeSystem/v2-0203",
            "code": "MR"
          } ]
        },
        "system": "https://bonnie-fhir.healthit.gov/",
        "value": "63487c2f0968f801225401aa"
      } ],
      "active": true,
      "name": [ {
        "use": "usual",
        "family": "DENFail",
        "given": [ "AssessTimeOfDeliveryResultIsBad " ]
      } ],
      "gender": "female",
      "birthDate": "1998-02-14"
    },
    "request": {
      "method": "PUT",
      "url": "Patient/337997e0-68a7-47e2-a9b8-f9846bf23baf"
    }
  }, {
    "fullUrl": "https://madie.cms.gov/Observation/aff7d70c-636e-4f56-9638-97604929fcd5",
    "resource": {
      "resourceType": "Observation",
      "id": "aff7d70c-636e-4f56-9638-97604929fcd5",
      "meta": {
        "profile": [ "http://hl7.org/fhir/us/qicore/StructureDefinition/qicore-observation" ]
      },
      "status": "final",
      "category": [ {
        "coding": [ {
          "system": "http://terminology.hl7.org/CodeSystem/observation-category",
          "code": "exam",
          "display": "exam",
          "userSelected": true
        } ]
      } ],
      "code": {
        "coding": [ {
          "system": "http://loinc.org",
          "code": "11884-4"
        } ]
      },
      "subject": {
        "reference": "Patient/337997e0-68a7-47e2-a9b8-f9846bf23baf"
      },
      "effectiveDateTime": "2026-06-08T07:15:00.000+00:00",
      "valueQuantity": {
        "value": 38,
        "system": "http://unitsofmeasure.org",
        "code": "wk"
      }
    },
    "request": {
      "method": "PUT",
      "url": "Observation/aff7d70c-636e-4f56-9638-97604929fcd5"
    }
  }, {
    "fullUrl": "https://madie.cms.gov/Observation/389db8a9-0b17-4c47-b928-60c255609b6e",
    "resource": {
      "resourceType": "Observation",
      "id": "389db8a9-0b17-4c47-b928-60c255609b6e",
      "meta": {
        "profile": [ "http://hl7.org/fhir/us/qicore/StructureDefinition/qicore-observation" ]
      },
      "status": "final",
      "category": [ {
        "coding": [ {
          "system": "http://terminology.hl7.org/CodeSystem/observation-category",
          "code": "exam",
          "display": "exam",
          "userSelected": true
        } ]
      } ],
      "code": {
        "coding": [ {
          "system": "http://loinc.org",
          "code": "11996-6"
        } ]
      },
      "subject": {
        "reference": "Patient/337997e0-68a7-47e2-a9b8-f9846bf23baf"
      },
      "effectiveDateTime": "2026-06-08T07:59:00.000+00:00",
      "valueInteger": 1
    },
    "request": {
      "method": "PUT",
      "url": "Observation/389db8a9-0b17-4c47-b928-60c255609b6e"
    }
  }, {
    "fullUrl": "https://madie.cms.gov/Observation/ddd49c2d-6150-4ece-96c4-b9492d352266",
    "resource": {
      "resourceType": "Observation",
      "id": "ddd49c2d-6150-4ece-96c4-b9492d352266",
      "meta": {
        "profile": [ "http://hl7.org/fhir/us/qicore/StructureDefinition/qicore-observation" ]
      },
      "status": "final",
      "category": [ {
        "coding": [ {
          "system": "http://terminology.hl7.org/CodeSystem/observation-category",
          "code": "exam",
          "display": "exam",
          "userSelected": true
        } ]
      } ],
      "code": {
        "coding": [ {
          "system": "http://loinc.org",
          "code": "93857-1"
        } ]
      },
      "subject": {
        "reference": "Patient/337997e0-68a7-47e2-a9b8-f9846bf23baf"
      },
      "effectiveDateTime": "2026-06-08T08:00:00.000+00:00",
      "valueDateTime": "1901-04-13T08:00:00+00:00"
    },
    "request": {
      "method": "PUT",
      "url": "Observation/ddd49c2d-6150-4ece-96c4-b9492d352266"
    }
  }, {
    "fullUrl": "https://madie.cms.gov/Encounter/dd2cc827-c21d-4b2a-8118-9a0900d3405f",
    "resource": {
      "resourceType": "Encounter",
      "id": "dd2cc827-c21d-4b2a-8118-9a0900d3405f",
      "meta": {
        "profile": [ "http://hl7.org/fhir/us/qicore/StructureDefinition/qicore-encounter" ]
      },
      "status": "finished",
      "class": {
        "system": "http://terminology.hl7.org/CodeSystem/v3-ActCode",
        "code": "IMP",
        "display": "inpatient encounter"
      },
      "type": [ {
        "coding": [ {
          "system": "http://snomed.info/sct",
          "code": "183452005"
        } ]
      } ],
      "subject": {
        "reference": "Patient/337997e0-68a7-47e2-a9b8-f9846bf23baf"
      },
      "period": {
        "start": "2026-06-08T08:00:00.000Z",
        "end": "2026-06-10T08:15:00.000Z"
      },
      "length": {
        "value": 2,
        "unit": "days"
      },
      "diagnosis": [ {
        "condition": {
          "reference": "Condition/delivery-of-singleton-f83c"
        },
        "use": {
          "coding": [ {
            "system": "http://snomed.info/sct",
            "code": "169826009",
            "display": "Delivery of Singleton"
          } ]
        }
      }, {
        "condition": {
          "reference": "Condition/05e00652-8e04-40d4-bc44-1ea984cc22ef"
        }
      } ]
    },
    "request": {
      "method": "PUT",
      "url": "Encounter/dd2cc827-c21d-4b2a-8118-9a0900d3405f"
    }
  }, {
    "fullUrl": "https://madie.cms.gov/Procedure/e41fae6e-3f9b-41fb-b2c6-0b90f541abd8",
    "resource": {
      "resourceType": "Procedure",
      "id": "e41fae6e-3f9b-41fb-b2c6-0b90f541abd8",
      "meta": {
        "profile": [ "http://hl7.org/fhir/us/qicore/StructureDefinition/qicore-procedure" ]
      },
      "extension": [ {
        "url": "http://hl7.org/fhir/us/qicore/StructureDefinition/qicore-recorded",
        "valueDateTime": "2014-04-05T09:35:00-04:00"
      } ],
      "status": "completed",
      "code": {
        "coding": [ {
          "system": "http://www.cms.gov/Medicare/Coding/ICD10",
          "code": "10D00Z0"
        }, {
          "system": "http://www.icd10data.com/icd10pcs",
          "code": "10D00Z0",
          "userSelected": true
        } ]
      },
      "subject": {
        "reference": "Patient/337997e0-68a7-47e2-a9b8-f9846bf23baf"
      },
      "performedPeriod": {
        "start": "2026-06-08T08:00:00.000Z",
        "end": "2026-06-08T09:15:00.000Z"
      }
    },
    "request": {
      "method": "PUT",
      "url": "Procedure/e41fae6e-3f9b-41fb-b2c6-0b90f541abd8"
    }
  }, {
    "fullUrl": "https://madie.cms.gov/Condition/05e00652-8e04-40d4-bc44-1ea984cc22ef",
    "resource": {
      "resourceType": "Condition",
      "id": "05e00652-8e04-40d4-bc44-1ea984cc22ef",
      "meta": {
        "profile": [ "http://hl7.org/fhir/us/qicore/StructureDefinition/qicore-condition" ]
      },
      "category": [ {
        "coding": [ {
          "system": "http://terminology.hl7.org/CodeSystem/condition-category",
          "code": "encounter-diagnosis",
          "display": "Encounter Diagnosis"
        } ]
      } ],
      "code": {
        "coding": [ {
          "system": "http://snomed.info/sct",
          "version": "2022-09",
          "code": "169826009",
          "display": "Single live birth (finding)",
          "userSelected": true
        } ]
      },
      "subject": {
        "reference": "Patient/337997e0-68a7-47e2-a9b8-f9846bf23baf"
      },
      "recordedDate": "2026-10-21T08:00:00.000+00:00"
    },
    "request": {
      "method": "PUT",
      "url": "Condition/05e00652-8e04-40d4-bc44-1ea984cc22ef"
    }
  }, {
    "fullUrl": "https://madie.cms.gov/Coverage/f55855f3-13d6-4ede-885f-1d1bf9bac58e",
    "resource": {
      "resourceType": "Coverage",
      "id": "f55855f3-13d6-4ede-885f-1d1bf9bac58e",
      "meta": {
        "profile": [ "http://hl7.org/fhir/us/qicore/StructureDefinition/qicore-coverage" ]
      },
      "status": "active",
      "beneficiary": {
        "reference": "Patient/337997e0-68a7-47e2-a9b8-f9846bf23baf"
      },
      "payor": [ {
        "reference": "Organization/94b09e68-5e16-41e7-988d-19b62201e8c9"
      } ]
    },
    "request": {
      "method": "PUT",
      "url": "Coverage/f55855f3-13d6-4ede-885f-1d1bf9bac58e"
    }
  }, {
    "fullUrl": "https://madie.cms.gov/Organization/94b09e68-5e16-41e7-988d-19b62201e8c9",
    "resource": {
      "resourceType": "Organization",
      "id": "94b09e68-5e16-41e7-988d-19b62201e8c9",
      "meta": {
        "profile": [ "http://hl7.org/fhir/us/qicore/StructureDefinition/qicore-organization" ]
      },
      "identifier": [ {
        "use": "temp",
        "system": "urn:oid:2.16.840.1.113883.4.4",
        "value": "21-3259825"
      } ],
      "active": true,
      "type": [ {
        "coding": [ {
          "system": "http://terminology.hl7.org/CodeSystem/organization-type",
          "code": "pay",
          "display": "Payer"
        } ]
      } ],
      "name": "Blue Cross Blue Shield of Texas",
      "telecom": [ {
        "system": "phone",
        "value": "(+1) 972-766-6900"
      } ],
      "address": [ {
        "use": "billing",
        "type": "postal",
        "line": [ "P.O. Box 660044" ],
        "city": "Dallas",
        "state": "TX",
        "postalCode": "75266-0044",
        "country": "USA"
      } ]
    },
    "request": {
      "method": "PUT",
      "url": "Organization/94b09e68-5e16-41e7-988d-19b62201e8c9"
    }
  }, {
    "fullUrl": "https://madie.cms.gov/Practitioner/a365bd79-95c6-4da1-948d-6722578647bd",
    "resource": {
      "resourceType": "Practitioner",
      "id": "a365bd79-95c6-4da1-948d-6722578647bd",
      "identifier": [ {
        "system": "http://hl7.org/fhir/sid/us-npi",
        "value": "123456"
      } ],
      "name": [ {
        "family": "Evil",
        "prefix": [ "Dr" ]
      } ]
    },
    "request": {
      "method": "PUT",
      "url": "Practitioner/a365bd79-95c6-4da1-948d-6722578647bd"
    }
  }, {
    "fullUrl": "https://madie.cms.gov/MeasureReport/e66dc024-32e2-49c3-a23d-11b01def79c4",
    "resource": {
      "resourceType": "MeasureReport",
      "id": "e66dc024-32e2-49c3-a23d-11b01def79c4",
      "meta": {
        "profile": [ "http://hl7.org/fhir/us/cqfmeasures/StructureDefinition/test-case-cqfm" ]
      },
      "contained": [ {
        "resourceType": "Parameters",
        "id": "517ab87e-dd8a-468b-b092-fb039f728bf8-parameters",
        "parameter": [ {
          "name": "subject",
          "valueString": "337997e0-68a7-47e2-a9b8-f9846bf23baf"
        } ]
      } ],
      "extension": [ {
        "url": "http://hl7.org/fhir/us/cqfmeasures/StructureDefinition/cqfm-inputParameters",
        "valueReference": {
          "reference": "#517ab87e-dd8a-468b-b092-fb039f728bf8-parameters"
        }
      }, {
        "url": "http://hl7.org/fhir/us/cqfmeasures/StructureDefinition/cqfm-testCaseDescription",
        "valueMarkdown": "Passes: IP, Fails DENOM Pt is 27 years of age,  encounter dx of delivery of singleton, gravida, EGA( >37 ) and @ 38 weeks, AsseDelivTm Result has date out of range, lower than 1900\n"
      } ],
      "modifierExtension": [ {
        "url": "http://hl7.org/fhir/us/cqfmeasures/StructureDefinition/cqfm-isTestCase",
        "valueBoolean": true
      } ],
      "status": "complete",
      "type": "individual",
      "measure": "https://madie.cms.gov/Measure/CMS334FHIRPCCesareanBirth",
      "period": {
        "start": "2026-01-01",
        "end": "2026-12-31"
      },
      "group": [ {
        "population": [ {
          "code": {
            "coding": [ {
              "system": "http://terminology.hl7.org/CodeSystem/measure-population",
              "code": "initial-population",
              "display": "Initial Population"
            } ]
          },
          "count": 1
        }, {
          "code": {
            "coding": [ {
              "system": "http://terminology.hl7.org/CodeSystem/measure-population",
              "code": "denominator",
              "display": "Denominator"
            } ]
          },
          "count": 0
        }, {
          "code": {
            "coding": [ {
              "system": "http://terminology.hl7.org/CodeSystem/measure-population",
              "code": "denominator-exclusion",
              "display": "Denominator Exclusion"
            } ]
          },
          "count": 0
        }, {
          "code": {
            "coding": [ {
              "system": "http://terminology.hl7.org/CodeSystem/measure-population",
              "code": "numerator",
              "display": "Numerator"
            } ]
          },
          "count": 0
        } ]
      } ],
      "evaluatedResource": [ {
        "reference": "Patient/337997e0-68a7-47e2-a9b8-f9846bf23baf"
      }, {
        "reference": "Observation/aff7d70c-636e-4f56-9638-97604929fcd5"
      }, {
        "reference": "Observation/389db8a9-0b17-4c47-b928-60c255609b6e"
      }, {
        "reference": "Observation/ddd49c2d-6150-4ece-96c4-b9492d352266"
      }, {
        "reference": "Encounter/dd2cc827-c21d-4b2a-8118-9a0900d3405f"
      }, {
        "reference": "Procedure/e41fae6e-3f9b-41fb-b2c6-0b90f541abd8"
      }, {
        "reference": "Condition/05e00652-8e04-40d4-bc44-1ea984cc22ef"
      }, {
        "reference": "Coverage/f55855f3-13d6-4ede-885f-1d1bf9bac58e"
      }, {
        "reference": "Organization/94b09e68-5e16-41e7-988d-19b62201e8c9"
      }, {
        "reference": "Practitioner/a365bd79-95c6-4da1-948d-6722578647bd"
      } ]
    },
    "request": {
      "method": "PUT",
      "url": "MeasureReport/e66dc024-32e2-49c3-a23d-11b01def79c4"
    }
  } ]
}