{
  "resourceType": "Bundle",
  "id": "63487c2d0968f80122540146",
  "type": "transaction",
  "entry": [ {
    "fullUrl": "https://madie.cms.gov/Patient/ee486b94-1eb2-4914-9f1d-631b4057a3e4",
    "resource": {
      "resourceType": "Patient",
      "id": "ee486b94-1eb2-4914-9f1d-631b4057a3e4",
      "meta": {
        "profile": [ "http://hl7.org/fhir/us/qicore/StructureDefinition/qicore-patient" ]
      },
      "text": {
        "status": "generated",
        "div": "<div xmlns=\"http://www.w3.org/1999/xhtml\"><div class=\"hapiHeaderText\">GravidaResultNull <b>DENFAIL </b></div><table class=\"hapiPropertyTable\"><tbody><tr><td>Identifier</td><td>bd5809d63a645d5cb579233f12fec6c8e8831d73a2d817f7f0d8c7114f516c32</td></tr><tr><td>Date of birth</td><td><span>14 February 1985</span></td></tr></tbody></table></div>"
      },
      "extension": [ {
        "url": "http://hl7.org/fhir/us/core/StructureDefinition/us-core-race",
        "extension": [ {
          "url": "ombCategory",
          "valueCoding": {
            "system": "urn:oid:2.16.840.1.113883.6.238",
            "code": "1002-5",
            "display": "American Indian or Alaska Native",
            "userSelected": true
          }
        }, {
          "url": "text",
          "valueString": "American Indian or Alaska Native"
        } ]
      }, {
        "url": "http://hl7.org/fhir/us/core/StructureDefinition/us-core-ethnicity",
        "extension": [ {
          "url": "ombCategory",
          "valueCoding": {
            "system": "urn:oid:2.16.840.1.113883.6.238",
            "code": "2135-2",
            "display": "Hispanic or Latino",
            "userSelected": true
          }
        }, {
          "url": "text",
          "valueString": "Hispanic or Latino"
        } ]
      } ],
      "identifier": [ {
        "type": {
          "coding": [ {
            "system": "http://terminology.hl7.org/CodeSystem/v2-0203",
            "code": "MR"
          } ]
        },
        "system": "https://bonnie-fhir.healthit.gov/",
        "value": "63487c2d0968f80122540146"
      } ],
      "active": true,
      "name": [ {
        "use": "usual",
        "family": "DENFail",
        "given": [ "GravidaResultNull" ]
      } ],
      "gender": "female",
      "birthDate": "1998-02-14"
    },
    "request": {
      "method": "PUT",
      "url": "Patient/ee486b94-1eb2-4914-9f1d-631b4057a3e4"
    }
  }, {
    "fullUrl": "https://madie.cms.gov/Observation/9e61c244-0797-4639-a77e-a77cd36c6cc4",
    "resource": {
      "resourceType": "Observation",
      "id": "9e61c244-0797-4639-a77e-a77cd36c6cc4",
      "meta": {
        "profile": [ "http://hl7.org/fhir/us/qicore/StructureDefinition/qicore-observation" ]
      },
      "status": "final",
      "category": [ {
        "coding": [ {
          "system": "http://terminology.hl7.org/CodeSystem/observation-category",
          "code": "exam",
          "display": "exam",
          "userSelected": true
        } ]
      } ],
      "code": {
        "coding": [ {
          "system": "http://loinc.org",
          "code": "11996-6"
        } ]
      },
      "subject": {
        "reference": "Patient/ee486b94-1eb2-4914-9f1d-631b4057a3e4"
      },
      "effectiveDateTime": "2026-03-08T09:00:00.000+00:00"
    },
    "request": {
      "method": "PUT",
      "url": "Observation/9e61c244-0797-4639-a77e-a77cd36c6cc4"
    }
  }, {
    "fullUrl": "https://madie.cms.gov/Observation/f26d8ab4-fea0-4558-bcd6-f2a1b17ebe20",
    "resource": {
      "resourceType": "Observation",
      "id": "f26d8ab4-fea0-4558-bcd6-f2a1b17ebe20",
      "meta": {
        "profile": [ "http://hl7.org/fhir/us/qicore/StructureDefinition/qicore-observation" ]
      },
      "status": "final",
      "category": [ {
        "coding": [ {
          "system": "http://terminology.hl7.org/CodeSystem/observation-category",
          "code": "exam",
          "display": "exam",
          "userSelected": true
        } ]
      } ],
      "code": {
        "coding": [ {
          "system": "http://loinc.org",
          "code": "11884-4"
        } ]
      },
      "subject": {
        "reference": "Patient/ee486b94-1eb2-4914-9f1d-631b4057a3e4"
      },
      "effectiveDateTime": "2026-06-08T20:00:00.000+00:00",
      "valueQuantity": {
        "value": 37,
        "system": "http://unitsofmeasure.org",
        "code": "wk"
      }
    },
    "request": {
      "method": "PUT",
      "url": "Observation/f26d8ab4-fea0-4558-bcd6-f2a1b17ebe20"
    }
  }, {
    "fullUrl": "https://madie.cms.gov/Observation/73886d9f-f2b0-48de-bd1e-12c37fa5f94e",
    "resource": {
      "resourceType": "Observation",
      "id": "73886d9f-f2b0-48de-bd1e-12c37fa5f94e",
      "meta": {
        "profile": [ "http://hl7.org/fhir/us/qicore/StructureDefinition/qicore-observation" ]
      },
      "status": "final",
      "category": [ {
        "coding": [ {
          "system": "http://terminology.hl7.org/CodeSystem/observation-category",
          "code": "exam",
          "display": "exam",
          "userSelected": true
        } ]
      } ],
      "code": {
        "coding": [ {
          "system": "http://loinc.org",
          "code": "93857-1"
        } ]
      },
      "subject": {
        "reference": "Patient/ee486b94-1eb2-4914-9f1d-631b4057a3e4"
      },
      "effectiveDateTime": "2026-06-08T20:00:00.000+00:00",
      "valueDateTime": "2026-06-08T20:00:00+00:00"
    },
    "request": {
      "method": "PUT",
      "url": "Observation/73886d9f-f2b0-48de-bd1e-12c37fa5f94e"
    }
  }, {
    "fullUrl": "https://madie.cms.gov/Encounter/1571ebc9-d173-42e5-bf50-01eb2ca06258",
    "resource": {
      "resourceType": "Encounter",
      "id": "1571ebc9-d173-42e5-bf50-01eb2ca06258",
      "meta": {
        "profile": [ "http://hl7.org/fhir/us/qicore/StructureDefinition/qicore-encounter" ]
      },
      "status": "finished",
      "class": {
        "system": "http://terminology.hl7.org/CodeSystem/v3-ActCode",
        "code": "IMP",
        "display": "inpatient encounter"
      },
      "type": [ {
        "coding": [ {
          "system": "http://snomed.info/sct",
          "code": "8715000"
        } ]
      } ],
      "subject": {
        "reference": "Patient/ee486b94-1eb2-4914-9f1d-631b4057a3e4"
      },
      "period": {
        "start": "2026-06-08T08:00:00.000Z",
        "end": "2026-06-10T08:15:00.000Z"
      },
      "length": {
        "value": 2,
        "unit": "days"
      },
      "diagnosis": [ {
        "condition": {
          "reference": "Condition/delivery-of-singleton-f83c"
        },
        "use": {
          "coding": [ {
            "system": "http://snomed.info/sct",
            "code": "169826009",
            "display": "Delivery of Singleton"
          } ]
        }
      }, {
        "condition": {
          "reference": "Condition/33254ca4-5709-40c7-81f2-c39e59c2df32"
        }
      } ]
    },
    "request": {
      "method": "PUT",
      "url": "Encounter/1571ebc9-d173-42e5-bf50-01eb2ca06258"
    }
  }, {
    "fullUrl": "https://madie.cms.gov/Procedure/965ad79b-44fa-4a85-b1d3-e1726851d63e",
    "resource": {
      "resourceType": "Procedure",
      "id": "965ad79b-44fa-4a85-b1d3-e1726851d63e",
      "meta": {
        "profile": [ "http://hl7.org/fhir/us/qicore/StructureDefinition/qicore-procedure" ]
      },
      "extension": [ {
        "url": "http://hl7.org/fhir/us/qicore/StructureDefinition/qicore-recorded",
        "valueDateTime": "2014-04-05T09:35:00-04:00"
      } ],
      "status": "completed",
      "code": {
        "coding": [ {
          "system": "http://www.cms.gov/Medicare/Coding/ICD10",
          "code": "10D00Z0"
        }, {
          "system": "http://snomed.info/sct",
          "code": "4504004"
        }, {
          "system": "http://www.icd10data.com/icd10pcs",
          "code": "10D00Z0",
          "userSelected": true
        } ]
      },
      "subject": {
        "reference": "Patient/ee486b94-1eb2-4914-9f1d-631b4057a3e4"
      },
      "performedPeriod": {
        "start": "2026-06-08T20:00:00.000Z",
        "end": "2026-06-08T20:15:00.000Z"
      }
    },
    "request": {
      "method": "PUT",
      "url": "Procedure/965ad79b-44fa-4a85-b1d3-e1726851d63e"
    }
  }, {
    "fullUrl": "https://madie.cms.gov/Condition/33254ca4-5709-40c7-81f2-c39e59c2df32",
    "resource": {
      "resourceType": "Condition",
      "id": "33254ca4-5709-40c7-81f2-c39e59c2df32",
      "meta": {
        "profile": [ "http://hl7.org/fhir/us/qicore/StructureDefinition/qicore-condition" ]
      },
      "category": [ {
        "coding": [ {
          "system": "http://terminology.hl7.org/CodeSystem/condition-category",
          "code": "encounter-diagnosis",
          "display": "Encounter Diagnosis"
        } ]
      } ],
      "code": {
        "coding": [ {
          "system": "http://snomed.info/sct",
          "version": "2022-09",
          "code": "169826009",
          "display": "Single live birth (finding)",
          "userSelected": true
        } ]
      },
      "subject": {
        "reference": "Patient/ee486b94-1eb2-4914-9f1d-631b4057a3e4"
      },
      "recordedDate": "2026-10-21T08:00:00.000+00:00"
    },
    "request": {
      "method": "PUT",
      "url": "Condition/33254ca4-5709-40c7-81f2-c39e59c2df32"
    }
  }, {
    "fullUrl": "https://madie.cms.gov/Coverage/ad711b05-f24b-4a12-a0cf-022ee2dd754e",
    "resource": {
      "resourceType": "Coverage",
      "id": "ad711b05-f24b-4a12-a0cf-022ee2dd754e",
      "meta": {
        "profile": [ "http://hl7.org/fhir/us/qicore/StructureDefinition/qicore-coverage" ]
      },
      "status": "active",
      "beneficiary": {
        "reference": "Patient/ee486b94-1eb2-4914-9f1d-631b4057a3e4"
      },
      "payor": [ {
        "reference": "Organization/06ffcc44-d8f0-4312-ba85-b6056caa0b76"
      } ]
    },
    "request": {
      "method": "PUT",
      "url": "Coverage/ad711b05-f24b-4a12-a0cf-022ee2dd754e"
    }
  }, {
    "fullUrl": "https://madie.cms.gov/Organization/06ffcc44-d8f0-4312-ba85-b6056caa0b76",
    "resource": {
      "resourceType": "Organization",
      "id": "06ffcc44-d8f0-4312-ba85-b6056caa0b76",
      "meta": {
        "profile": [ "http://hl7.org/fhir/us/qicore/StructureDefinition/qicore-organization" ]
      },
      "identifier": [ {
        "use": "temp",
        "system": "urn:oid:2.16.840.1.113883.4.4",
        "value": "21-3259825"
      } ],
      "active": true,
      "type": [ {
        "coding": [ {
          "system": "http://terminology.hl7.org/CodeSystem/organization-type",
          "code": "pay",
          "display": "Payer"
        } ]
      } ],
      "name": "Blue Cross Blue Shield of Texas",
      "telecom": [ {
        "system": "phone",
        "value": "(+1) 972-766-6900"
      } ],
      "address": [ {
        "use": "billing",
        "type": "postal",
        "line": [ "P.O. Box 660044" ],
        "city": "Dallas",
        "state": "TX",
        "postalCode": "75266-0044",
        "country": "USA"
      } ]
    },
    "request": {
      "method": "PUT",
      "url": "Organization/06ffcc44-d8f0-4312-ba85-b6056caa0b76"
    }
  }, {
    "fullUrl": "https://madie.cms.gov/Practitioner/cfec59b5-29f4-4196-8fa2-5ff4c2b9d814",
    "resource": {
      "resourceType": "Practitioner",
      "id": "cfec59b5-29f4-4196-8fa2-5ff4c2b9d814",
      "identifier": [ {
        "system": "http://hl7.org/fhir/sid/us-npi",
        "value": "123456"
      } ],
      "name": [ {
        "family": "Evil",
        "prefix": [ "Dr" ]
      } ]
    },
    "request": {
      "method": "PUT",
      "url": "Practitioner/cfec59b5-29f4-4196-8fa2-5ff4c2b9d814"
    }
  }, {
    "fullUrl": "https://madie.cms.gov/MeasureReport/ec91b43f-c473-492a-b3f5-9b015089b00e",
    "resource": {
      "resourceType": "MeasureReport",
      "id": "ec91b43f-c473-492a-b3f5-9b015089b00e",
      "meta": {
        "profile": [ "http://hl7.org/fhir/us/cqfmeasures/StructureDefinition/test-case-cqfm" ]
      },
      "contained": [ {
        "resourceType": "Parameters",
        "id": "8a2f8586-b17c-4792-90a9-bc2040bdf2af-parameters",
        "parameter": [ {
          "name": "subject",
          "valueString": "ee486b94-1eb2-4914-9f1d-631b4057a3e4"
        } ]
      } ],
      "extension": [ {
        "url": "http://hl7.org/fhir/us/cqfmeasures/StructureDefinition/cqfm-inputParameters",
        "valueReference": {
          "reference": "#8a2f8586-b17c-4792-90a9-bc2040bdf2af-parameters"
        }
      }, {
        "url": "http://hl7.org/fhir/us/cqfmeasures/StructureDefinition/cqfm-testCaseDescription",
        "valueMarkdown": "Passes IP,  Gravida result is missing\n"
      } ],
      "modifierExtension": [ {
        "url": "http://hl7.org/fhir/us/cqfmeasures/StructureDefinition/cqfm-isTestCase",
        "valueBoolean": true
      } ],
      "status": "complete",
      "type": "individual",
      "measure": "https://madie.cms.gov/Measure/CMS334FHIRPCCesareanBirth",
      "period": {
        "start": "2026-01-01",
        "end": "2026-12-31"
      },
      "group": [ {
        "population": [ {
          "code": {
            "coding": [ {
              "system": "http://terminology.hl7.org/CodeSystem/measure-population",
              "code": "initial-population",
              "display": "Initial Population"
            } ]
          },
          "count": 1
        }, {
          "code": {
            "coding": [ {
              "system": "http://terminology.hl7.org/CodeSystem/measure-population",
              "code": "denominator",
              "display": "Denominator"
            } ]
          },
          "count": 0
        }, {
          "code": {
            "coding": [ {
              "system": "http://terminology.hl7.org/CodeSystem/measure-population",
              "code": "denominator-exclusion",
              "display": "Denominator Exclusion"
            } ]
          },
          "count": 0
        }, {
          "code": {
            "coding": [ {
              "system": "http://terminology.hl7.org/CodeSystem/measure-population",
              "code": "numerator",
              "display": "Numerator"
            } ]
          },
          "count": 0
        } ]
      } ],
      "evaluatedResource": [ {
        "reference": "Patient/ee486b94-1eb2-4914-9f1d-631b4057a3e4"
      }, {
        "reference": "Observation/9e61c244-0797-4639-a77e-a77cd36c6cc4"
      }, {
        "reference": "Observation/f26d8ab4-fea0-4558-bcd6-f2a1b17ebe20"
      }, {
        "reference": "Observation/73886d9f-f2b0-48de-bd1e-12c37fa5f94e"
      }, {
        "reference": "Encounter/1571ebc9-d173-42e5-bf50-01eb2ca06258"
      }, {
        "reference": "Procedure/965ad79b-44fa-4a85-b1d3-e1726851d63e"
      }, {
        "reference": "Condition/33254ca4-5709-40c7-81f2-c39e59c2df32"
      }, {
        "reference": "Coverage/ad711b05-f24b-4a12-a0cf-022ee2dd754e"
      }, {
        "reference": "Organization/06ffcc44-d8f0-4312-ba85-b6056caa0b76"
      }, {
        "reference": "Practitioner/cfec59b5-29f4-4196-8fa2-5ff4c2b9d814"
      } ]
    },
    "request": {
      "method": "PUT",
      "url": "MeasureReport/ec91b43f-c473-492a-b3f5-9b015089b00e"
    }
  } ]
}