{"resourceType":"Bundle","id":"tests-b0477f12-22e7-4717-9c67-879cd8336308-bundle","type":"transaction","entry":[{"fullUrl":"https://madie.cms.gov/Patient/b0477f12-22e7-4717-9c67-879cd8336308","resource":{"resourceType":"Patient","id":"b0477f12-22e7-4717-9c67-879cd8336308","meta":{"profile":["http://hl7.org/fhir/us/qicore/StructureDefinition/qicore-patient"]},"extension":[{"url":"http://hl7.org/fhir/us/core/StructureDefinition/us-core-race","extension":[{"url":"ombCategory","valueCoding":{"system":"urn:oid:2.16.840.1.113883.6.238","code":"2106-3","display":"White"}},{"url":"text","valueString":"White"}]},{"url":"http://hl7.org/fhir/us/core/StructureDefinition/us-core-ethnicity","extension":[{"url":"ombCategory","valueCoding":{"system":"urn:oid:2.16.840.1.113883.6.238","code":"2186-5","display":"Not Hispanic or Latino"}},{"url":"text","valueString":"Not Hispanic or Latino"}]}],"identifier":[{"type":{"coding":[{"system":"http://terminology.hl7.org/CodeSystem/v2-0203","code":"MR"}]},"system":"https://bonnie-fhir.healthit.gov/","value":"6546841651641616513421"}],"name":[{"family":"DENEXPopStrat1Pass","given":["PallCareDXDuringMP"]}],"gender":"female","birthDate":"2010-01-01"},"request":{"method":"PUT","url":"Patient/b0477f12-22e7-4717-9c67-879cd8336308"}},{"fullUrl":"https://madie.cms.gov/Encounter/846816468613163156","resource":{"resourceType":"Encounter","id":"a37e62c4-ffd9-4ae6-86f6-a626baf7581f","meta":{"profile":["http://hl7.org/fhir/us/qicore/StructureDefinition/qicore-encounter"]},"status":"finished","class":{"system":"http://terminology.hl7.org/CodeSystem/v3-ActCode","code":"AMB","display":"ambulatory"},"type":[{"coding":[{"system":"http://www.ama-assn.org/go/cpt","version":"2024","code":"90791"}]}],"subject":{"reference":"Patient/b0477f12-22e7-4717-9c67-879cd8336308"},"period":{"start":"2024-02-25T14:30:00+00:00","end":"2024-02-25T14:50:00+00:00"},"length":{"value":0,"unit":"days"}},"request":{"method":"PUT","url":"Encounter/a37e62c4-ffd9-4ae6-86f6-a626baf7581f"}},{"fullUrl":"https://madie.cms.gov/Observation/98778613516461352131315","resource":{"resourceType":"Observation","id":"993a1a56-920c-42d2-ba2a-b4543993e547","meta":{"profile":["http://hl7.org/fhir/us/qicore/StructureDefinition/qicore-observation"]},"status":"final","category":[{"coding":[{"system":"http://terminology.hl7.org/CodeSystem/observation-category","code":"survey","display":"Survey"}]}],"code":{"coding":[{"system":"http://loinc.org","version":"2.76","code":"44261-6"}]},"subject":{"reference":"Patient/b0477f12-22e7-4717-9c67-879cd8336308"},"effectiveDateTime":"2024-02-25T14:35:00+00:00","valueInteger":10},"request":{"method":"PUT","url":"Observation/993a1a56-920c-42d2-ba2a-b4543993e547"}},{"fullUrl":"https://madie.cms.gov/Observation/784651651684135131313","resource":{"resourceType":"Observation","id":"eba86a2d-3425-481f-bdd0-d019333c57d5","meta":{"profile":["http://hl7.org/fhir/us/qicore/StructureDefinition/qicore-observation"]},"status":"final","category":[{"coding":[{"system":"http://terminology.hl7.org/CodeSystem/observation-category","code":"survey","display":"Survey"}]}],"code":{"coding":[{"system":"http://loinc.org","version":"2.76","code":"44261-6"}]},"subject":{"reference":"Patient/b0477f12-22e7-4717-9c67-879cd8336308"},"effectiveDateTime":"2024-02-19T14:30:00+00:00","valueInteger":3},"request":{"method":"PUT","url":"Observation/eba86a2d-3425-481f-bdd0-d019333c57d5"}},{"fullUrl":"https://madie.cms.gov/Condition/18961651646466486545","resource":{"resourceType":"Condition","id":"93f50c36-2a18-4e48-9fc9-498187434d89","meta":{"profile":["http://hl7.org/fhir/us/qicore/StructureDefinition/qicore-condition"]},"clinicalStatus":{"coding":[{"system":"http://terminology.hl7.org/CodeSystem/condition-clinical","code":"active","display":"active"}]},"verificationStatus":{"coding":[{"system":"http://terminology.hl7.org/CodeSystem/condition-ver-status","code":"confirmed"}]},"category":[{"coding":[{"system":"http://terminology.hl7.org/CodeSystem/condition-category","code":"problem-list-item","display":"Problem List Item"}]}],"code":{"coding":[{"system":"http://hl7.org/fhir/sid/icd-10-cm","version":"2024","code":"F32.9"}]},"subject":{"reference":"Patient/b0477f12-22e7-4717-9c67-879cd8336308"},"onsetDateTime":"2024-02-25T14:35:00+00:00"},"request":{"method":"PUT","url":"Condition/93f50c36-2a18-4e48-9fc9-498187434d89"}},{"fullUrl":"https://madie.cms.gov/Condition/18961651646466486546","resource":{"resourceType":"Condition","id":"53178b9e-30d7-419a-bb9e-0c8b7c7148f8","meta":{"profile":["http://hl7.org/fhir/us/qicore/StructureDefinition/qicore-condition"]},"clinicalStatus":{"coding":[{"system":"http://terminology.hl7.org/CodeSystem/condition-clinical","code":"active","display":"active"}]},"verificationStatus":{"coding":[{"system":"http://terminology.hl7.org/CodeSystem/condition-ver-status","code":"confirmed"}]},"category":[{"coding":[{"system":"http://terminology.hl7.org/CodeSystem/condition-category","code":"problem-list-item","display":"Problem List Item"}]}],"code":{"coding":[{"system":"http://hl7.org/fhir/sid/icd-10-cm","version":"2024","code":"Z51.5"}]},"subject":{"reference":"Patient/b0477f12-22e7-4717-9c67-879cd8336308"},"onsetDateTime":"2025-01-25T14:35:00+00:00"},"request":{"method":"PUT","url":"Condition/53178b9e-30d7-419a-bb9e-0c8b7c7148f8"}},{"fullUrl":"https://madie.cms.gov/MeasureReport/ebbdadc0-f7b7-46da-a835-870a07b7c5c4","resource":{"resourceType":"MeasureReport","id":"ebbdadc0-f7b7-46da-a835-870a07b7c5c4","meta":{"profile":["http://hl7.org/fhir/us/cqfmeasures/StructureDefinition/test-case-cqfm"]},"contained":[{"resourceType":"Parameters","id":"a61c7071-176a-447c-9bb7-08a1eaa9860a-parameters","parameter":[{"name":"subject","valueString":"b0477f12-22e7-4717-9c67-879cd8336308"}]}],"extension":[{"url":"http://hl7.org/fhir/us/cqfmeasures/StructureDefinition/cqfm-inputParameters","valueReference":{"reference":"#a61c7071-176a-447c-9bb7-08a1eaa9860a-parameters"}},{"url":"http://hl7.org/fhir/us/cqfmeasures/StructureDefinition/cqfm-testCaseDescription","valueMarkdown":"Patient is 15 years old and has a Major Depressive Dx and PHQ-9>9 during the denom ID period. Patient has palliative care DX before end of MAP Should be in denominator exclusion for Strat 1. "}],"modifierExtension":[{"url":"http://hl7.org/fhir/us/cqfmeasures/StructureDefinition/cqfm-isTestCase","valueBoolean":true}],"status":"complete","type":"individual","measure":"https://madie.cms.gov/Measure/DepressionRemissionatTwelveMonthsFHIR","period":{"start":"2025-01-01","end":"2025-12-31"},"group":[{"population":[{"code":{"coding":[{"system":"http://terminology.hl7.org/CodeSystem/measure-population","code":"initial-population","display":"Initial Population"}]},"count":1},{"code":{"coding":[{"system":"http://terminology.hl7.org/CodeSystem/measure-population","code":"denominator","display":"Denominator"}]},"count":1},{"code":{"coding":[{"system":"http://terminology.hl7.org/CodeSystem/measure-population","code":"denominator-exclusion","display":"Denominator Exclusion"}]},"count":1},{"code":{"coding":[{"system":"http://terminology.hl7.org/CodeSystem/measure-population","code":"numerator","display":"Numerator"}]},"count":0}]}]},"request":{"method":"PUT","url":"MeasureReport/ebbdadc0-f7b7-46da-a835-870a07b7c5c4"}}]}