{"resourceType":"Bundle","id":"tests-b2dab5c6-a321-43e0-9702-6b160890a2e7-bundle","type":"transaction","entry":[{"fullUrl":"https://madie.cms.gov/Patient/b2dab5c6-a321-43e0-9702-6b160890a2e7","resource":{"resourceType":"Patient","id":"b2dab5c6-a321-43e0-9702-6b160890a2e7","meta":{"profile":["http://hl7.org/fhir/us/qicore/StructureDefinition/qicore-patient"]},"extension":[{"url":"http://hl7.org/fhir/us/core/StructureDefinition/us-core-race","extension":[{"url":"ombCategory","valueCoding":{"system":"urn:oid:2.16.840.1.113883.6.238","code":"2106-3","display":"White"}},{"url":"text","valueString":"White"}]},{"url":"http://hl7.org/fhir/us/core/StructureDefinition/us-core-ethnicity","extension":[{"url":"ombCategory","valueCoding":{"system":"urn:oid:2.16.840.1.113883.6.238","code":"2186-5","display":"Not Hispanic or Latino"}},{"url":"text","valueString":"Not Hispanic or Latino"}]}],"identifier":[{"type":{"coding":[{"system":"http://terminology.hl7.org/CodeSystem/v2-0203","code":"MR"}]},"system":"https://bonnie-fhir.healthit.gov/","value":"630307cb0968f80122478458"}],"name":[{"family":"NUMERPopStrat2Pass","given":["FUAssessment12MonthsAfterInitial"]}],"gender":"female","birthDate":"1935-01-01"},"request":{"method":"PUT","url":"Patient/b2dab5c6-a321-43e0-9702-6b160890a2e7"}},{"fullUrl":"https://madie.cms.gov/Encounter/846816468613163156","resource":{"resourceType":"Encounter","id":"633c5e80-ffee-42d0-bed1-2be74aa88317","meta":{"profile":["http://hl7.org/fhir/us/qicore/StructureDefinition/qicore-encounter"]},"status":"finished","class":{"system":"http://terminology.hl7.org/CodeSystem/v3-ActCode","code":"AMB","display":"ambulatory"},"type":[{"coding":[{"system":"http://www.ama-assn.org/go/cpt","version":"2024","code":"90791"}]}],"subject":{"reference":"Patient/b2dab5c6-a321-43e0-9702-6b160890a2e7"},"period":{"start":"2024-02-25T14:30:00+00:00","end":"2024-02-25T14:50:00+00:00"},"length":{"value":0,"unit":"days"}},"request":{"method":"PUT","url":"Encounter/633c5e80-ffee-42d0-bed1-2be74aa88317"}},{"fullUrl":"https://madie.cms.gov/Observation/98778613516461352131315","resource":{"resourceType":"Observation","id":"6761a8ca-9e03-4623-b1b4-8d1a78957d72","meta":{"profile":["http://hl7.org/fhir/us/qicore/StructureDefinition/qicore-observation"]},"status":"final","category":[{"coding":[{"system":"http://terminology.hl7.org/CodeSystem/observation-category","code":"survey","display":"Survey"}]}],"code":{"coding":[{"system":"http://loinc.org","version":"2.76","code":"44261-6"}]},"subject":{"reference":"Patient/b2dab5c6-a321-43e0-9702-6b160890a2e7"},"effectiveDateTime":"2024-02-25T14:35:00+00:00","valueInteger":10},"request":{"method":"PUT","url":"Observation/6761a8ca-9e03-4623-b1b4-8d1a78957d72"}},{"fullUrl":"https://madie.cms.gov/Observation/784651651684135131313","resource":{"resourceType":"Observation","id":"fcaaf37a-9bfc-499c-84f2-c3d9e80928ca","meta":{"profile":["http://hl7.org/fhir/us/qicore/StructureDefinition/qicore-observation"]},"status":"final","category":[{"coding":[{"system":"http://terminology.hl7.org/CodeSystem/observation-category","code":"survey","display":"Survey"}]}],"code":{"coding":[{"system":"http://loinc.org","version":"2.76","code":"44261-6"}]},"subject":{"reference":"Patient/b2dab5c6-a321-43e0-9702-6b160890a2e7"},"effectiveDateTime":"2025-02-19T14:30:00+00:00","valueInteger":3},"request":{"method":"PUT","url":"Observation/fcaaf37a-9bfc-499c-84f2-c3d9e80928ca"}},{"fullUrl":"https://madie.cms.gov/Coverage/1","resource":{"resourceType":"Coverage","id":"e758a8ff-2ed1-403f-bf8d-04a3b8ff3e73","meta":{"profile":["http://hl7.org/fhir/us/qicore/StructureDefinition/qicore-coverage"]},"status":"active","beneficiary":{"reference":"Patient/b2dab5c6-a321-43e0-9702-6b160890a2e7"},"payor":[{"reference":"Organization/e75793c9-fdf6-463a-8c1d-4ee44320dc25"}]},"request":{"method":"PUT","url":"Coverage/e758a8ff-2ed1-403f-bf8d-04a3b8ff3e73"}},{"fullUrl":"https://madie.cms.gov/Condition/18961651646466486545","resource":{"resourceType":"Condition","id":"ec83d7bb-f6c9-41dc-bec5-766267673bf8","meta":{"profile":["http://hl7.org/fhir/us/qicore/StructureDefinition/qicore-condition"]},"clinicalStatus":{"coding":[{"system":"http://terminology.hl7.org/CodeSystem/condition-clinical","code":"active","display":"active"}]},"verificationStatus":{"coding":[{"system":"http://terminology.hl7.org/CodeSystem/condition-ver-status","code":"confirmed"}]},"category":[{"coding":[{"system":"http://terminology.hl7.org/CodeSystem/condition-category","code":"problem-list-item","display":"Problem List Item"}]}],"code":{"coding":[{"system":"http://hl7.org/fhir/sid/icd-10-cm","version":"2024","code":"F32.9"}]},"subject":{"reference":"Patient/b2dab5c6-a321-43e0-9702-6b160890a2e7"},"onsetDateTime":"2024-02-25T14:35:00+00:00"},"request":{"method":"PUT","url":"Condition/ec83d7bb-f6c9-41dc-bec5-766267673bf8"}},{"fullUrl":"https://madie.cms.gov/MeasureReport/cd2854d8-c8bf-40de-aacf-9b3b790f9bbf","resource":{"resourceType":"MeasureReport","id":"cd2854d8-c8bf-40de-aacf-9b3b790f9bbf","meta":{"profile":["http://hl7.org/fhir/us/cqfmeasures/StructureDefinition/test-case-cqfm"]},"contained":[{"resourceType":"Parameters","id":"08c97f8c-0bde-4fee-8ce4-5bc8d457aef3-parameters","parameter":[{"name":"subject","valueString":"b2dab5c6-a321-43e0-9702-6b160890a2e7"}]}],"extension":[{"url":"http://hl7.org/fhir/us/cqfmeasures/StructureDefinition/cqfm-inputParameters","valueReference":{"reference":"#08c97f8c-0bde-4fee-8ce4-5bc8d457aef3-parameters"}},{"url":"http://hl7.org/fhir/us/cqfmeasures/StructureDefinition/cqfm-testCaseDescription","valueMarkdown":"Patient has a Major Depression diagnosis, an encounter with PHQ-9>9 during Denom ID period, and a PHQ-9<5 during MAP. Patient passes num and falls into strat 2. "}],"modifierExtension":[{"url":"http://hl7.org/fhir/us/cqfmeasures/StructureDefinition/cqfm-isTestCase","valueBoolean":true}],"status":"complete","type":"individual","measure":"https://madie.cms.gov/Measure/DepressionRemissionatTwelveMonthsFHIR","period":{"start":"2025-01-01","end":"2025-12-31"},"group":[{"population":[{"code":{"coding":[{"system":"http://terminology.hl7.org/CodeSystem/measure-population","code":"initial-population","display":"Initial Population"}]},"count":1},{"code":{"coding":[{"system":"http://terminology.hl7.org/CodeSystem/measure-population","code":"denominator","display":"Denominator"}]},"count":1},{"code":{"coding":[{"system":"http://terminology.hl7.org/CodeSystem/measure-population","code":"denominator-exclusion","display":"Denominator Exclusion"}]},"count":0},{"code":{"coding":[{"system":"http://terminology.hl7.org/CodeSystem/measure-population","code":"numerator","display":"Numerator"}]},"count":1}]}]},"request":{"method":"PUT","url":"MeasureReport/cd2854d8-c8bf-40de-aacf-9b3b790f9bbf"}}]}