{"resourceType":"Bundle","id":"tests-1b102c21-830a-41a5-ac27-9aa77ea5adfe-bundle","type":"transaction","entry":[{"fullUrl":"https://madie.cms.gov/Patient/1b102c21-830a-41a5-ac27-9aa77ea5adfe","resource":{"resourceType":"Patient","id":"1b102c21-830a-41a5-ac27-9aa77ea5adfe","meta":{"profile":["http://hl7.org/fhir/us/qicore/StructureDefinition/qicore-patient"]},"extension":[{"url":"http://hl7.org/fhir/us/core/StructureDefinition/us-core-race","extension":[{"url":"ombCategory","valueCoding":{"system":"urn:oid:2.16.840.1.113883.6.238","code":"2028-9","display":"Asian","userSelected":true}},{"url":"text","valueString":"Asian"}]},{"url":"http://hl7.org/fhir/us/core/StructureDefinition/us-core-ethnicity","extension":[{"url":"ombCategory","valueCoding":{"system":"urn:oid:2.16.840.1.113883.6.238","code":"2186-5","display":"Not Hispanic or Latino","userSelected":true}},{"url":"text","valueString":"Not Hispanic or Latino"}]}],"identifier":[{"type":{"coding":[{"system":"http://terminology.hl7.org/CodeSystem/v2-0203","code":"MR"}]},"system":"https://bonnie-fhir.healthit.gov/","value":"62df28020056b6e23ec675a5"}],"name":[{"family":"DENEXPass","given":["HospicePerformedDuringMP"]}],"gender":"female","birthDate":"2000-01-01"},"request":{"method":"PUT","url":"Patient/1b102c21-830a-41a5-ac27-9aa77ea5adfe"}},{"fullUrl":"https://madie.cms.gov/Encounter/encounter-to-evaluate-bmi-533f","resource":{"resourceType":"Encounter","id":"bbf51d44-2d7b-4106-8492-ac540e9bfe9a","meta":{"profile":["http://hl7.org/fhir/us/qicore/StructureDefinition/qicore-encounter"]},"status":"finished","class":{"system":"http://terminology.hl7.org/CodeSystem/v3-ActCode","code":"AMB","display":"ambulatory"},"type":[{"coding":[{"system":"http://snomed.info/sct","version":"2022-03","code":"10197000","display":"Psychiatric interview and evaluation (procedure)","userSelected":true}]}],"subject":{"reference":"Patient/1b102c21-830a-41a5-ac27-9aa77ea5adfe"},"period":{"start":"2025-01-01T00:00:00.000+00:00","end":"2025-01-01T00:30:00.000+00:00"}},"request":{"method":"PUT","url":"Encounter/bbf51d44-2d7b-4106-8492-ac540e9bfe9a"}},{"fullUrl":"https://madie.cms.gov/ServiceRequest/hospice-care-ambulatory-5343","resource":{"resourceType":"ServiceRequest","id":"deb2665f-2ea7-4e80-aded-d76d9a3f71d2","meta":{"profile":["http://hl7.org/fhir/us/qicore/StructureDefinition/qicore-servicerequest"]},"status":"active","intent":"order","code":{"coding":[{"system":"http://snomed.info/sct","version":"2022-03","code":"385763009","display":"Hospice care (regime/therapy)","userSelected":true}]},"subject":{"reference":"Patient/1b102c21-830a-41a5-ac27-9aa77ea5adfe"},"authoredOn":"2025-01-01T00:30:00.000+00:00"},"request":{"method":"PUT","url":"ServiceRequest/deb2665f-2ea7-4e80-aded-d76d9a3f71d2"}},{"fullUrl":"https://madie.cms.gov/Procedure/hospice-care-ambulatory-75a6","resource":{"resourceType":"Procedure","id":"fd21aa31-0a32-4cae-adce-1db09203ece2","meta":{"profile":["http://hl7.org/fhir/us/qicore/StructureDefinition/qicore-procedure"]},"extension":[{"url":"http://hl7.org/fhir/us/qicore/StructureDefinition/qicore-recorded","valueDateTime":"2025-01-01T00:30:00.000+00:00"}],"status":"completed","code":{"coding":[{"system":"http://snomed.info/sct","version":"2022-03","code":"170935008","display":"Full care by hospice (finding)","userSelected":true}]},"subject":{"reference":"Patient/1b102c21-830a-41a5-ac27-9aa77ea5adfe"},"performedDateTime":"2025-12-31T20:00:00.000+00:00"},"request":{"method":"PUT","url":"Procedure/fd21aa31-0a32-4cae-adce-1db09203ece2"}},{"fullUrl":"https://madie.cms.gov/Coverage/1","resource":{"resourceType":"Coverage","id":"2c7ff45a-e334-4c3a-a0bb-88aa1c800ae3","meta":{"profile":["http://hl7.org/fhir/us/qicore/StructureDefinition/qicore-coverage"]},"status":"active","beneficiary":{"reference":"Patient/1b102c21-830a-41a5-ac27-9aa77ea5adfe"},"payor":[{"reference":"Organization/f6075515-d38f-4624-bde8-a1ce20473a69"}]},"request":{"method":"PUT","url":"Coverage/2c7ff45a-e334-4c3a-a0bb-88aa1c800ae3"}},{"fullUrl":"https://madie.cms.gov/Organization/123456","resource":{"resourceType":"Organization","id":"f6075515-d38f-4624-bde8-a1ce20473a69","meta":{"profile":["http://hl7.org/fhir/us/qicore/StructureDefinition/qicore-organization"]},"identifier":[{"use":"temp","system":"urn:oid:2.16.840.1.113883.4.4","value":"21-3259825"}],"active":true,"type":[{"coding":[{"system":"http://terminology.hl7.org/CodeSystem/organization-type","code":"pay","display":"Payer"}]}],"name":"Blue Cross Blue Shield of Texas","telecom":[{"system":"phone","value":"(+1) 972-766-6900"}],"address":[{"use":"billing","type":"postal","line":["P.O. Box 660044"],"city":"Dallas","state":"TX","postalCode":"75266-0044","country":"USA"}]},"request":{"method":"PUT","url":"Organization/f6075515-d38f-4624-bde8-a1ce20473a69"}},{"fullUrl":"https://madie.cms.gov/MeasureReport/eb14a29b-1da4-4d9b-9d43-1fd193a78eee","resource":{"resourceType":"MeasureReport","id":"eb14a29b-1da4-4d9b-9d43-1fd193a78eee","meta":{"profile":["http://hl7.org/fhir/us/cqfmeasures/StructureDefinition/test-case-cqfm"]},"contained":[{"resourceType":"Parameters","id":"f84539dc-904b-4d3a-b04b-9349b18b37e2-parameters","parameter":[{"name":"subject","valueString":"1b102c21-830a-41a5-ac27-9aa77ea5adfe"}]}],"extension":[{"url":"http://hl7.org/fhir/us/cqfmeasures/StructureDefinition/cqfm-inputParameters","valueReference":{"reference":"#f84539dc-904b-4d3a-b04b-9349b18b37e2-parameters"}},{"url":"http://hl7.org/fhir/us/cqfmeasures/StructureDefinition/cqfm-testCaseDescription","valueMarkdown":"Enc first day of MP, hospice ordered day of enc., and hospice performed last day of MP. expected to pass the denex d/t has hospice"}],"modifierExtension":[{"url":"http://hl7.org/fhir/us/cqfmeasures/StructureDefinition/cqfm-isTestCase","valueBoolean":true}],"status":"complete","type":"individual","measure":"https://madie.cms.gov/Measure/PCSBMIScreenAndFollowUpFHIR","period":{"start":"2025-01-01","end":"2025-12-31"},"group":[{"population":[{"code":{"coding":[{"system":"http://terminology.hl7.org/CodeSystem/measure-population","code":"initial-population","display":"Initial Population"}]},"count":1},{"code":{"coding":[{"system":"http://terminology.hl7.org/CodeSystem/measure-population","code":"denominator","display":"Denominator"}]},"count":1},{"code":{"coding":[{"system":"http://terminology.hl7.org/CodeSystem/measure-population","code":"denominator-exclusion","display":"Denominator Exclusion"}]},"count":1},{"code":{"coding":[{"system":"http://terminology.hl7.org/CodeSystem/measure-population","code":"denominator-exception","display":"Denominator Exception"}]},"count":0},{"code":{"coding":[{"system":"http://terminology.hl7.org/CodeSystem/measure-population","code":"numerator","display":"Numerator"}]},"count":0}]}]},"request":{"method":"PUT","url":"MeasureReport/eb14a29b-1da4-4d9b-9d43-1fd193a78eee"}}]}