{"resourceType":"Bundle","id":"tests-736b5472-4a6f-4278-80d3-373d1c78c4c5-bundle","type":"transaction","entry":[{"fullUrl":"https://madie.cms.gov/Patient/736b5472-4a6f-4278-80d3-373d1c78c4c5","resource":{"resourceType":"Patient","id":"736b5472-4a6f-4278-80d3-373d1c78c4c5","meta":{"profile":["http://hl7.org/fhir/us/qicore/StructureDefinition/qicore-patient"]},"extension":[{"url":"http://hl7.org/fhir/us/core/StructureDefinition/us-core-race","extension":[{"url":"ombCategory","valueCoding":{"system":"urn:oid:2.16.840.1.113883.6.238","code":"2028-9","display":"Asian","userSelected":true}},{"url":"text","valueString":"Asian"}]},{"url":"http://hl7.org/fhir/us/core/StructureDefinition/us-core-ethnicity","extension":[{"url":"ombCategory","valueCoding":{"system":"urn:oid:2.16.840.1.113883.6.238","code":"2135-2","display":"Hispanic or Latino","userSelected":true}},{"url":"text","valueString":"Hispanic or Latino"}]}],"identifier":[{"type":{"coding":[{"system":"http://terminology.hl7.org/CodeSystem/v2-0203","code":"MR"}]},"system":"https://bonnie-fhir.healthit.gov/","value":"62fbe853bf5132f90ee35d3b"}],"name":[{"family":"DENEXPass","given":["HospiceObservationAssessment"]}],"gender":"female","birthDate":"1958-07-04"},"request":{"method":"PUT","url":"Patient/736b5472-4a6f-4278-80d3-373d1c78c4c5"}},{"fullUrl":"https://madie.cms.gov/Encounter/encounter-to-evaluate-bmi-533f","resource":{"resourceType":"Encounter","id":"dc4dfa2f-89d6-47a0-b900-cb6b992243b9","meta":{"profile":["http://hl7.org/fhir/us/qicore/StructureDefinition/qicore-encounter"]},"status":"finished","class":{"system":"http://terminology.hl7.org/CodeSystem/v3-ActCode","code":"AMB","display":"ambulatory"},"type":[{"coding":[{"system":"http://snomed.info/sct","version":"2022-03","code":"10197000","display":"Psychiatric interview and evaluation (procedure)","userSelected":true}]}],"subject":{"reference":"Patient/736b5472-4a6f-4278-80d3-373d1c78c4c5"},"period":{"start":"2025-01-01T00:00:00.000+00:00","end":"2025-01-01T00:30:00.000+00:00"}},"request":{"method":"PUT","url":"Encounter/dc4dfa2f-89d6-47a0-b900-cb6b992243b9"}},{"fullUrl":"https://madie.cms.gov/Observation/body-mass-index-bmi-ratio-5d32","resource":{"resourceType":"Observation","id":"abca7923-9fc7-4af2-b2c5-7f938c9b3159","meta":{"profile":["http://hl7.org/fhir/us/qicore/StructureDefinition/qicore-observation"]},"status":"final","category":[{"coding":[{"system":"http://terminology.hl7.org/CodeSystem/observation-category","code":"procedure","display":"Procedure"}]}],"code":{"coding":[{"system":"http://loinc.org","code":"39156-5","display":"Body mass index (BMI) [Ratio]","userSelected":true}]},"subject":{"reference":"Patient/736b5472-4a6f-4278-80d3-373d1c78c4c5"},"effectiveDateTime":"2025-01-01T00:30:00.000+00:00","valueQuantity":{"value":28.0,"unit":"kg/m2"}},"request":{"method":"PUT","url":"Observation/abca7923-9fc7-4af2-b2c5-7f938c9b3159"}},{"fullUrl":"https://madie.cms.gov/Procedure/follow-up-for-above-normal-bmi-5d34","resource":{"resourceType":"Procedure","id":"c4546d76-fc61-4c62-a7f4-621996cbe357","meta":{"profile":["http://hl7.org/fhir/us/qicore/StructureDefinition/qicore-procedure"]},"extension":[{"url":"http://hl7.org/fhir/us/qicore/StructureDefinition/qicore-recorded","valueDateTime":"2025-01-01T00:30:00.000+00:00"}],"status":"completed","code":{"coding":[{"system":"http://snomed.info/sct","version":"2022-03","code":"182922004","display":"Dietary regime (regime/therapy)","userSelected":true}]},"subject":{"reference":"Patient/736b5472-4a6f-4278-80d3-373d1c78c4c5"},"performedDateTime":"2025-01-01T00:30:00.000+00:00","reasonCode":[{"coding":[{"system":"http://hl7.org/fhir/sid/icd-10-cm","code":"E66.01","display":"Morbid (severe) obesity due to excess calories","userSelected":true}]}]},"request":{"method":"PUT","url":"Procedure/c4546d76-fc61-4c62-a7f4-621996cbe357"}},{"fullUrl":"https://madie.cms.gov/Observation/hospice-care-minimum-data-set-5d3e","resource":{"resourceType":"Observation","id":"a85af21d-1c86-4f01-b02a-49c50b257718","meta":{"profile":["http://hl7.org/fhir/us/qicore/StructureDefinition/qicore-observation"]},"status":"final","category":[{"coding":[{"system":"http://terminology.hl7.org/CodeSystem/observation-category","code":"survey","display":"Survey"}]}],"code":{"coding":[{"system":"http://loinc.org","code":"45755-6","display":"Hospice care [Minimum Data Set]","userSelected":true}]},"subject":{"reference":"Patient/736b5472-4a6f-4278-80d3-373d1c78c4c5"},"effectivePeriod":{"start":"2025-01-01T00:00:00.000+00:00","end":"2025-01-01T00:30:00.000+00:00"},"issued":"2025-01-01T00:05:00.000+00:00","valueCodeableConcept":{"coding":[{"system":"http://snomed.info/sct","code":"373066001","display":"Yes (qualifier value)","userSelected":true}]}},"request":{"method":"PUT","url":"Observation/a85af21d-1c86-4f01-b02a-49c50b257718"}},{"fullUrl":"https://madie.cms.gov/Coverage/1","resource":{"resourceType":"Coverage","id":"3f40a4e3-4990-4568-b53a-6a4e5f76b57a","meta":{"profile":["http://hl7.org/fhir/us/qicore/StructureDefinition/qicore-coverage"]},"status":"active","beneficiary":{"reference":"Patient/736b5472-4a6f-4278-80d3-373d1c78c4c5"},"payor":[{"reference":"Organization/f6075515-d38f-4624-bde8-a1ce20473a69"}]},"request":{"method":"PUT","url":"Coverage/3f40a4e3-4990-4568-b53a-6a4e5f76b57a"}},{"fullUrl":"https://madie.cms.gov/Organization/123456","resource":{"resourceType":"Organization","id":"f6075515-d38f-4624-bde8-a1ce20473a69","meta":{"profile":["http://hl7.org/fhir/us/qicore/StructureDefinition/qicore-organization"]},"identifier":[{"use":"temp","system":"urn:oid:2.16.840.1.113883.4.4","value":"21-3259825"}],"active":true,"type":[{"coding":[{"system":"http://terminology.hl7.org/CodeSystem/organization-type","code":"pay","display":"Payer"}]}],"name":"Blue Cross Blue Shield of Texas","telecom":[{"system":"phone","value":"(+1) 972-766-6900"}],"address":[{"use":"billing","type":"postal","line":["P.O. Box 660044"],"city":"Dallas","state":"TX","postalCode":"75266-0044","country":"USA"}]},"request":{"method":"PUT","url":"Organization/f6075515-d38f-4624-bde8-a1ce20473a69"}},{"fullUrl":"https://madie.cms.gov/MeasureReport/9f8b78d9-c4a8-443e-93d7-caf08184910c","resource":{"resourceType":"MeasureReport","id":"9f8b78d9-c4a8-443e-93d7-caf08184910c","meta":{"profile":["http://hl7.org/fhir/us/cqfmeasures/StructureDefinition/test-case-cqfm"]},"contained":[{"resourceType":"Parameters","id":"6a3f189c-bffc-4ed8-84dc-668cb12d3c0d-parameters","parameter":[{"name":"subject","valueString":"736b5472-4a6f-4278-80d3-373d1c78c4c5"}]}],"extension":[{"url":"http://hl7.org/fhir/us/cqfmeasures/StructureDefinition/cqfm-inputParameters","valueReference":{"reference":"#6a3f189c-bffc-4ed8-84dc-668cb12d3c0d-parameters"}},{"url":"http://hl7.org/fhir/us/cqfmeasures/StructureDefinition/cqfm-testCaseDescription","valueMarkdown":"Encounter during MP,  1/1  at  0000 to 0030, has hospice, edge test should pass the exclusion criteria,  "}],"modifierExtension":[{"url":"http://hl7.org/fhir/us/cqfmeasures/StructureDefinition/cqfm-isTestCase","valueBoolean":true}],"status":"complete","type":"individual","measure":"https://madie.cms.gov/Measure/PCSBMIScreenAndFollowUpFHIR","period":{"start":"2025-01-01","end":"2025-12-31"},"group":[{"population":[{"code":{"coding":[{"system":"http://terminology.hl7.org/CodeSystem/measure-population","code":"initial-population","display":"Initial Population"}]},"count":1},{"code":{"coding":[{"system":"http://terminology.hl7.org/CodeSystem/measure-population","code":"denominator","display":"Denominator"}]},"count":1},{"code":{"coding":[{"system":"http://terminology.hl7.org/CodeSystem/measure-population","code":"denominator-exclusion","display":"Denominator Exclusion"}]},"count":1},{"code":{"coding":[{"system":"http://terminology.hl7.org/CodeSystem/measure-population","code":"denominator-exception","display":"Denominator Exception"}]},"count":0},{"code":{"coding":[{"system":"http://terminology.hl7.org/CodeSystem/measure-population","code":"numerator","display":"Numerator"}]},"count":0}]}]},"request":{"method":"PUT","url":"MeasureReport/9f8b78d9-c4a8-443e-93d7-caf08184910c"}}]}