{"resourceType":"Bundle","id":"tests-260e1fc8-227f-4c16-bfc6-22625380a12c-bundle","type":"transaction","entry":[{"fullUrl":"https://madie.cms.gov/Patient/260e1fc8-227f-4c16-bfc6-22625380a12c","resource":{"resourceType":"Patient","id":"260e1fc8-227f-4c16-bfc6-22625380a12c","meta":{"profile":["http://hl7.org/fhir/us/qicore/StructureDefinition/qicore-patient"]},"extension":[{"url":"http://hl7.org/fhir/us/core/StructureDefinition/us-core-race","extension":[{"url":"ombCategory","valueCoding":{"system":"urn:oid:2.16.840.1.113883.6.238","code":"2106-3","display":"White","userSelected":true}},{"url":"text","valueString":"White"}]},{"url":"http://hl7.org/fhir/us/core/StructureDefinition/us-core-ethnicity","extension":[{"url":"ombCategory","valueCoding":{"system":"urn:oid:2.16.840.1.113883.6.238","code":"2186-5","display":"Not Hispanic or Latino","userSelected":true}},{"url":"text","valueString":"Not Hispanic or Latino"}]}],"identifier":[{"type":{"coding":[{"system":"http://terminology.hl7.org/CodeSystem/v2-0203","code":"MR"}]},"system":"https://bonnie-fhir.healthit.gov/","value":"62aa660cc4be4c506d4a5351"}],"name":[{"family":"DENEXCEPPass","given":["MedicalReasonNoFollowupPlanHighBMI"]}],"gender":"unknown","birthDate":"1956-11-07"},"request":{"method":"PUT","url":"Patient/260e1fc8-227f-4c16-bfc6-22625380a12c"}},{"fullUrl":"https://madie.cms.gov/Encounter/encounter-to-evaluate-bmi-533b","resource":{"resourceType":"Encounter","id":"8814240f-0169-4a9d-9448-6de3c2049ea1","meta":{"profile":["http://hl7.org/fhir/us/qicore/StructureDefinition/qicore-encounter"]},"status":"finished","class":{"system":"http://terminology.hl7.org/CodeSystem/v3-ActCode","code":"AMB","display":"ambulatory"},"type":[{"coding":[{"system":"http://snomed.info/sct","version":"2022-03","code":"10197000","display":"Psychiatric interview and evaluation (procedure)","userSelected":true}]}],"subject":{"reference":"Patient/260e1fc8-227f-4c16-bfc6-22625380a12c"},"period":{"start":"2025-01-01T00:00:00.000+00:00","end":"2025-01-01T00:30:00.000+00:00"}},"request":{"method":"PUT","url":"Encounter/8814240f-0169-4a9d-9448-6de3c2049ea1"}},{"fullUrl":"https://madie.cms.gov/Observation/body-mass-index-bmi-ratio-534c","resource":{"resourceType":"Observation","id":"9d1a3395-5769-4a11-9b37-63340e277c18","meta":{"profile":["http://hl7.org/fhir/us/qicore/StructureDefinition/qicore-observation"]},"status":"final","category":[{"coding":[{"system":"http://terminology.hl7.org/CodeSystem/observation-category","code":"procedure","display":"Procedure"}]}],"code":{"coding":[{"system":"http://loinc.org","code":"39156-5","display":"Body mass index (BMI) [Ratio]","userSelected":true}]},"subject":{"reference":"Patient/260e1fc8-227f-4c16-bfc6-22625380a12c"},"effectiveDateTime":"2025-01-01T00:05:00.000+00:00","valueQuantity":{"value":30,"unit":"kg/m2"}},"request":{"method":"PUT","url":"Observation/9d1a3395-5769-4a11-9b37-63340e277c18"}},{"fullUrl":"https://madie.cms.gov/ServiceRequest/follow-up-for-above-normal-bmi-5352","resource":{"resourceType":"ServiceRequest","id":"6c655fe1-e504-43f5-9a18-83a86e1708e5","meta":{"profile":["http://hl7.org/fhir/us/qicore/StructureDefinition/qicore-servicenotrequested"]},"extension":[{"url":"http://hl7.org/fhir/us/qicore/StructureDefinition/qicore-doNotPerformReason","valueCodeableConcept":{"coding":[{"system":"http://snomed.info/sct","code":"183932001","display":"Procedure contraindicated (situation)","userSelected":true}]}},{"url":"http://hl7.org/fhir/us/qicore/StructureDefinition/qicore-reasonRefused","valueCodeableConcept":{"coding":[{"system":"http://snomed.info/sct","code":"183932001","display":"Procedure contraindicated (situation)","userSelected":true}]}}],"status":"completed","intent":"order","doNotPerform":true,"code":{"coding":[{"system":"http://snomed.info/sct","version":"2022-03","code":"182922004","display":"Dietary regime (regime/therapy)","userSelected":true}]},"subject":{"reference":"Patient/260e1fc8-227f-4c16-bfc6-22625380a12c"},"authoredOn":"2025-01-01T00:15:00.000+00:00","reasonCode":[{"coding":[{"system":"http://snomed.info/sct","code":"183932001","display":"Procedure contraindicated (situation)","userSelected":true}]}]},"request":{"method":"PUT","url":"ServiceRequest/6c655fe1-e504-43f5-9a18-83a86e1708e5"}},{"fullUrl":"https://madie.cms.gov/Coverage/1","resource":{"resourceType":"Coverage","id":"c3934c87-7419-4bf9-a388-3c4d9cf1e41e","meta":{"profile":["http://hl7.org/fhir/us/qicore/StructureDefinition/qicore-coverage"]},"status":"active","beneficiary":{"reference":"Patient/260e1fc8-227f-4c16-bfc6-22625380a12c"},"payor":[{"reference":"Organization/80573fa1-cf83-4e9a-8f21-86a018689678"}]},"request":{"method":"PUT","url":"Coverage/c3934c87-7419-4bf9-a388-3c4d9cf1e41e"}},{"fullUrl":"https://madie.cms.gov/Organization/123456","resource":{"resourceType":"Organization","id":"80573fa1-cf83-4e9a-8f21-86a018689678","meta":{"profile":["http://hl7.org/fhir/us/qicore/StructureDefinition/qicore-organization"]},"identifier":[{"use":"temp","system":"urn:oid:2.16.840.1.113883.4.4","value":"21-3259825"}],"active":true,"type":[{"coding":[{"system":"http://terminology.hl7.org/CodeSystem/organization-type","code":"pay","display":"Payer"}]}],"name":"Blue Cross Blue Shield of Texas","telecom":[{"system":"phone","value":"(+1) 972-766-6900"}],"address":[{"use":"billing","type":"postal","line":["P.O. Box 660044"],"city":"Dallas","state":"TX","postalCode":"75266-0044","country":"USA"}]},"request":{"method":"PUT","url":"Organization/80573fa1-cf83-4e9a-8f21-86a018689678"}},{"fullUrl":"https://madie.cms.gov/Practitioner/practitioner-123456","resource":{"resourceType":"Practitioner","id":"eee3f0b0-4cc4-44dd-aa3b-61346db6d3db","meta":{"profile":["http://hl7.org/fhir/us/qicore/StructureDefinition/qicore-practitioner"]},"identifier":[{"system":"http://hl7.org/fhir/sid/us-npi","value":"123456"}],"name":[{"family":"Evil","prefix":["Dr"]}]},"request":{"method":"PUT","url":"Practitioner/eee3f0b0-4cc4-44dd-aa3b-61346db6d3db"}},{"fullUrl":"https://madie.cms.gov/MeasureReport/b21962de-f0b8-41a1-be8c-1cec1c8c1466","resource":{"resourceType":"MeasureReport","id":"b21962de-f0b8-41a1-be8c-1cec1c8c1466","meta":{"profile":["http://hl7.org/fhir/us/cqfmeasures/StructureDefinition/test-case-cqfm"]},"contained":[{"resourceType":"Parameters","id":"ac5f2a72-42ad-4837-bd57-080b9163cc03-parameters","parameter":[{"name":"subject","valueString":"260e1fc8-227f-4c16-bfc6-22625380a12c"}]}],"extension":[{"url":"http://hl7.org/fhir/us/cqfmeasures/StructureDefinition/cqfm-inputParameters","valueReference":{"reference":"#ac5f2a72-42ad-4837-bd57-080b9163cc03-parameters"}},{"url":"http://hl7.org/fhir/us/cqfmeasures/StructureDefinition/cqfm-testCaseDescription","valueMarkdown":"Gender unknown, Amb encounter first day, first 30 minutes of day during MP, BMI 30 kg/m2, with medical reason for not providing followup "}],"modifierExtension":[{"url":"http://hl7.org/fhir/us/cqfmeasures/StructureDefinition/cqfm-isTestCase","valueBoolean":true}],"status":"complete","type":"individual","measure":"https://madie.cms.gov/Measure/PCSBMIScreenAndFollowUpFHIR","period":{"start":"2025-01-01","end":"2025-12-31"},"group":[{"population":[{"code":{"coding":[{"system":"http://terminology.hl7.org/CodeSystem/measure-population","code":"initial-population","display":"Initial Population"}]},"count":1},{"code":{"coding":[{"system":"http://terminology.hl7.org/CodeSystem/measure-population","code":"denominator","display":"Denominator"}]},"count":1},{"code":{"coding":[{"system":"http://terminology.hl7.org/CodeSystem/measure-population","code":"denominator-exclusion","display":"Denominator Exclusion"}]},"count":0},{"code":{"coding":[{"system":"http://terminology.hl7.org/CodeSystem/measure-population","code":"denominator-exception","display":"Denominator Exception"}]},"count":1},{"code":{"coding":[{"system":"http://terminology.hl7.org/CodeSystem/measure-population","code":"numerator","display":"Numerator"}]},"count":0}]}]},"request":{"method":"PUT","url":"MeasureReport/b21962de-f0b8-41a1-be8c-1cec1c8c1466"}}]}