{
  "resourceType": "Bundle",
  "id": "i1f044ef3e654daa9112",
  "type": "transaction",
  "entry": [ {
    "fullUrl": "https://madie.cms.gov/Patient/362e7398-e10b-46d5-8a2d-d3355f9ca0ca",
    "resource": {
      "resourceType": "Patient",
      "id": "362e7398-e10b-46d5-8a2d-d3355f9ca0ca",
      "meta": {
        "profile": [ "http://hl7.org/fhir/us/qicore/StructureDefinition/qicore-patient" ]
      },
      "extension": [ {
        "url": "http://hl7.org/fhir/us/core/StructureDefinition/us-core-race",
        "extension": [ {
          "url": "ombCategory",
          "valueCoding": {
            "system": "urn:oid:2.16.840.1.113883.6.238",
            "code": "1002-5",
            "display": "American Indian or Alaska Native",
            "userSelected": true
          }
        }, {
          "url": "text",
          "valueString": "American Indian or Alaska Native"
        } ]
      }, {
        "url": "http://hl7.org/fhir/us/core/StructureDefinition/us-core-ethnicity",
        "extension": [ {
          "url": "ombCategory",
          "valueCoding": {
            "system": "urn:oid:2.16.840.1.113883.6.238",
            "code": "2135-2",
            "display": "Hispanic or Latino",
            "userSelected": true
          }
        }, {
          "url": "text",
          "valueString": "Hispanic or Latino"
        } ]
      } ],
      "identifier": [ {
        "type": {
          "coding": [ {
            "system": "http://terminology.hl7.org/CodeSystem/v2-0203",
            "code": "MR"
          } ]
        },
        "system": "https://bonnie-fhir.healthit.gov/",
        "value": "a71c6af7-e715-4d9e-8c5b-68e290d86d71"
      } ],
      "name": [ {
        "family": "DENEXCL6PASS",
        "given": [ "LongTermAnticoagulantUseMeetsBeforeED" ]
      } ],
      "gender": "male",
      "birthDate": "1976-09-23"
    },
    "request": {
      "method": "PUT",
      "url": "Patient/362e7398-e10b-46d5-8a2d-d3355f9ca0ca"
    }
  }, {
    "fullUrl": "https://madie.cms.gov/Encounter/cd0a1be6-38b6-4fc3-b6c4-f863a655e47b",
    "resource": {
      "resourceType": "Encounter",
      "id": "cd0a1be6-38b6-4fc3-b6c4-f863a655e47b",
      "meta": {
        "profile": [ "http://hl7.org/fhir/us/qicore/StructureDefinition/qicore-encounter" ]
      },
      "status": "finished",
      "class": {
        "system": "http://terminology.hl7.org/CodeSystem/v3-ActCode",
        "code": "EMER",
        "display": "emergency",
        "userSelected": true
      },
      "type": [ {
        "coding": [ {
          "system": "http://snomed.info/sct",
          "version": "2020-09",
          "code": "4525004",
          "display": "Emergency department patient visit",
          "userSelected": true
        } ]
      } ],
      "subject": {
        "reference": "Patient/362e7398-e10b-46d5-8a2d-d3355f9ca0ca"
      },
      "period": {
        "start": "2026-10-09T05:00:00.000+00:00",
        "end": "2026-10-13T17:00:00.000+00:00"
      },
      "reasonCode": [ {
        "coding": [ {
          "system": "http://hl7.org/fhir/sid/icd-10-cm",
          "code": "I21.21",
          "display": "ST elevation (STEMI) myocardial infarction involving left circumflex coronary artery",
          "userSelected": true
        } ]
      } ]
    },
    "request": {
      "method": "PUT",
      "url": "Encounter/cd0a1be6-38b6-4fc3-b6c4-f863a655e47b"
    }
  }, {
    "fullUrl": "https://madie.cms.gov/Condition/ba0183fc-0127-43fb-a5e5-26ddad21b09f",
    "resource": {
      "resourceType": "Condition",
      "id": "ba0183fc-0127-43fb-a5e5-26ddad21b09f",
      "meta": {
        "profile": [ "http://hl7.org/fhir/us/qicore/StructureDefinition/qicore-condition" ]
      },
      "clinicalStatus": {
        "coding": [ {
          "system": "http://terminology.hl7.org/CodeSystem/condition-clinical",
          "code": "inactive",
          "display": "Inactive",
          "userSelected": true
        } ]
      },
      "category": [ {
        "coding": [ {
          "system": "http://terminology.hl7.org/CodeSystem/condition-category",
          "code": "problem-list-item",
          "display": "Problem List Item",
          "userSelected": true
        } ]
      } ],
      "code": {
        "coding": [ {
          "system": "http://hl7.org/fhir/sid/icd-10-cm",
          "code": "Z79.01",
          "display": "Long term (current) use of anticoagulants",
          "userSelected": true
        } ]
      },
      "subject": {
        "reference": "Patient/362e7398-e10b-46d5-8a2d-d3355f9ca0ca"
      },
      "onsetDateTime": "2026-01-08T08:00:00.000+00:00",
      "abatementDateTime": "2026-10-09T05:00:00.000+00:00"
    },
    "request": {
      "method": "PUT",
      "url": "Condition/ba0183fc-0127-43fb-a5e5-26ddad21b09f"
    }
  }, {
    "fullUrl": "https://madie.cms.gov/MeasureReport/2ca82eda-fceb-4a10-8e0c-c239d95ac4e3",
    "resource": {
      "resourceType": "MeasureReport",
      "id": "2ca82eda-fceb-4a10-8e0c-c239d95ac4e3",
      "meta": {
        "profile": [ "http://hl7.org/fhir/us/cqfmeasures/StructureDefinition/test-case-cqfm" ]
      },
      "contained": [ {
        "resourceType": "Parameters",
        "id": "340fb5e7-8251-4db7-83f7-d09f474cf157-parameters",
        "parameter": [ {
          "name": "subject",
          "valueString": "362e7398-e10b-46d5-8a2d-d3355f9ca0ca"
        } ]
      } ],
      "extension": [ {
        "url": "http://hl7.org/fhir/us/cqfmeasures/StructureDefinition/cqfm-inputParameters",
        "valueReference": {
          "reference": "#340fb5e7-8251-4db7-83f7-d09f474cf157-parameters"
        }
      }, {
        "url": "http://hl7.org/fhir/us/cqfmeasures/StructureDefinition/cqfm-testCaseDescription",
        "valueMarkdown": "Patient has long term anticoagulant use before ED that ends during ED encounter start"
      } ],
      "modifierExtension": [ {
        "url": "http://hl7.org/fhir/us/cqfmeasures/StructureDefinition/cqfm-isTestCase",
        "valueBoolean": true
      } ],
      "status": "complete",
      "type": "individual",
      "measure": "https://madie.cms.gov/Measure/CMS996FHIRAptTxforSTEMI",
      "period": {
        "start": "2026-01-01",
        "end": "2026-12-31"
      },
      "group": [ {
        "population": [ {
          "code": {
            "coding": [ {
              "system": "http://terminology.hl7.org/CodeSystem/measure-population",
              "code": "initial-population",
              "display": "Initial Population"
            } ]
          },
          "count": 1
        }, {
          "code": {
            "coding": [ {
              "system": "http://terminology.hl7.org/CodeSystem/measure-population",
              "code": "denominator",
              "display": "Denominator"
            } ]
          },
          "count": 1
        }, {
          "code": {
            "coding": [ {
              "system": "http://terminology.hl7.org/CodeSystem/measure-population",
              "code": "denominator-exclusion",
              "display": "Denominator Exclusion"
            } ]
          },
          "count": 1
        }, {
          "code": {
            "coding": [ {
              "system": "http://terminology.hl7.org/CodeSystem/measure-population",
              "code": "numerator",
              "display": "Numerator"
            } ]
          },
          "count": 0
        }, {
          "code": {
            "coding": [ {
              "system": "http://terminology.hl7.org/CodeSystem/measure-population",
              "code": "denominator-exception",
              "display": "Denominator Exception"
            } ]
          },
          "count": 0
        } ]
      } ],
      "evaluatedResource": [ {
        "reference": "Patient/362e7398-e10b-46d5-8a2d-d3355f9ca0ca"
      }, {
        "reference": "Encounter/cd0a1be6-38b6-4fc3-b6c4-f863a655e47b"
      }, {
        "reference": "Condition/ba0183fc-0127-43fb-a5e5-26ddad21b09f"
      } ]
    },
    "request": {
      "method": "PUT",
      "url": "MeasureReport/2ca82eda-fceb-4a10-8e0c-c239d95ac4e3"
    }
  } ]
}