{
  "resourceType": "Bundle",
  "id": "612e6b1602c62a011f2ec5e7",
  "type": "transaction",
  "entry": [ {
    "fullUrl": "https://madie.cms.gov/Patient/83b9921c-2768-4dec-be0c-a93e20f7eaf9",
    "resource": {
      "resourceType": "Patient",
      "id": "83b9921c-2768-4dec-be0c-a93e20f7eaf9",
      "meta": {
        "profile": [ "http://hl7.org/fhir/us/qicore/StructureDefinition/qicore-patient" ]
      },
      "text": {
        "status": "generated",
        "div": "<div xmlns=\"http://www.w3.org/1999/xhtml\"><div class=\"hapiHeaderText\">WarfarinAFDisch_2Encounters <b>NUMERFAIL </b></div><table class=\"hapiPropertyTable\"><tbody><tr><td>Identifier</td><td>f6b3ce4fb2b87a4aa5f00ca8118e0e9a</td></tr><tr><td>Date of birth</td><td><span>02 January 1974</span></td></tr></tbody></table></div>"
      },
      "extension": [ {
        "url": "http://hl7.org/fhir/us/core/StructureDefinition/us-core-race",
        "extension": [ {
          "url": "ombCategory",
          "valueCoding": {
            "system": "urn:oid:2.16.840.1.113883.6.238",
            "code": "1002-5",
            "display": "American Indian or Alaska Native",
            "userSelected": true
          }
        }, {
          "url": "text",
          "valueString": "American Indian or Alaska Native"
        } ]
      }, {
        "url": "http://hl7.org/fhir/us/core/StructureDefinition/us-core-ethnicity",
        "extension": [ {
          "url": "ombCategory",
          "valueCoding": {
            "system": "urn:oid:2.16.840.1.113883.6.238",
            "code": "2135-2",
            "display": "Hispanic or Latino",
            "userSelected": true
          }
        }, {
          "url": "text",
          "valueString": "Hispanic or Latino"
        } ]
      } ],
      "identifier": [ {
        "type": {
          "coding": [ {
            "system": "http://terminology.hl7.org/CodeSystem/v2-0203",
            "code": "MR"
          } ]
        },
        "system": "https://bonnie-fhir.healthit.gov/",
        "value": "612e6b1602c62a011f2ec5e7"
      } ],
      "active": true,
      "name": [ {
        "use": "usual",
        "family": "NUMERFail",
        "given": [ "WarfarinAFDisch_2Encounters" ]
      } ],
      "gender": "male",
      "birthDate": "1975-01-02"
    },
    "request": {
      "method": "PUT",
      "url": "Patient/83b9921c-2768-4dec-be0c-a93e20f7eaf9"
    }
  }, {
    "fullUrl": "https://madie.cms.gov/Encounter/d4df63a2-49dd-49ab-9af4-864a9e706115",
    "resource": {
      "resourceType": "Encounter",
      "id": "d4df63a2-49dd-49ab-9af4-864a9e706115",
      "meta": {
        "profile": [ "http://hl7.org/fhir/us/qicore/StructureDefinition/qicore-encounter" ]
      },
      "status": "finished",
      "class": {
        "system": "http://terminology.hl7.org/CodeSystem/v3-ActCode",
        "code": "IMP",
        "display": "inpatient encounter"
      },
      "type": [ {
        "coding": [ {
          "system": "http://snomed.info/sct",
          "code": "8715000"
        } ]
      } ],
      "subject": {
        "reference": "Patient/83b9921c-2768-4dec-be0c-a93e20f7eaf9"
      },
      "period": {
        "start": "2026-10-03T08:00:00+00:00",
        "end": "2026-10-05T08:15:00+00:00"
      },
      "length": {
        "value": 2.0,
        "unit": "days"
      },
      "diagnosis": [ {
        "condition": {
          "reference": "Condition/hemorrhagic-stroke-1c3b"
        },
        "rank": 1
      } ]
    },
    "request": {
      "method": "PUT",
      "url": "Encounter/d4df63a2-49dd-49ab-9af4-864a9e706115"
    }
  }, {
    "fullUrl": "https://madie.cms.gov/Encounter/6b227cc1-b1f6-424c-923a-588361fc62f5",
    "resource": {
      "resourceType": "Encounter",
      "id": "6b227cc1-b1f6-424c-923a-588361fc62f5",
      "meta": {
        "profile": [ "http://hl7.org/fhir/us/qicore/StructureDefinition/qicore-encounter" ]
      },
      "status": "finished",
      "class": {
        "system": "http://terminology.hl7.org/CodeSystem/v3-ActCode",
        "code": "IMP",
        "display": "inpatient encounter"
      },
      "type": [ {
        "coding": [ {
          "system": "http://snomed.info/sct",
          "code": "8715000"
        } ]
      } ],
      "subject": {
        "reference": "Patient/83b9921c-2768-4dec-be0c-a93e20f7eaf9"
      },
      "period": {
        "start": "2026-11-01T08:00:00+00:00",
        "end": "2026-11-26T08:15:00+00:00"
      },
      "length": {
        "value": 25.0,
        "unit": "days"
      }
    },
    "request": {
      "method": "PUT",
      "url": "Encounter/6b227cc1-b1f6-424c-923a-588361fc62f5"
    }
  }, {
    "fullUrl": "https://madie.cms.gov/Coverage/646431f6-baf3-41e6-b1ac-3a6efeb50442",
    "resource": {
      "resourceType": "Coverage",
      "id": "646431f6-baf3-41e6-b1ac-3a6efeb50442",
      "status": "active",
      "beneficiary": {
        "reference": "Patient/83b9921c-2768-4dec-be0c-a93e20f7eaf9"
      },
      "period": {
        "start": "1975-01-02T08:00:00+00:00"
      },
      "payor": [ {
        "reference": "Organization/8aa985ea-fb6c-4b27-80ee-1e71f52955de"
      } ]
    },
    "request": {
      "method": "PUT",
      "url": "Coverage/646431f6-baf3-41e6-b1ac-3a6efeb50442"
    }
  }, {
    "fullUrl": "https://madie.cms.gov/MedicationAdministration/d9d350b0-7f65-49f5-a9c5-f7f66b87224c",
    "resource": {
      "resourceType": "MedicationAdministration",
      "id": "d9d350b0-7f65-49f5-a9c5-f7f66b87224c",
      "meta": {
        "profile": [ "http://hl7.org/fhir/us/qicore/StructureDefinition/qicore-medicationadministration" ]
      },
      "status": "completed",
      "medicationCodeableConcept": {
        "coding": [ {
          "system": "http://www.nlm.nih.gov/research/umls/rxnorm",
          "code": "855288"
        } ]
      },
      "subject": {
        "reference": "Patient/83b9921c-2768-4dec-be0c-a93e20f7eaf9"
      },
      "effectiveDateTime": "2026-10-26T08:00:00.000+00:00"
    },
    "request": {
      "method": "PUT",
      "url": "MedicationAdministration/d9d350b0-7f65-49f5-a9c5-f7f66b87224c"
    }
  }, {
    "fullUrl": "https://madie.cms.gov/Organization/8aa985ea-fb6c-4b27-80ee-1e71f52955de",
    "resource": {
      "resourceType": "Organization",
      "id": "8aa985ea-fb6c-4b27-80ee-1e71f52955de",
      "meta": {
        "profile": [ "http://hl7.org/fhir/us/qicore/StructureDefinition/qicore-organization" ]
      },
      "identifier": [ {
        "use": "temp",
        "system": "urn:oid:2.16.840.1.113883.4.4",
        "value": "21-3259825"
      } ],
      "active": true,
      "type": [ {
        "coding": [ {
          "system": "http://terminology.hl7.org/CodeSystem/organization-type",
          "code": "pay",
          "display": "Payer"
        } ]
      } ],
      "name": "Blue Cross Blue Shield of Texas",
      "telecom": [ {
        "system": "phone",
        "value": "(+1) 972-766-6900"
      } ],
      "address": [ {
        "use": "billing",
        "type": "postal",
        "line": [ "P.O. Box 660044" ],
        "city": "Dallas",
        "state": "TX",
        "postalCode": "75266-0044",
        "country": "USA"
      } ]
    },
    "request": {
      "method": "PUT",
      "url": "Organization/8aa985ea-fb6c-4b27-80ee-1e71f52955de"
    }
  }, {
    "fullUrl": "https://madie.cms.gov/Practitioner/d6bbda03-b424-43ea-8779-6eaea1abc5ac",
    "resource": {
      "resourceType": "Practitioner",
      "id": "d6bbda03-b424-43ea-8779-6eaea1abc5ac",
      "identifier": [ {
        "system": "http://hl7.org/fhir/sid/us-npi",
        "value": "123456"
      } ],
      "name": [ {
        "family": "Evil",
        "prefix": [ "Dr" ]
      } ]
    },
    "request": {
      "method": "PUT",
      "url": "Practitioner/d6bbda03-b424-43ea-8779-6eaea1abc5ac"
    }
  }, {
    "fullUrl": "https://madie.cms.gov/MeasureReport/42c0f2bc-b661-473a-a4fa-a6c00d24c68a",
    "resource": {
      "resourceType": "MeasureReport",
      "id": "42c0f2bc-b661-473a-a4fa-a6c00d24c68a",
      "meta": {
        "profile": [ "http://hl7.org/fhir/us/cqfmeasures/StructureDefinition/test-case-cqfm" ]
      },
      "contained": [ {
        "resourceType": "Parameters",
        "id": "d6a6da51-184f-4fc9-aa66-70c75292b0c4-parameters",
        "parameter": [ {
          "name": "subject",
          "valueString": "83b9921c-2768-4dec-be0c-a93e20f7eaf9"
        } ]
      } ],
      "extension": [ {
        "url": "http://hl7.org/fhir/us/cqfmeasures/StructureDefinition/cqfm-inputParameters",
        "valueReference": {
          "reference": "#d6a6da51-184f-4fc9-aa66-70c75292b0c4-parameters"
        }
      }, {
        "url": "http://hl7.org/fhir/us/cqfmeasures/StructureDefinition/cqfm-testCaseDescription",
        "valueMarkdown": "2 encounters. warfarin administered after 2nd encounter discharge time\n"
      } ],
      "modifierExtension": [ {
        "url": "http://hl7.org/fhir/us/cqfmeasures/StructureDefinition/cqfm-isTestCase",
        "valueBoolean": true
      } ],
      "status": "complete",
      "type": "individual",
      "measure": "https://madie.cms.gov/Measure/CMS108VTEProphylaxisFHIR",
      "period": {
        "start": "2026-01-01",
        "end": "2026-12-31"
      },
      "group": [ {
        "population": [ {
          "code": {
            "coding": [ {
              "system": "http://terminology.hl7.org/CodeSystem/measure-population",
              "code": "initial-population",
              "display": "Initial Population"
            } ]
          },
          "count": 2
        }, {
          "code": {
            "coding": [ {
              "system": "http://terminology.hl7.org/CodeSystem/measure-population",
              "code": "denominator",
              "display": "Denominator"
            } ]
          },
          "count": 2
        }, {
          "code": {
            "coding": [ {
              "system": "http://terminology.hl7.org/CodeSystem/measure-population",
              "code": "denominator-exclusion",
              "display": "Denominator Exclusion"
            } ]
          },
          "count": 0
        }, {
          "code": {
            "coding": [ {
              "system": "http://terminology.hl7.org/CodeSystem/measure-population",
              "code": "numerator",
              "display": "Numerator"
            } ]
          },
          "count": 0
        } ]
      } ],
      "evaluatedResource": [ {
        "reference": "Patient/83b9921c-2768-4dec-be0c-a93e20f7eaf9"
      }, {
        "reference": "Encounter/d4df63a2-49dd-49ab-9af4-864a9e706115"
      }, {
        "reference": "Encounter/6b227cc1-b1f6-424c-923a-588361fc62f5"
      }, {
        "reference": "Coverage/646431f6-baf3-41e6-b1ac-3a6efeb50442"
      }, {
        "reference": "MedicationAdministration/d9d350b0-7f65-49f5-a9c5-f7f66b87224c"
      }, {
        "reference": "Organization/8aa985ea-fb6c-4b27-80ee-1e71f52955de"
      }, {
        "reference": "Practitioner/d6bbda03-b424-43ea-8779-6eaea1abc5ac"
      } ]
    },
    "request": {
      "method": "PUT",
      "url": "MeasureReport/42c0f2bc-b661-473a-a4fa-a6c00d24c68a"
    }
  } ]
}