{"resourceType":"Bundle","id":"tests-7b99b376-3be0-494d-a2dc-f14f435623c4-bundle","type":"transaction","entry":[{"fullUrl":"https://madie.cms.gov/Patient/7b99b376-3be0-494d-a2dc-f14f435623c4","resource":{"resourceType":"Patient","id":"7b99b376-3be0-494d-a2dc-f14f435623c4","meta":{"profile":["http://hl7.org/fhir/us/qicore/StructureDefinition/qicore-patient"]},"extension":[{"url":"http://hl7.org/fhir/us/core/StructureDefinition/us-core-race","extension":[{"url":"ombCategory","valueCoding":{"system":"urn:oid:2.16.840.1.113883.6.238","code":"2076-8","display":"Native Hawaiian or Other Pacific Islander","userSelected":true}},{"url":"text","valueString":"Native Hawaiian or Other Pacific Islander"}]},{"url":"http://hl7.org/fhir/us/core/StructureDefinition/us-core-ethnicity","extension":[{"url":"ombCategory","valueCoding":{"system":"urn:oid:2.16.840.1.113883.6.238","code":"2186-5","display":"Not Hispanic or Latino","userSelected":true}},{"url":"text","valueString":"Not Hispanic or Latino"}]}],"identifier":[{"type":{"coding":[{"system":"http://terminology.hl7.org/CodeSystem/v2-0203","code":"MR"}]},"system":"https://bonnie-fhir.healthit.gov/","value":"617be8ff1619a529957d62bb"}],"name":[{"family":"DenExcl7Pass","given":["DxStartsBefore90dayPeriodEndsDuringED"]}],"gender":"female","birthDate":"1985-12-02"},"request":{"method":"PUT","url":"Patient/7b99b376-3be0-494d-a2dc-f14f435623c4"}},{"fullUrl":"https://madie.cms.gov/Encounter/b17d3258-602f-4b7e-9e97-1522e6324280","resource":{"resourceType":"Encounter","id":"b17d3258-602f-4b7e-9e97-1522e6324280","meta":{"profile":["http://hl7.org/fhir/us/qicore/StructureDefinition/qicore-encounter"]},"status":"finished","class":{"system":"http://terminology.hl7.org/CodeSystem/v3-ActCode","code":"EMER","display":"emergency","userSelected":true},"type":[{"coding":[{"system":"http://snomed.info/sct","version":"2020-09","code":"4525004","display":"Emergency department patient visit (procedure)","userSelected":true}]}],"subject":{"reference":"Patient/7b99b376-3be0-494d-a2dc-f14f435623c4"},"period":{"start":"2026-10-09T08:05:00.000+00:00","end":"2026-10-10T07:15:00.000+00:00"}},"request":{"method":"PUT","url":"Encounter/b17d3258-602f-4b7e-9e97-1522e6324280"}},{"fullUrl":"https://madie.cms.gov/Condition/29b45cf6-436d-4370-8f82-e5edf49e08c0","resource":{"resourceType":"Condition","id":"29b45cf6-436d-4370-8f82-e5edf49e08c0","meta":{"profile":["http://hl7.org/fhir/us/qicore/StructureDefinition/qicore-condition"]},"clinicalStatus":{"coding":[{"system":"http://terminology.hl7.org/CodeSystem/condition-clinical","code":"active","display":"active","userSelected":true}]},"category":[{"coding":[{"system":"http://terminology.hl7.org/CodeSystem/condition-category","code":"encounter-diagnosis","display":"Encounter Diagnosis","userSelected":true}]}],"code":{"coding":[{"system":"http://snomed.info/sct","version":"2020-09","code":"401303003","display":"Acute ST segment elevation myocardial infarction (disorder)","userSelected":true}]},"subject":{"reference":"Patient/7b99b376-3be0-494d-a2dc-f14f435623c4"},"onsetDateTime":"2026-10-09T08:30:00.000+00:00"},"request":{"method":"PUT","url":"Condition/29b45cf6-436d-4370-8f82-e5edf49e08c0"}},{"fullUrl":"https://madie.cms.gov/Condition/9ff65abb-bee9-411f-9fc1-4b3eef4b5172","resource":{"resourceType":"Condition","id":"9ff65abb-bee9-411f-9fc1-4b3eef4b5172","meta":{"profile":["http://hl7.org/fhir/us/qicore/StructureDefinition/qicore-condition"]},"clinicalStatus":{"coding":[{"system":"http://terminology.hl7.org/CodeSystem/condition-clinical","version":"4.0.1","code":"inactive","display":"Inactive","userSelected":true}]},"category":[{"coding":[{"system":"http://terminology.hl7.org/CodeSystem/condition-category","code":"encounter-diagnosis","display":"Encounter Diagnosis","userSelected":true}]}],"code":{"coding":[{"system":"http://snomed.info/sct","version":"2023-03","code":"110030002","display":"Concussion injury of brain (disorder)","userSelected":true}]},"subject":{"reference":"Patient/7b99b376-3be0-494d-a2dc-f14f435623c4"},"onsetDateTime":"2026-09-01T08:00:00.000+00:00","abatementDateTime":"2026-10-09T09:30:00.000+00:00"},"request":{"method":"PUT","url":"Condition/9ff65abb-bee9-411f-9fc1-4b3eef4b5172"}},{"fullUrl":"https://madie.cms.gov/MeasureReport/48faaed5-82d9-48c0-b4bb-5cdc9d7d8d8a","resource":{"resourceType":"MeasureReport","id":"48faaed5-82d9-48c0-b4bb-5cdc9d7d8d8a","meta":{"profile":["http://hl7.org/fhir/us/cqfmeasures/StructureDefinition/test-case-cqfm"]},"contained":[{"resourceType":"Parameters","id":"d9a0f5ba-6a5b-4463-9c11-c4625df51b56-parameters","parameter":[{"name":"subject","valueString":"7b99b376-3be0-494d-a2dc-f14f435623c4"}]}],"extension":[{"url":"http://hl7.org/fhir/us/cqfmeasures/StructureDefinition/cqfm-inputParameters","valueReference":{"reference":"#d9a0f5ba-6a5b-4463-9c11-c4625df51b56-parameters"}},{"url":"http://hl7.org/fhir/us/cqfmeasures/StructureDefinition/cqfm-testCaseDescription","valueMarkdown":"Patient has closed head trauma (exclusion diagnosis) starts during 90 day period and ends during ED"}],"modifierExtension":[{"url":"http://hl7.org/fhir/us/cqfmeasures/StructureDefinition/cqfm-isTestCase","valueBoolean":true}],"status":"complete","type":"individual","measure":"https://madie.cms.gov/Measure/CMS996FHIRAptTxforSTEMI","period":{"start":"2026-01-01","end":"2026-12-31"},"group":[{"population":[{"code":{"coding":[{"system":"http://terminology.hl7.org/CodeSystem/measure-population","code":"initial-population","display":"Initial Population"}]},"count":1},{"code":{"coding":[{"system":"http://terminology.hl7.org/CodeSystem/measure-population","code":"denominator","display":"Denominator"}]},"count":1},{"code":{"coding":[{"system":"http://terminology.hl7.org/CodeSystem/measure-population","code":"denominator-exclusion","display":"Denominator Exclusion"}]},"count":1},{"code":{"coding":[{"system":"http://terminology.hl7.org/CodeSystem/measure-population","code":"numerator","display":"Numerator"}]},"count":0},{"code":{"coding":[{"system":"http://terminology.hl7.org/CodeSystem/measure-population","code":"denominator-exception","display":"Denominator Exception"}]},"count":0}]}]},"request":{"method":"PUT","url":"MeasureReport/48faaed5-82d9-48c0-b4bb-5cdc9d7d8d8a"}}]}