{"resourceType":"Bundle","id":"tests-1a75e113-5ea8-4341-b940-deb8b5a152e6-bundle","type":"transaction","entry":[{"fullUrl":"https://madie.cms.gov/Patient/1a75e113-5ea8-4341-b940-deb8b5a152e6","resource":{"resourceType":"Patient","id":"1a75e113-5ea8-4341-b940-deb8b5a152e6","meta":{"profile":["http://hl7.org/fhir/us/qicore/StructureDefinition/qicore-patient"]},"extension":[{"url":"http://hl7.org/fhir/us/core/StructureDefinition/us-core-race","extension":[{"url":"ombCategory","valueCoding":{"system":"urn:oid:2.16.840.1.113883.6.238","code":"2054-5","display":"Black or African American","userSelected":true}},{"url":"text","valueString":"Black or African American"}]},{"url":"http://hl7.org/fhir/us/core/StructureDefinition/us-core-ethnicity","extension":[{"url":"ombCategory","valueCoding":{"system":"urn:oid:2.16.840.1.113883.6.238","code":"2186-5","display":"Not Hispanic or Latino","userSelected":true}},{"url":"text","valueString":"Not Hispanic or Latino"}]}],"identifier":[{"type":{"coding":[{"system":"http://terminology.hl7.org/CodeSystem/v2-0203","code":"MR"}]},"system":"https://bonnie-fhir.healthit.gov/","value":"617bf16e1619a529957d62c5"}],"name":[{"family":"DenExcl7Pass","given":["DxStartsandEndsDuring90dayPeriod"]}],"gender":"female","birthDate":"1985-12-02"},"request":{"method":"PUT","url":"Patient/1a75e113-5ea8-4341-b940-deb8b5a152e6"}},{"fullUrl":"https://madie.cms.gov/Encounter/5b4e989e-2bfd-48f2-af52-ff6c5429cfaf","resource":{"resourceType":"Encounter","id":"5b4e989e-2bfd-48f2-af52-ff6c5429cfaf","meta":{"profile":["http://hl7.org/fhir/us/qicore/StructureDefinition/qicore-encounter"]},"status":"finished","class":{"system":"http://terminology.hl7.org/CodeSystem/v3-ActCode","code":"EMER","display":"emergency","userSelected":true},"type":[{"coding":[{"system":"http://snomed.info/sct","version":"2020-09","code":"4525004","display":"Emergency department patient visit (procedure)","userSelected":true}]}],"subject":{"reference":"Patient/1a75e113-5ea8-4341-b940-deb8b5a152e6"},"period":{"start":"2026-10-09T08:05:00.000+00:00","end":"2026-10-10T07:15:00.000+00:00"}},"request":{"method":"PUT","url":"Encounter/5b4e989e-2bfd-48f2-af52-ff6c5429cfaf"}},{"fullUrl":"https://madie.cms.gov/Condition/c9f8cfcc-dbd5-40e3-811e-0afb91cfbea3","resource":{"resourceType":"Condition","id":"c9f8cfcc-dbd5-40e3-811e-0afb91cfbea3","meta":{"profile":["http://hl7.org/fhir/us/qicore/StructureDefinition/qicore-condition"]},"clinicalStatus":{"coding":[{"system":"http://terminology.hl7.org/CodeSystem/condition-clinical","code":"active","display":"active","userSelected":true}]},"category":[{"coding":[{"system":"http://terminology.hl7.org/CodeSystem/condition-category","code":"encounter-diagnosis","display":"Encounter Diagnosis","userSelected":true}]}],"code":{"coding":[{"system":"http://snomed.info/sct","version":"2020-09","code":"401303003","display":"Acute ST segment elevation myocardial infarction (disorder)","userSelected":true}]},"subject":{"reference":"Patient/1a75e113-5ea8-4341-b940-deb8b5a152e6"},"onsetDateTime":"2026-10-09T08:30:00.000+00:00"},"request":{"method":"PUT","url":"Condition/c9f8cfcc-dbd5-40e3-811e-0afb91cfbea3"}},{"fullUrl":"https://madie.cms.gov/Condition/f93f70af-fe6f-4cf9-bcc9-486c2056c39d","resource":{"resourceType":"Condition","id":"f93f70af-fe6f-4cf9-bcc9-486c2056c39d","meta":{"profile":["http://hl7.org/fhir/us/qicore/StructureDefinition/qicore-condition"]},"clinicalStatus":{"coding":[{"system":"http://terminology.hl7.org/CodeSystem/condition-clinical","version":"4.0.1","code":"inactive","display":"Inactive","userSelected":true}]},"category":[{"coding":[{"system":"http://terminology.hl7.org/CodeSystem/condition-category","code":"encounter-diagnosis","display":"Encounter Diagnosis","userSelected":true}]}],"code":{"coding":[{"system":"http://snomed.info/sct","version":"2020-09","code":"195186005","display":"Cerebral infarction due to embolism of precerebral arteries (disorder)","userSelected":true}]},"subject":{"reference":"Patient/1a75e113-5ea8-4341-b940-deb8b5a152e6"},"onsetDateTime":"2026-08-20T08:00:00.000+00:00","abatementDateTime":"2026-10-01T09:15:00.000+00:00"},"request":{"method":"PUT","url":"Condition/f93f70af-fe6f-4cf9-bcc9-486c2056c39d"}},{"fullUrl":"https://madie.cms.gov/MeasureReport/86b0cb82-9989-493e-a824-b645de4aa84c","resource":{"resourceType":"MeasureReport","id":"86b0cb82-9989-493e-a824-b645de4aa84c","meta":{"profile":["http://hl7.org/fhir/us/cqfmeasures/StructureDefinition/test-case-cqfm"]},"contained":[{"resourceType":"Parameters","id":"08d99957-c848-4aa5-81ce-4eb88f5eafef-parameters","parameter":[{"name":"subject","valueString":"1a75e113-5ea8-4341-b940-deb8b5a152e6"}]}],"extension":[{"url":"http://hl7.org/fhir/us/cqfmeasures/StructureDefinition/cqfm-inputParameters","valueReference":{"reference":"#08d99957-c848-4aa5-81ce-4eb88f5eafef-parameters"}},{"url":"http://hl7.org/fhir/us/cqfmeasures/StructureDefinition/cqfm-testCaseDescription","valueMarkdown":"Patient has Ischemic Stroke (exclusion diagnosis) starts during and ends during 90 day period"}],"modifierExtension":[{"url":"http://hl7.org/fhir/us/cqfmeasures/StructureDefinition/cqfm-isTestCase","valueBoolean":true}],"status":"complete","type":"individual","measure":"https://madie.cms.gov/Measure/CMS996FHIRAptTxforSTEMI","period":{"start":"2026-01-01","end":"2026-12-31"},"group":[{"population":[{"code":{"coding":[{"system":"http://terminology.hl7.org/CodeSystem/measure-population","code":"initial-population","display":"Initial Population"}]},"count":1},{"code":{"coding":[{"system":"http://terminology.hl7.org/CodeSystem/measure-population","code":"denominator","display":"Denominator"}]},"count":1},{"code":{"coding":[{"system":"http://terminology.hl7.org/CodeSystem/measure-population","code":"denominator-exclusion","display":"Denominator Exclusion"}]},"count":1},{"code":{"coding":[{"system":"http://terminology.hl7.org/CodeSystem/measure-population","code":"numerator","display":"Numerator"}]},"count":0},{"code":{"coding":[{"system":"http://terminology.hl7.org/CodeSystem/measure-population","code":"denominator-exception","display":"Denominator Exception"}]},"count":0}]}]},"request":{"method":"PUT","url":"MeasureReport/86b0cb82-9989-493e-a824-b645de4aa84c"}}]}