{"resourceType":"Bundle","id":"tests-1ef5e948-acd1-46ae-ab8d-267febd63bb0-bundle","type":"transaction","entry":[{"fullUrl":"https://madie.cms.gov/Patient/1ef5e948-acd1-46ae-ab8d-267febd63bb0","resource":{"resourceType":"Patient","id":"1ef5e948-acd1-46ae-ab8d-267febd63bb0","meta":{"profile":["http://hl7.org/fhir/us/qicore/StructureDefinition/qicore-patient"]},"extension":[{"url":"http://hl7.org/fhir/us/core/StructureDefinition/us-core-race","extension":[{"url":"ombCategory","valueCoding":{"system":"urn:oid:2.16.840.1.113883.6.238","code":"2106-3","display":"White","userSelected":true}},{"url":"text","valueString":"White"}]},{"url":"http://hl7.org/fhir/us/core/StructureDefinition/us-core-ethnicity","extension":[{"url":"ombCategory","valueCoding":{"system":"urn:oid:2.16.840.1.113883.6.238","code":"2186-5","display":"Not Hispanic or Latino","userSelected":true}},{"url":"text","valueString":"Not Hispanic or Latino"}]}],"identifier":[{"type":{"coding":[{"system":"http://terminology.hl7.org/CodeSystem/v2-0203","code":"MR"}]},"system":"https://bonnie-fhir.healthit.gov/","value":"617bebf41619a529957d62be"}],"name":[{"family":"DenExcl7Pass","given":["DxStartsBeforeandEndsDuring90DayPeriod"]}],"gender":"female","birthDate":"1985-12-02"},"request":{"method":"PUT","url":"Patient/1ef5e948-acd1-46ae-ab8d-267febd63bb0"}},{"fullUrl":"https://madie.cms.gov/Encounter/9e0cbfb2-bff0-4c42-8d9c-884503a24b41","resource":{"resourceType":"Encounter","id":"9e0cbfb2-bff0-4c42-8d9c-884503a24b41","meta":{"profile":["http://hl7.org/fhir/us/qicore/StructureDefinition/qicore-encounter"]},"status":"finished","class":{"system":"http://terminology.hl7.org/CodeSystem/v3-ActCode","code":"EMER","display":"emergency","userSelected":true},"type":[{"coding":[{"system":"http://snomed.info/sct","version":"2020-09","code":"4525004","display":"Emergency department patient visit (procedure)","userSelected":true}]}],"subject":{"reference":"Patient/1ef5e948-acd1-46ae-ab8d-267febd63bb0"},"period":{"start":"2026-10-09T08:05:00.000+00:00","end":"2026-10-10T07:15:00.000+00:00"}},"request":{"method":"PUT","url":"Encounter/9e0cbfb2-bff0-4c42-8d9c-884503a24b41"}},{"fullUrl":"https://madie.cms.gov/Condition/082aabea-085d-4c3c-89aa-9f29ce264149","resource":{"resourceType":"Condition","id":"082aabea-085d-4c3c-89aa-9f29ce264149","meta":{"profile":["http://hl7.org/fhir/us/qicore/StructureDefinition/qicore-condition"]},"clinicalStatus":{"coding":[{"system":"http://terminology.hl7.org/CodeSystem/condition-clinical","code":"active","display":"active","userSelected":true}]},"category":[{"coding":[{"system":"http://terminology.hl7.org/CodeSystem/condition-category","code":"encounter-diagnosis","display":"Encounter Diagnosis","userSelected":true}]}],"code":{"coding":[{"system":"http://snomed.info/sct","version":"2020-09","code":"401303003","display":"Acute ST segment elevation myocardial infarction (disorder)","userSelected":true}]},"subject":{"reference":"Patient/1ef5e948-acd1-46ae-ab8d-267febd63bb0"},"onsetDateTime":"2026-10-09T08:30:00.000+00:00"},"request":{"method":"PUT","url":"Condition/082aabea-085d-4c3c-89aa-9f29ce264149"}},{"fullUrl":"https://madie.cms.gov/Condition/32f868ac-7950-48b1-9b6e-abff60066636","resource":{"resourceType":"Condition","id":"32f868ac-7950-48b1-9b6e-abff60066636","meta":{"profile":["http://hl7.org/fhir/us/qicore/StructureDefinition/qicore-condition"]},"clinicalStatus":{"coding":[{"system":"http://terminology.hl7.org/CodeSystem/condition-clinical","version":"4.0.1","code":"inactive","display":"Inactive","userSelected":true}]},"category":[{"coding":[{"system":"http://terminology.hl7.org/CodeSystem/condition-category","code":"encounter-diagnosis","display":"Encounter Diagnosis","userSelected":true}]}],"code":{"coding":[{"system":"http://snomed.info/sct","version":"2020-09","code":"162710004","display":"On examination - collapse -cardiac arrest (disorder)","userSelected":true}]},"subject":{"reference":"Patient/1ef5e948-acd1-46ae-ab8d-267febd63bb0"},"onsetDateTime":"2026-01-01T08:00:00.000+00:00","abatementDateTime":"2026-08-20T08:15:00.000+00:00"},"request":{"method":"PUT","url":"Condition/32f868ac-7950-48b1-9b6e-abff60066636"}},{"fullUrl":"https://madie.cms.gov/MeasureReport/4438330a-7f4f-4357-8f7d-38383e5a5379","resource":{"resourceType":"MeasureReport","id":"4438330a-7f4f-4357-8f7d-38383e5a5379","meta":{"profile":["http://hl7.org/fhir/us/cqfmeasures/StructureDefinition/test-case-cqfm"]},"contained":[{"resourceType":"Parameters","id":"dfb0f30a-3f99-4e14-81bf-40999e41bfa1-parameters","parameter":[{"name":"subject","valueString":"1ef5e948-acd1-46ae-ab8d-267febd63bb0"}]}],"extension":[{"url":"http://hl7.org/fhir/us/cqfmeasures/StructureDefinition/cqfm-inputParameters","valueReference":{"reference":"#dfb0f30a-3f99-4e14-81bf-40999e41bfa1-parameters"}},{"url":"http://hl7.org/fhir/us/cqfmeasures/StructureDefinition/cqfm-testCaseDescription","valueMarkdown":"Patient has Cardiopulmonary Arrest (exclusion diagnosis) starts before and ends before 24 hour period"}],"modifierExtension":[{"url":"http://hl7.org/fhir/us/cqfmeasures/StructureDefinition/cqfm-isTestCase","valueBoolean":true}],"status":"complete","type":"individual","measure":"https://madie.cms.gov/Measure/CMS996FHIRAptTxforSTEMI","period":{"start":"2026-01-01","end":"2026-12-31"},"group":[{"population":[{"code":{"coding":[{"system":"http://terminology.hl7.org/CodeSystem/measure-population","code":"initial-population","display":"Initial Population"}]},"count":1},{"code":{"coding":[{"system":"http://terminology.hl7.org/CodeSystem/measure-population","code":"denominator","display":"Denominator"}]},"count":1},{"code":{"coding":[{"system":"http://terminology.hl7.org/CodeSystem/measure-population","code":"denominator-exclusion","display":"Denominator Exclusion"}]},"count":0},{"code":{"coding":[{"system":"http://terminology.hl7.org/CodeSystem/measure-population","code":"numerator","display":"Numerator"}]},"count":0},{"code":{"coding":[{"system":"http://terminology.hl7.org/CodeSystem/measure-population","code":"denominator-exception","display":"Denominator Exception"}]},"count":0}]}]},"request":{"method":"PUT","url":"MeasureReport/4438330a-7f4f-4357-8f7d-38383e5a5379"}}]}