{"resourceType":"Bundle","id":"tests-b4219e21-be97-4f81-8a31-fee0035179c8-bundle","type":"transaction","entry":[{"fullUrl":"https://madie.cms.gov/Patient/b4219e21-be97-4f81-8a31-fee0035179c8","resource":{"resourceType":"Patient","id":"b4219e21-be97-4f81-8a31-fee0035179c8","meta":{"profile":["http://hl7.org/fhir/us/qicore/StructureDefinition/qicore-patient"]},"extension":[{"url":"http://hl7.org/fhir/us/core/StructureDefinition/us-core-race","extension":[{"url":"ombCategory","valueCoding":{"system":"urn:oid:2.16.840.1.113883.6.238","code":"2054-5","display":"Black or African American","userSelected":true}},{"url":"text","valueString":"Black or African American"}]},{"url":"http://hl7.org/fhir/us/core/StructureDefinition/us-core-ethnicity","extension":[{"url":"ombCategory","valueCoding":{"system":"urn:oid:2.16.840.1.113883.6.238","code":"2186-5","display":"Not Hispanic or Latino","userSelected":true}},{"url":"text","valueString":"Not Hispanic or Latino"}]}],"identifier":[{"type":{"coding":[{"system":"http://terminology.hl7.org/CodeSystem/v2-0203","code":"MR"}]},"system":"https://bonnie-fhir.healthit.gov/","value":"NUMERPass-Fibrinolytic30minofEDstart"}],"name":[{"use":"usual","family":"NUMERPass","given":["Fibrinolytic30minofEDstart"]}],"gender":"female","birthDate":"1985-12-02"},"request":{"method":"PUT","url":"Patient/b4219e21-be97-4f81-8a31-fee0035179c8"}},{"fullUrl":"https://madie.cms.gov/Location/26b478a9-7846-4d2b-83a5-17b2cf22e5b7","resource":{"resourceType":"Location","id":"26b478a9-7846-4d2b-83a5-17b2cf22e5b7","meta":{"profile":["http://hl7.org/fhir/us/qicore/StructureDefinition/qicore-location"]},"identifier":[{"use":"usual","system":"http://exampleoflocation.com","value":"ED-1.R3"}],"name":"Emergency Department, first floor","type":[{"coding":[{"system":"http://snomed.info/sct","version":"20210611","code":"4525004","display":"Emergency department patient visit (procedure)","userSelected":true}]},{"coding":[{"system":"http://terminology.hl7.org/CodeSystem/v3-RoleCode","version":"2019","code":"ER","display":"Emergency room","userSelected":true}]},{"coding":[{"system":"https://www.cdc.gov/nhsn/cdaportal/terminology/codesystem/hsloc.html","version":"2022","code":"1108-0","display":"Emergency Department","userSelected":true}]}]},"request":{"method":"PUT","url":"Location/26b478a9-7846-4d2b-83a5-17b2cf22e5b7"}},{"fullUrl":"https://madie.cms.gov/Encounter/a09b4fa8-2d42-4595-a820-8fcb48e0c3b3","resource":{"resourceType":"Encounter","id":"a09b4fa8-2d42-4595-a820-8fcb48e0c3b3","meta":{"profile":["http://hl7.org/fhir/us/qicore/StructureDefinition/qicore-encounter"]},"status":"finished","class":{"system":"http://terminology.hl7.org/CodeSystem/v3-ActCode","code":"EMER","display":"emergency"},"type":[{"coding":[{"system":"http://snomed.info/sct","code":"4525004","display":"Emergency department patient visit (procedure)"}]}],"subject":{"reference":"Patient/b4219e21-be97-4f81-8a31-fee0035179c8"},"period":{"start":"2026-10-09T08:05:00.000+00:00","end":"2026-10-10T07:15:00.000+00:00"},"reasonReference":[{"reference":"Condition/33155925-7e3e-4f3c-b208-ae711e10267c"}],"diagnosis":[{"condition":{"reference":"Condition/28976f51-0cb4-4158-a24f-f07298186347"}}],"location":[{"location":{"reference":"Location/26b478a9-7846-4d2b-83a5-17b2cf22e5b7"},"period":{"start":"2026-10-09T08:05:00.000+00:00","end":"2026-10-10T07:15:00.000+00:00"}}]},"request":{"method":"PUT","url":"Encounter/a09b4fa8-2d42-4595-a820-8fcb48e0c3b3"}},{"fullUrl":"https://madie.cms.gov/Condition/33155925-7e3e-4f3c-b208-ae711e10267c","resource":{"resourceType":"Condition","id":"33155925-7e3e-4f3c-b208-ae711e10267c","meta":{"profile":["http://hl7.org/fhir/us/qicore/StructureDefinition/qicore-condition"]},"clinicalStatus":{"coding":[{"system":"http://terminology.hl7.org/CodeSystem/condition-clinical","code":"active","display":"Active","userSelected":true}]},"verificationStatus":{"coding":[{"system":"http://terminology.hl7.org/CodeSystem/condition-ver-status","code":"confirmed","display":"Confirmed","userSelected":true}]},"category":[{"coding":[{"system":"http://terminology.hl7.org/CodeSystem/condition-category","code":"problem-list-item","display":"Problem List Item","userSelected":true}]}],"code":{"coding":[{"system":"http://snomed.info/sct","code":"401303003","display":"Acute ST segment elevation myocardial infarction (disorder)","userSelected":true}]},"subject":{"reference":"Patient/b4219e21-be97-4f81-8a31-fee0035179c8"},"onsetPeriod":{"start":"2026-10-09T08:10:00.000+00:00"}},"request":{"method":"PUT","url":"Condition/33155925-7e3e-4f3c-b208-ae711e10267c"}},{"fullUrl":"https://madie.cms.gov/Condition/28976f51-0cb4-4158-a24f-f07298186347","resource":{"resourceType":"Condition","id":"28976f51-0cb4-4158-a24f-f07298186347","meta":{"profile":["http://hl7.org/fhir/us/qicore/StructureDefinition/qicore-condition"]},"clinicalStatus":{"coding":[{"system":"http://terminology.hl7.org/CodeSystem/condition-clinical","code":"active","display":"Active","userSelected":true}]},"verificationStatus":{"coding":[{"system":"http://terminology.hl7.org/CodeSystem/condition-ver-status","code":"confirmed","display":"Confirmed","userSelected":true}]},"category":[{"coding":[{"system":"http://terminology.hl7.org/CodeSystem/condition-category","code":"encounter-diagnosis","display":"Encounter Diagnosis","userSelected":true}]}],"code":{"coding":[{"system":"http://hl7.org/fhir/sid/icd-10-cm","code":"I21.09","display":"ST elevation (STEMI) myocardial infarction involving other coronary artery of anterior wall","userSelected":true}]},"subject":{"reference":"Patient/b4219e21-be97-4f81-8a31-fee0035179c8"},"onsetPeriod":{"start":"2026-10-09T08:10:00.000+00:00"}},"request":{"method":"PUT","url":"Condition/28976f51-0cb4-4158-a24f-f07298186347"}},{"fullUrl":"https://madie.cms.gov/MedicationAdministration/bf18e3e3-4b16-4201-a5ea-4a4335ecdbe4","resource":{"resourceType":"MedicationAdministration","id":"bf18e3e3-4b16-4201-a5ea-4a4335ecdbe4","meta":{"profile":["http://hl7.org/fhir/us/qicore/StructureDefinition/qicore-medicationadministration"]},"status":"completed","medicationCodeableConcept":{"coding":[{"system":"http://www.nlm.nih.gov/research/umls/rxnorm","version":"2023-07","code":"1804804","display":"alteplase 50 MG Injection","userSelected":true}]},"subject":{"reference":"Patient/b4219e21-be97-4f81-8a31-fee0035179c8"},"effectiveDateTime":"2026-10-09T08:35:00.000+00:00"},"request":{"method":"PUT","url":"MedicationAdministration/bf18e3e3-4b16-4201-a5ea-4a4335ecdbe4"}},{"fullUrl":"https://madie.cms.gov/Coverage/794aa37c-10cb-4577-860f-7e4f4c6cd677","resource":{"resourceType":"Coverage","id":"794aa37c-10cb-4577-860f-7e4f4c6cd677","meta":{"profile":["http://hl7.org/fhir/us/qicore/StructureDefinition/qicore-coverage"]},"status":"active","type":{"coding":[{"system":"https://nahdo.org/sopt","code":"1","display":"MEDICARE"}]},"beneficiary":{"reference":"Patient/b4219e21-be97-4f81-8a31-fee0035179c8"},"payor":[{"reference":"Organization/4da248b0-6e59-49b7-b80e-338aa21d299f"}]},"request":{"method":"PUT","url":"Coverage/794aa37c-10cb-4577-860f-7e4f4c6cd677"}},{"fullUrl":"https://madie.cms.gov/Organization/1aeb565a-624d-4431-b35f-f946553b076e","resource":{"resourceType":"Organization","id":"4da248b0-6e59-49b7-b80e-338aa21d299f","meta":{"profile":["http://hl7.org/fhir/us/qicore/StructureDefinition/qicore-organization"]},"identifier":[{"use":"temp","system":"urn:oid:2.16.840.1.113883.4.4","value":"21-3259825"}],"active":true,"type":[{"coding":[{"system":"http://terminology.hl7.org/CodeSystem/organization-type","code":"pay","display":"Payer"}]}],"name":"Blue Cross Blue Shield of Texas","telecom":[{"system":"phone","value":"(+1) 972-766-6900"}],"address":[{"use":"billing","type":"postal","line":["P.O. Box 660044"],"city":"Dallas","state":"TX","postalCode":"75266-0044","country":"USA"}]},"request":{"method":"PUT","url":"Organization/4da248b0-6e59-49b7-b80e-338aa21d299f"}},{"fullUrl":"https://madie.cms.gov/Practitioner/cc1a14f1-3cf6-49ce-8fbd-75de06f1c34d","resource":{"resourceType":"Practitioner","id":"cc1a14f1-3cf6-49ce-8fbd-75de06f1c34d","meta":{"profile":["http://hl7.org/fhir/us/qicore/StructureDefinition/qicore-practitioner"]},"identifier":[{"system":"http://hl7.org/fhir/sid/us-npi","value":"123456"}],"name":[{"family":"Evil","prefix":["Dr"]}]},"request":{"method":"PUT","url":"Practitioner/cc1a14f1-3cf6-49ce-8fbd-75de06f1c34d"}},{"fullUrl":"https://madie.cms.gov/MeasureReport/4a4d5455-eedc-4751-b931-edededa01c7e","resource":{"resourceType":"MeasureReport","id":"4a4d5455-eedc-4751-b931-edededa01c7e","meta":{"profile":["http://hl7.org/fhir/us/cqfmeasures/StructureDefinition/test-case-cqfm"]},"contained":[{"resourceType":"Parameters","id":"6af69dfb-d4d8-43e0-ac82-4a95aa5cec65-parameters","parameter":[{"name":"subject","valueString":"b4219e21-be97-4f81-8a31-fee0035179c8"}]}],"extension":[{"url":"http://hl7.org/fhir/us/cqfmeasures/StructureDefinition/cqfm-inputParameters","valueReference":{"reference":"#6af69dfb-d4d8-43e0-ac82-4a95aa5cec65-parameters"}},{"url":"http://hl7.org/fhir/us/cqfmeasures/StructureDefinition/cqfm-testCaseDescription","valueMarkdown":"Fibrinolytic Therapy 30 minutes of ED start"}],"modifierExtension":[{"url":"http://hl7.org/fhir/us/cqfmeasures/StructureDefinition/cqfm-isTestCase","valueBoolean":true}],"status":"complete","type":"individual","measure":"https://madie.cms.gov/Measure/CMS996FHIRAptTxforSTEMI","period":{"start":"2026-01-01","end":"2026-12-31"},"group":[{"population":[{"code":{"coding":[{"system":"http://terminology.hl7.org/CodeSystem/measure-population","code":"initial-population","display":"Initial Population"}]},"count":1},{"code":{"coding":[{"system":"http://terminology.hl7.org/CodeSystem/measure-population","code":"denominator","display":"Denominator"}]},"count":1},{"code":{"coding":[{"system":"http://terminology.hl7.org/CodeSystem/measure-population","code":"denominator-exclusion","display":"Denominator Exclusion"}]},"count":0},{"code":{"coding":[{"system":"http://terminology.hl7.org/CodeSystem/measure-population","code":"numerator","display":"Numerator"}]},"count":1},{"code":{"coding":[{"system":"http://terminology.hl7.org/CodeSystem/measure-population","code":"denominator-exception","display":"Denominator Exception"}]},"count":0}]}]},"request":{"method":"PUT","url":"MeasureReport/4a4d5455-eedc-4751-b931-edededa01c7e"}}]}