{"resourceType":"Bundle","id":"tests-816296ad-a84a-48a9-89e4-38817c7e0c8b-bundle","type":"transaction","entry":[{"fullUrl":"https://madie.cms.gov/Patient/816296ad-a84a-48a9-89e4-38817c7e0c8b","resource":{"resourceType":"Patient","id":"816296ad-a84a-48a9-89e4-38817c7e0c8b","meta":{"profile":["http://hl7.org/fhir/us/qicore/StructureDefinition/qicore-patient"]},"extension":[{"url":"http://hl7.org/fhir/us/core/StructureDefinition/us-core-race","extension":[{"url":"ombCategory","valueCoding":{"system":"urn:oid:2.16.840.1.113883.6.238","code":"2076-8","display":"Native Hawaiian or Other Pacific Islander","userSelected":true}},{"url":"text","valueString":"Native Hawaiian or Other Pacific Islander"}]},{"url":"http://hl7.org/fhir/us/core/StructureDefinition/us-core-ethnicity","extension":[{"url":"ombCategory","valueCoding":{"system":"urn:oid:2.16.840.1.113883.6.238","code":"2186-5","display":"Not Hispanic or Latino","userSelected":true}},{"url":"text","valueString":"Not Hispanic or Latino"}]}],"identifier":[{"type":{"coding":[{"system":"http://terminology.hl7.org/CodeSystem/v2-0203","code":"MR"}]},"system":"https://bonnie-fhir.healthit.gov/","value":"66328b236cea4124ba3e75a7"}],"name":[{"family":"DenExcl7Pass","given":["DxStartsDuring90DayPeriodNoAbatementCardiac"]}],"gender":"female","birthDate":"1985-12-02"},"request":{"method":"PUT","url":"Patient/816296ad-a84a-48a9-89e4-38817c7e0c8b"}},{"fullUrl":"https://madie.cms.gov/Encounter/55eaed87-7546-4d5f-980d-df2d34d693de","resource":{"resourceType":"Encounter","id":"55eaed87-7546-4d5f-980d-df2d34d693de","meta":{"profile":["http://hl7.org/fhir/us/qicore/StructureDefinition/qicore-encounter"]},"status":"finished","class":{"system":"http://terminology.hl7.org/CodeSystem/v3-ActCode","code":"EMER","display":"emergency","userSelected":true},"type":[{"coding":[{"system":"http://snomed.info/sct","version":"2020-09","code":"4525004","display":"Emergency department patient visit (procedure)","userSelected":true}]}],"subject":{"reference":"Patient/816296ad-a84a-48a9-89e4-38817c7e0c8b"},"period":{"start":"2026-10-09T08:05:00.000+00:00","end":"2026-10-10T07:15:00.000+00:00"}},"request":{"method":"PUT","url":"Encounter/55eaed87-7546-4d5f-980d-df2d34d693de"}},{"fullUrl":"https://madie.cms.gov/Condition/eea73fcb-a016-44c5-9564-dca1c4236582","resource":{"resourceType":"Condition","id":"eea73fcb-a016-44c5-9564-dca1c4236582","meta":{"profile":["http://hl7.org/fhir/us/qicore/StructureDefinition/qicore-condition"]},"clinicalStatus":{"coding":[{"system":"http://terminology.hl7.org/CodeSystem/condition-clinical","code":"active","display":"active","userSelected":true}]},"category":[{"coding":[{"system":"http://terminology.hl7.org/CodeSystem/condition-category","code":"encounter-diagnosis","display":"Encounter Diagnosis","userSelected":true}]}],"code":{"coding":[{"system":"http://snomed.info/sct","version":"2020-09","code":"401303003","display":"Acute ST segment elevation myocardial infarction (disorder)","userSelected":true}]},"subject":{"reference":"Patient/816296ad-a84a-48a9-89e4-38817c7e0c8b"},"onsetDateTime":"2026-10-09T08:30:00.000+00:00"},"request":{"method":"PUT","url":"Condition/eea73fcb-a016-44c5-9564-dca1c4236582"}},{"fullUrl":"https://madie.cms.gov/Condition/64005d29-6911-4a22-ac11-88571bf32d5d","resource":{"resourceType":"Condition","id":"64005d29-6911-4a22-ac11-88571bf32d5d","meta":{"profile":["http://hl7.org/fhir/us/qicore/StructureDefinition/qicore-condition"]},"clinicalStatus":{"coding":[{"system":"http://terminology.hl7.org/CodeSystem/condition-clinical","code":"active","display":"active","userSelected":true}]},"category":[{"coding":[{"system":"http://terminology.hl7.org/CodeSystem/condition-category","code":"problem-list-item","display":"Problem List Item","userSelected":true}]}],"code":{"coding":[{"system":"http://snomed.info/sct","version":"2020-09","code":"405806007","display":"On examination - collapse -cardiac arrest (disorder)","userSelected":true}]},"subject":{"reference":"Patient/816296ad-a84a-48a9-89e4-38817c7e0c8b"},"onsetDateTime":"2026-10-09T06:00:00.000+00:00"},"request":{"method":"PUT","url":"Condition/64005d29-6911-4a22-ac11-88571bf32d5d"}},{"fullUrl":"https://madie.cms.gov/Coverage/bc02c298-c043-422a-88da-1cf954ad6aa4","resource":{"resourceType":"Coverage","id":"bc02c298-c043-422a-88da-1cf954ad6aa4","meta":{"profile":["http://hl7.org/fhir/us/qicore/StructureDefinition/qicore-coverage"]},"status":"active","beneficiary":{"reference":"Patient/816296ad-a84a-48a9-89e4-38817c7e0c8b"},"payor":[{"reference":"Organization/5224cb12-ed64-4d6d-ab28-40a64f0800f1"}]},"request":{"method":"PUT","url":"Coverage/bc02c298-c043-422a-88da-1cf954ad6aa4"}},{"fullUrl":"https://madie.cms.gov/Organization/3ec02361-d79d-4374-b231-e90fc8a8cd5d","resource":{"resourceType":"Organization","id":"5224cb12-ed64-4d6d-ab28-40a64f0800f1","meta":{"profile":["http://hl7.org/fhir/us/qicore/StructureDefinition/qicore-organization"]},"identifier":[{"use":"temp","system":"urn:oid:2.16.840.1.113883.4.4","value":"21-3259825"}],"active":true,"type":[{"coding":[{"system":"http://terminology.hl7.org/CodeSystem/organization-type","code":"pay","display":"Payer"}]}],"name":"Blue Cross Blue Shield of Texas","telecom":[{"system":"phone","value":"(+1) 972-766-6900"}],"address":[{"use":"billing","type":"postal","line":["P.O. Box 660044"],"city":"Dallas","state":"TX","postalCode":"75266-0044","country":"USA"}]},"request":{"method":"PUT","url":"Organization/5224cb12-ed64-4d6d-ab28-40a64f0800f1"}},{"fullUrl":"https://madie.cms.gov/Practitioner/0403a1fb-d4d7-47b0-91ae-ec7ea6206280","resource":{"resourceType":"Practitioner","id":"0403a1fb-d4d7-47b0-91ae-ec7ea6206280","meta":{"profile":["http://hl7.org/fhir/us/qicore/StructureDefinition/qicore-practitioner"]},"identifier":[{"system":"http://hl7.org/fhir/sid/us-npi","value":"123456"}],"name":[{"family":"Evil","prefix":["Dr"]}]},"request":{"method":"PUT","url":"Practitioner/0403a1fb-d4d7-47b0-91ae-ec7ea6206280"}},{"fullUrl":"https://madie.cms.gov/MeasureReport/9e6a2a40-f4d4-4982-8d32-9887e72af36a","resource":{"resourceType":"MeasureReport","id":"9e6a2a40-f4d4-4982-8d32-9887e72af36a","meta":{"profile":["http://hl7.org/fhir/us/cqfmeasures/StructureDefinition/test-case-cqfm"]},"contained":[{"resourceType":"Parameters","id":"7c3b6699-fc6f-45d5-8cf0-831946f54664-parameters","parameter":[{"name":"subject","valueString":"816296ad-a84a-48a9-89e4-38817c7e0c8b"}]}],"extension":[{"url":"http://hl7.org/fhir/us/cqfmeasures/StructureDefinition/cqfm-inputParameters","valueReference":{"reference":"#7c3b6699-fc6f-45d5-8cf0-831946f54664-parameters"}},{"url":"http://hl7.org/fhir/us/cqfmeasures/StructureDefinition/cqfm-testCaseDescription","valueMarkdown":"Patient has STEMI diagnosis during ED Encounter with Cardiopulmonary arrest diagnosis within 24 hours before and no abatement."}],"modifierExtension":[{"url":"http://hl7.org/fhir/us/cqfmeasures/StructureDefinition/cqfm-isTestCase","valueBoolean":true}],"status":"complete","type":"individual","measure":"https://madie.cms.gov/Measure/CMS996FHIRAptTxforSTEMI","period":{"start":"2026-01-01","end":"2026-12-31"},"group":[{"population":[{"code":{"coding":[{"system":"http://terminology.hl7.org/CodeSystem/measure-population","code":"initial-population","display":"Initial Population"}]},"count":1},{"code":{"coding":[{"system":"http://terminology.hl7.org/CodeSystem/measure-population","code":"denominator","display":"Denominator"}]},"count":1},{"code":{"coding":[{"system":"http://terminology.hl7.org/CodeSystem/measure-population","code":"denominator-exclusion","display":"Denominator Exclusion"}]},"count":1},{"code":{"coding":[{"system":"http://terminology.hl7.org/CodeSystem/measure-population","code":"numerator","display":"Numerator"}]},"count":0},{"code":{"coding":[{"system":"http://terminology.hl7.org/CodeSystem/measure-population","code":"denominator-exception","display":"Denominator Exception"}]},"count":0}]}]},"request":{"method":"PUT","url":"MeasureReport/9e6a2a40-f4d4-4982-8d32-9887e72af36a"}}]}