{"resourceType":"Bundle","id":"tests-b05b93b0-e1a1-4b6e-b905-171d4bca2775-bundle","type":"transaction","entry":[{"fullUrl":"https://madie.cms.gov/Patient/b05b93b0-e1a1-4b6e-b905-171d4bca2775","resource":{"resourceType":"Patient","id":"b05b93b0-e1a1-4b6e-b905-171d4bca2775","meta":{"profile":["http://hl7.org/fhir/us/qicore/StructureDefinition/qicore-patient"]},"extension":[{"url":"http://hl7.org/fhir/us/core/StructureDefinition/us-core-race","extension":[{"url":"ombCategory","valueCoding":{"system":"urn:oid:2.16.840.1.113883.6.238","code":"2054-5","display":"Black or African American","userSelected":true}},{"url":"text","valueString":"Black or African American"}]},{"url":"http://hl7.org/fhir/us/core/StructureDefinition/us-core-ethnicity","extension":[{"url":"ombCategory","valueCoding":{"system":"urn:oid:2.16.840.1.113883.6.238","code":"2186-5","display":"Not Hispanic or Latino","userSelected":true}},{"url":"text","valueString":"Not Hispanic or Latino"}]}],"identifier":[{"type":{"coding":[{"system":"http://terminology.hl7.org/CodeSystem/v2-0203","code":"MR"}]},"system":"https://bonnie-fhir.healthit.gov/","value":"617bf0b11619a529957d62c3"}],"name":[{"family":"DenExcl7Pass","given":["DxStartsDuring90dayPeriodNoEnd"]}],"gender":"female","birthDate":"1985-12-02"},"request":{"method":"PUT","url":"Patient/b05b93b0-e1a1-4b6e-b905-171d4bca2775"}},{"fullUrl":"https://madie.cms.gov/Encounter/a2788512-833c-421e-896b-3528c8bcd4c8","resource":{"resourceType":"Encounter","id":"a2788512-833c-421e-896b-3528c8bcd4c8","meta":{"profile":["http://hl7.org/fhir/us/qicore/StructureDefinition/qicore-encounter"]},"status":"finished","class":{"system":"http://terminology.hl7.org/CodeSystem/v3-ActCode","code":"EMER","display":"emergency","userSelected":true},"type":[{"coding":[{"system":"http://snomed.info/sct","version":"2020-09","code":"4525004","display":"Emergency department patient visit (procedure)","userSelected":true}]}],"subject":{"reference":"Patient/b05b93b0-e1a1-4b6e-b905-171d4bca2775"},"period":{"start":"2026-10-09T08:05:00.000+00:00","end":"2026-10-10T07:15:00.000+00:00"}},"request":{"method":"PUT","url":"Encounter/a2788512-833c-421e-896b-3528c8bcd4c8"}},{"fullUrl":"https://madie.cms.gov/Condition/6a730dc1-8d0a-4589-8486-065e874f16ce","resource":{"resourceType":"Condition","id":"6a730dc1-8d0a-4589-8486-065e874f16ce","meta":{"profile":["http://hl7.org/fhir/us/qicore/StructureDefinition/qicore-condition"]},"clinicalStatus":{"coding":[{"system":"http://terminology.hl7.org/CodeSystem/condition-clinical","code":"active","display":"active","userSelected":true}]},"category":[{"coding":[{"system":"http://terminology.hl7.org/CodeSystem/condition-category","code":"encounter-diagnosis","display":"Encounter Diagnosis","userSelected":true}]}],"code":{"coding":[{"system":"http://snomed.info/sct","version":"2020-09","code":"401303003","display":"Acute ST segment elevation myocardial infarction (disorder)","userSelected":true}]},"subject":{"reference":"Patient/b05b93b0-e1a1-4b6e-b905-171d4bca2775"},"onsetDateTime":"2026-10-09T08:30:00.000+00:00"},"request":{"method":"PUT","url":"Condition/6a730dc1-8d0a-4589-8486-065e874f16ce"}},{"fullUrl":"https://madie.cms.gov/Condition/31bea82f-d4b0-4186-ac02-b0e17514d921","resource":{"resourceType":"Condition","id":"31bea82f-d4b0-4186-ac02-b0e17514d921","meta":{"profile":["http://hl7.org/fhir/us/qicore/StructureDefinition/qicore-condition"]},"clinicalStatus":{"coding":[{"system":"http://terminology.hl7.org/CodeSystem/condition-clinical","code":"active","display":"active","userSelected":true}]},"category":[{"coding":[{"system":"http://terminology.hl7.org/CodeSystem/condition-category","code":"problem-list-item","display":"Problem List Item","userSelected":true}]}],"code":{"coding":[{"system":"http://snomed.info/sct","version":"2020-09","code":"111353003","display":"Acute peptic ulcer with hemorrhage and perforation (disorder)","userSelected":true}]},"subject":{"reference":"Patient/b05b93b0-e1a1-4b6e-b905-171d4bca2775"},"onsetDateTime":"2026-08-20T08:00:00.000+00:00"},"request":{"method":"PUT","url":"Condition/31bea82f-d4b0-4186-ac02-b0e17514d921"}},{"fullUrl":"https://madie.cms.gov/MeasureReport/6163efa7-ca16-418d-a4c4-10be1f20bd95","resource":{"resourceType":"MeasureReport","id":"6163efa7-ca16-418d-a4c4-10be1f20bd95","meta":{"profile":["http://hl7.org/fhir/us/cqfmeasures/StructureDefinition/test-case-cqfm"]},"contained":[{"resourceType":"Parameters","id":"2e6ceeaf-4f96-4b1a-abe1-64dc59b8ba99-parameters","parameter":[{"name":"subject","valueString":"b05b93b0-e1a1-4b6e-b905-171d4bca2775"}]}],"extension":[{"url":"http://hl7.org/fhir/us/cqfmeasures/StructureDefinition/cqfm-inputParameters","valueReference":{"reference":"#2e6ceeaf-4f96-4b1a-abe1-64dc59b8ba99-parameters"}},{"url":"http://hl7.org/fhir/us/cqfmeasures/StructureDefinition/cqfm-testCaseDescription","valueMarkdown":"Patient has active peptic ulcer (exclusion diagnosis) starts during 90 day period and no end"}],"modifierExtension":[{"url":"http://hl7.org/fhir/us/cqfmeasures/StructureDefinition/cqfm-isTestCase","valueBoolean":true}],"status":"complete","type":"individual","measure":"https://madie.cms.gov/Measure/CMS996FHIRAptTxforSTEMI","period":{"start":"2026-01-01","end":"2026-12-31"},"group":[{"population":[{"code":{"coding":[{"system":"http://terminology.hl7.org/CodeSystem/measure-population","code":"initial-population","display":"Initial Population"}]},"count":1},{"code":{"coding":[{"system":"http://terminology.hl7.org/CodeSystem/measure-population","code":"denominator","display":"Denominator"}]},"count":1},{"code":{"coding":[{"system":"http://terminology.hl7.org/CodeSystem/measure-population","code":"denominator-exclusion","display":"Denominator Exclusion"}]},"count":1},{"code":{"coding":[{"system":"http://terminology.hl7.org/CodeSystem/measure-population","code":"numerator","display":"Numerator"}]},"count":0},{"code":{"coding":[{"system":"http://terminology.hl7.org/CodeSystem/measure-population","code":"denominator-exception","display":"Denominator Exception"}]},"count":0}]}]},"request":{"method":"PUT","url":"MeasureReport/6163efa7-ca16-418d-a4c4-10be1f20bd95"}}]}