{"resourceType":"Bundle","id":"tests-4aaf0b0a-ccc6-47a5-bfdf-ef7399a9aad2-bundle","type":"transaction","entry":[{"fullUrl":"https://madie.cms.gov/Patient/4aaf0b0a-ccc6-47a5-bfdf-ef7399a9aad2","resource":{"resourceType":"Patient","id":"4aaf0b0a-ccc6-47a5-bfdf-ef7399a9aad2","meta":{"profile":["http://hl7.org/fhir/us/qicore/StructureDefinition/qicore-patient"]},"extension":[{"url":"http://hl7.org/fhir/us/core/StructureDefinition/us-core-race","extension":[{"url":"ombCategory","valueCoding":{"system":"urn:oid:2.16.840.1.113883.6.238","code":"2076-8","display":"Native Hawaiian or Other Pacific Islander","userSelected":true}},{"url":"text","valueString":"Native Hawaiian or Other Pacific Islander"}]},{"url":"http://hl7.org/fhir/us/core/StructureDefinition/us-core-ethnicity","extension":[{"url":"ombCategory","valueCoding":{"system":"urn:oid:2.16.840.1.113883.6.238","code":"2186-5","display":"Not Hispanic or Latino","userSelected":true}},{"url":"text","valueString":"Not Hispanic or Latino"}]}],"identifier":[{"type":{"coding":[{"system":"http://terminology.hl7.org/CodeSystem/v2-0203","code":"MR"}]},"system":"https://bonnie-fhir.healthit.gov/","value":"617ad5701e8170ac98fce635"}],"name":[{"family":"12IPFail","given":["EncAfterMP"]}],"gender":"female","birthDate":"1986-12-02"},"request":{"method":"PUT","url":"Patient/4aaf0b0a-ccc6-47a5-bfdf-ef7399a9aad2"}},{"fullUrl":"https://madie.cms.gov/Encounter/1e5cae33-3b3d-4ffb-9130-7dad77dc832f","resource":{"resourceType":"Encounter","id":"1e5cae33-3b3d-4ffb-9130-7dad77dc832f","meta":{"profile":["http://hl7.org/fhir/us/qicore/StructureDefinition/qicore-encounter"]},"status":"finished","class":{"system":"http://terminology.hl7.org/CodeSystem/v3-ActCode","code":"EMER","display":"Emergency"},"type":[{"coding":[{"system":"http://snomed.info/sct","version":"2020-09","code":"4525004","display":"Emergency department patient visit (procedure)","userSelected":true}]}],"subject":{"reference":"Patient/4aaf0b0a-ccc6-47a5-bfdf-ef7399a9aad2"},"period":{"start":"2027-10-09T08:05:00.000+00:00","end":"2027-10-10T07:15:00.000+00:00"},"diagnosis":[{"condition":{"reference":"Condition/41ba7310-0bdf-45cc-bd49-24423109dc22"}}]},"request":{"method":"PUT","url":"Encounter/1e5cae33-3b3d-4ffb-9130-7dad77dc832f"}},{"fullUrl":"https://madie.cms.gov/Condition/41ba7310-0bdf-45cc-bd49-24423109dc22","resource":{"resourceType":"Condition","id":"41ba7310-0bdf-45cc-bd49-24423109dc22","meta":{"profile":["http://hl7.org/fhir/us/qicore/StructureDefinition/qicore-condition"]},"clinicalStatus":{"coding":[{"system":"http://terminology.hl7.org/CodeSystem/condition-clinical","code":"active","display":"active","userSelected":true}]},"category":[{"coding":[{"system":"http://terminology.hl7.org/CodeSystem/condition-category","code":"encounter-diagnosis","display":"Encounter Diagnosis"}]}],"code":{"coding":[{"system":"http://snomed.info/sct","version":"2020-09","code":"401303003","display":"Acute ST segment elevation myocardial infarction (disorder)","userSelected":true}]},"subject":{"reference":"Patient/4aaf0b0a-ccc6-47a5-bfdf-ef7399a9aad2"},"recordedDate":"2026-10-09T08:00:00.000+00:00"},"request":{"method":"PUT","url":"Condition/41ba7310-0bdf-45cc-bd49-24423109dc22"}},{"fullUrl":"https://madie.cms.gov/Coverage/5cf55e39-499c-4302-a5bf-c2a66eb1eed6","resource":{"resourceType":"Coverage","id":"5cf55e39-499c-4302-a5bf-c2a66eb1eed6","meta":{"profile":["http://hl7.org/fhir/us/qicore/StructureDefinition/qicore-coverage"]},"status":"active","beneficiary":{"reference":"Patient/4aaf0b0a-ccc6-47a5-bfdf-ef7399a9aad2"},"payor":[{"reference":"Organization/3778262e-e084-4bb5-9a47-1a144735f786"}]},"request":{"method":"PUT","url":"Coverage/5cf55e39-499c-4302-a5bf-c2a66eb1eed6"}},{"fullUrl":"https://madie.cms.gov/Organization/052e4d6a-5cdc-447a-86fc-a13d0f76c43f","resource":{"resourceType":"Organization","id":"3778262e-e084-4bb5-9a47-1a144735f786","meta":{"profile":["http://hl7.org/fhir/us/qicore/StructureDefinition/qicore-organization"]},"identifier":[{"use":"temp","system":"urn:oid:2.16.840.1.113883.4.4","value":"21-3259825"}],"active":true,"type":[{"coding":[{"system":"http://terminology.hl7.org/CodeSystem/organization-type","code":"pay","display":"Payer"}]}],"name":"Blue Cross Blue Shield of Texas","telecom":[{"system":"phone","value":"(+1) 972-766-6900"}],"address":[{"use":"billing","type":"postal","line":["P.O. Box 660044"],"city":"Dallas","state":"TX","postalCode":"75266-0044","country":"USA"}]},"request":{"method":"PUT","url":"Organization/3778262e-e084-4bb5-9a47-1a144735f786"}},{"fullUrl":"https://madie.cms.gov/Practitioner/39cd27e6-bb71-45b8-ac6a-4cecdb9d1ded","resource":{"resourceType":"Practitioner","id":"39cd27e6-bb71-45b8-ac6a-4cecdb9d1ded","meta":{"profile":["http://hl7.org/fhir/us/qicore/StructureDefinition/qicore-practitioner"]},"identifier":[{"system":"http://hl7.org/fhir/sid/us-npi","value":"123456"}],"name":[{"family":"Evil","prefix":["Dr"]}]},"request":{"method":"PUT","url":"Practitioner/39cd27e6-bb71-45b8-ac6a-4cecdb9d1ded"}},{"fullUrl":"https://madie.cms.gov/MeasureReport/7b7d5dd2-fa6f-4a7d-9eb9-7ff781b27944","resource":{"resourceType":"MeasureReport","id":"7b7d5dd2-fa6f-4a7d-9eb9-7ff781b27944","meta":{"profile":["http://hl7.org/fhir/us/cqfmeasures/StructureDefinition/test-case-cqfm"]},"contained":[{"resourceType":"Parameters","id":"715e0d94-f6b1-496a-a3eb-6580868f7c74-parameters","parameter":[{"name":"subject","valueString":"4aaf0b0a-ccc6-47a5-bfdf-ef7399a9aad2"}]}],"extension":[{"url":"http://hl7.org/fhir/us/cqfmeasures/StructureDefinition/cqfm-inputParameters","valueReference":{"reference":"#715e0d94-f6b1-496a-a3eb-6580868f7c74-parameters"}},{"url":"http://hl7.org/fhir/us/cqfmeasures/StructureDefinition/cqfm-testCaseDescription","valueMarkdown":"Patient is over 18 years old and has an encounter after the MP"}],"modifierExtension":[{"url":"http://hl7.org/fhir/us/cqfmeasures/StructureDefinition/cqfm-isTestCase","valueBoolean":true}],"status":"complete","type":"individual","measure":"https://madie.cms.gov/Measure/CMS996FHIRAptTxforSTEMI","period":{"start":"2026-01-01","end":"2026-12-31"},"group":[{"population":[{"code":{"coding":[{"system":"http://terminology.hl7.org/CodeSystem/measure-population","code":"initial-population","display":"Initial Population"}]},"count":0},{"code":{"coding":[{"system":"http://terminology.hl7.org/CodeSystem/measure-population","code":"denominator","display":"Denominator"}]},"count":0},{"code":{"coding":[{"system":"http://terminology.hl7.org/CodeSystem/measure-population","code":"denominator-exclusion","display":"Denominator Exclusion"}]},"count":0},{"code":{"coding":[{"system":"http://terminology.hl7.org/CodeSystem/measure-population","code":"numerator","display":"Numerator"}]},"count":0},{"code":{"coding":[{"system":"http://terminology.hl7.org/CodeSystem/measure-population","code":"denominator-exception","display":"Denominator Exception"}]},"count":0}]}]},"request":{"method":"PUT","url":"MeasureReport/7b7d5dd2-fa6f-4a7d-9eb9-7ff781b27944"}}]}