{"resourceType":"Bundle","id":"tests-e050879d-9d2a-4ecc-855c-16e83906cde0-bundle","type":"transaction","entry":[{"fullUrl":"https://madie.cms.gov/Patient/e050879d-9d2a-4ecc-855c-16e83906cde0","resource":{"resourceType":"Patient","id":"e050879d-9d2a-4ecc-855c-16e83906cde0","meta":{"profile":["http://hl7.org/fhir/us/qicore/StructureDefinition/qicore-patient"]},"extension":[{"url":"http://hl7.org/fhir/us/core/StructureDefinition/us-core-race","extension":[{"url":"ombCategory","valueCoding":{"system":"urn:oid:2.16.840.1.113883.6.238","code":"1002-5","display":"American Indian or Alaska Native","userSelected":true}},{"url":"text","valueString":"American Indian or Alaska Native"}]},{"url":"http://hl7.org/fhir/us/core/StructureDefinition/us-core-ethnicity","extension":[{"url":"ombCategory","valueCoding":{"system":"urn:oid:2.16.840.1.113883.6.238","code":"2135-2","display":"Hispanic or Latino","userSelected":true}},{"url":"text","valueString":"Hispanic or Latino"}]}],"identifier":[{"type":{"coding":[{"system":"http://terminology.hl7.org/CodeSystem/v2-0203","code":"MR"}]},"system":"https://bonnie-fhir.healthit.gov/","value":"54d9e002-1199-4223-9bdf-c39a312ae8af"}],"name":[{"family":"DENEXCL11PASS","given":["HospiceAssessmentDateTimeBeforeED"]}],"gender":"male","birthDate":"1949-05-12"},"request":{"method":"PUT","url":"Patient/e050879d-9d2a-4ecc-855c-16e83906cde0"}},{"fullUrl":"https://madie.cms.gov/Encounter/c45ffe3f-36aa-4dc7-b9d5-ebb78fd46a85","resource":{"resourceType":"Encounter","id":"c45ffe3f-36aa-4dc7-b9d5-ebb78fd46a85","meta":{"profile":["http://hl7.org/fhir/us/qicore/StructureDefinition/qicore-encounter"]},"status":"finished","class":{"system":"http://terminology.hl7.org/CodeSystem/v3-ActCode","code":"EMER","display":"emergency","userSelected":true},"type":[{"coding":[{"system":"http://snomed.info/sct","version":"2020-09","code":"4525004","display":"Emergency department patient visit","userSelected":true}]}],"subject":{"reference":"Patient/e050879d-9d2a-4ecc-855c-16e83906cde0"},"period":{"start":"2026-10-09T05:00:00.000+00:00","end":"2026-10-13T17:00:00.000+00:00"},"reasonCode":[{"coding":[{"system":"http://hl7.org/fhir/sid/icd-10-cm","code":"I21.21","display":"ST elevation (STEMI) myocardial infarction involving left circumflex coronary artery","userSelected":true}]}]},"request":{"method":"PUT","url":"Encounter/c45ffe3f-36aa-4dc7-b9d5-ebb78fd46a85"}},{"fullUrl":"https://madie.cms.gov/Observation/1dc71506-3947-4aa5-8910-27ffa00e9594","resource":{"resourceType":"Observation","id":"1dc71506-3947-4aa5-8910-27ffa00e9594","meta":{"profile":["http://hl7.org/fhir/us/qicore/StructureDefinition/qicore-observation"]},"status":"final","category":[{"coding":[{"system":"http://terminology.hl7.org/CodeSystem/observation-category","code":"survey","display":"Survey","userSelected":true}]}],"code":{"coding":[{"system":"http://loinc.org","code":"45755-6","display":"Hospice care [Minimum Data Set]","userSelected":true}]},"subject":{"reference":"Patient/e050879d-9d2a-4ecc-855c-16e83906cde0"},"effectiveDateTime":"2026-08-03T02:00:00.000+00:00","valueCodeableConcept":{"coding":[{"system":"http://snomed.info/sct","code":"373066001","display":"Yes (qualifier value)","userSelected":true}]}},"request":{"method":"PUT","url":"Observation/1dc71506-3947-4aa5-8910-27ffa00e9594"}},{"fullUrl":"https://madie.cms.gov/MeasureReport/fbfef920-177d-4ddf-b27c-d4eb44a3c53d","resource":{"resourceType":"MeasureReport","id":"fbfef920-177d-4ddf-b27c-d4eb44a3c53d","meta":{"profile":["http://hl7.org/fhir/us/cqfmeasures/StructureDefinition/test-case-cqfm"]},"contained":[{"resourceType":"Parameters","id":"532298f0-7a9b-437c-976a-8daac831ca00-parameters","parameter":[{"name":"subject","valueString":"e050879d-9d2a-4ecc-855c-16e83906cde0"}]}],"extension":[{"url":"http://hl7.org/fhir/us/cqfmeasures/StructureDefinition/cqfm-inputParameters","valueReference":{"reference":"#532298f0-7a9b-437c-976a-8daac831ca00-parameters"}},{"url":"http://hl7.org/fhir/us/cqfmeasures/StructureDefinition/cqfm-testCaseDescription","valueMarkdown":"Hospice Assessment effective date time before ED stay"}],"modifierExtension":[{"url":"http://hl7.org/fhir/us/cqfmeasures/StructureDefinition/cqfm-isTestCase","valueBoolean":true}],"status":"complete","type":"individual","measure":"https://madie.cms.gov/Measure/CMS996FHIRAptTxforSTEMI","period":{"start":"2026-01-01","end":"2026-12-31"},"group":[{"population":[{"code":{"coding":[{"system":"http://terminology.hl7.org/CodeSystem/measure-population","code":"initial-population","display":"Initial Population"}]},"count":1},{"code":{"coding":[{"system":"http://terminology.hl7.org/CodeSystem/measure-population","code":"denominator","display":"Denominator"}]},"count":1},{"code":{"coding":[{"system":"http://terminology.hl7.org/CodeSystem/measure-population","code":"denominator-exclusion","display":"Denominator Exclusion"}]},"count":1},{"code":{"coding":[{"system":"http://terminology.hl7.org/CodeSystem/measure-population","code":"numerator","display":"Numerator"}]},"count":0},{"code":{"coding":[{"system":"http://terminology.hl7.org/CodeSystem/measure-population","code":"denominator-exception","display":"Denominator Exception"}]},"count":0}]}]},"request":{"method":"PUT","url":"MeasureReport/fbfef920-177d-4ddf-b27c-d4eb44a3c53d"}}]}