{"resourceType":"Bundle","id":"tests-429886b7-c347-43d9-9400-979978760850-bundle","type":"transaction","entry":[{"fullUrl":"https://madie.cms.gov/Patient/429886b7-c347-43d9-9400-979978760850","resource":{"resourceType":"Patient","id":"429886b7-c347-43d9-9400-979978760850","meta":{"profile":["http://hl7.org/fhir/us/qicore/StructureDefinition/qicore-patient"]},"extension":[{"url":"http://hl7.org/fhir/us/core/StructureDefinition/us-core-race","extension":[{"url":"ombCategory","valueCoding":{"system":"urn:oid:2.16.840.1.113883.6.238","code":"1002-5","display":"American Indian or Alaska Native","userSelected":true}},{"url":"text","valueString":"American Indian or Alaska Native"}]},{"url":"http://hl7.org/fhir/us/core/StructureDefinition/us-core-ethnicity","extension":[{"url":"ombCategory","valueCoding":{"system":"urn:oid:2.16.840.1.113883.6.238","code":"2186-5","display":"Not Hispanic or Latino","userSelected":true}},{"url":"text","valueString":"Not Hispanic or Latino"}]}],"identifier":[{"type":{"coding":[{"system":"http://terminology.hl7.org/CodeSystem/v2-0203","code":"MR"}]},"system":"https://bonnie-fhir.healthit.gov/","value":"617ad4661e8170ac98fce631"}],"name":[{"family":"IPFail","given":["Age17AtStart"]}],"gender":"female","birthDate":"2009-10-09"},"request":{"method":"PUT","url":"Patient/429886b7-c347-43d9-9400-979978760850"}},{"fullUrl":"https://madie.cms.gov/Encounter/1f185998-2dac-4cba-b368-42a90e5de278","resource":{"resourceType":"Encounter","id":"1f185998-2dac-4cba-b368-42a90e5de278","meta":{"profile":["http://hl7.org/fhir/us/qicore/StructureDefinition/qicore-encounter"]},"status":"finished","class":{"system":"http://terminology.hl7.org/CodeSystem/v3-ActCode","code":"EMER","display":"emergency","userSelected":true},"type":[{"coding":[{"system":"http://snomed.info/sct","version":"2020-09","code":"4525004","display":"Emergency department patient visit (procedure)","userSelected":true}]}],"subject":{"reference":"Patient/429886b7-c347-43d9-9400-979978760850"},"period":{"start":"2026-10-09T08:05:00.000+00:00","end":"2026-10-10T07:15:00.000+00:00"},"diagnosis":[{"condition":{"reference":"Condition/7800da76-ee25-431e-b04b-6b13aabbdca8"}}]},"request":{"method":"PUT","url":"Encounter/1f185998-2dac-4cba-b368-42a90e5de278"}},{"fullUrl":"https://madie.cms.gov/Condition/7800da76-ee25-431e-b04b-6b13aabbdca8","resource":{"resourceType":"Condition","id":"7800da76-ee25-431e-b04b-6b13aabbdca8","meta":{"profile":["http://hl7.org/fhir/us/qicore/StructureDefinition/qicore-condition"]},"clinicalStatus":{"coding":[{"system":"http://terminology.hl7.org/CodeSystem/condition-clinical","code":"active","display":"active","userSelected":true}]},"category":[{"coding":[{"system":"http://terminology.hl7.org/CodeSystem/condition-category","code":"encounter-diagnosis","display":"Encounter Diagnosis","userSelected":true}]}],"code":{"coding":[{"system":"http://snomed.info/sct","version":"2020-09","code":"401303003","display":"Acute ST segment elevation myocardial infarction (disorder)","userSelected":true}]},"subject":{"reference":"Patient/429886b7-c347-43d9-9400-979978760850"},"recordedDate":"2026-10-28T08:00:00.000+00:00"},"request":{"method":"PUT","url":"Condition/7800da76-ee25-431e-b04b-6b13aabbdca8"}},{"fullUrl":"https://madie.cms.gov/MeasureReport/c3e297a2-9d39-4a55-bd62-8f95c1b2eb49","resource":{"resourceType":"MeasureReport","id":"c3e297a2-9d39-4a55-bd62-8f95c1b2eb49","meta":{"profile":["http://hl7.org/fhir/us/cqfmeasures/StructureDefinition/test-case-cqfm"]},"contained":[{"resourceType":"Parameters","id":"d031ebe7-cc24-4ec8-98e3-df4469d1554a-parameters","parameter":[{"name":"subject","valueString":"429886b7-c347-43d9-9400-979978760850"}]}],"extension":[{"url":"http://hl7.org/fhir/us/cqfmeasures/StructureDefinition/cqfm-inputParameters","valueReference":{"reference":"#d031ebe7-cc24-4ec8-98e3-df4469d1554a-parameters"}},{"url":"http://hl7.org/fhir/us/cqfmeasures/StructureDefinition/cqfm-testCaseDescription","valueMarkdown":"Patient is 17 years at the start of the ED encounter"}],"modifierExtension":[{"url":"http://hl7.org/fhir/us/cqfmeasures/StructureDefinition/cqfm-isTestCase","valueBoolean":true}],"status":"complete","type":"individual","measure":"https://madie.cms.gov/Measure/CMS996FHIRAptTxforSTEMI","period":{"start":"2026-01-01","end":"2026-12-31"},"group":[{"population":[{"code":{"coding":[{"system":"http://terminology.hl7.org/CodeSystem/measure-population","code":"initial-population","display":"Initial Population"}]},"count":0},{"code":{"coding":[{"system":"http://terminology.hl7.org/CodeSystem/measure-population","code":"denominator","display":"Denominator"}]},"count":0},{"code":{"coding":[{"system":"http://terminology.hl7.org/CodeSystem/measure-population","code":"denominator-exclusion","display":"Denominator Exclusion"}]},"count":0},{"code":{"coding":[{"system":"http://terminology.hl7.org/CodeSystem/measure-population","code":"numerator","display":"Numerator"}]},"count":0},{"code":{"coding":[{"system":"http://terminology.hl7.org/CodeSystem/measure-population","code":"denominator-exception","display":"Denominator Exception"}]},"count":0}]}]},"request":{"method":"PUT","url":"MeasureReport/c3e297a2-9d39-4a55-bd62-8f95c1b2eb49"}}]}