{"resourceType":"Bundle","id":"tests-9a0727fd-6922-4fcc-9d7f-0bfd5c2f473b-bundle","type":"transaction","entry":[{"fullUrl":"https://madie.cms.gov/Patient/9a0727fd-6922-4fcc-9d7f-0bfd5c2f473b","resource":{"resourceType":"Patient","id":"9a0727fd-6922-4fcc-9d7f-0bfd5c2f473b","meta":{"profile":["http://hl7.org/fhir/us/qicore/StructureDefinition/qicore-patient"]},"extension":[{"url":"http://hl7.org/fhir/us/core/StructureDefinition/us-core-race","extension":[{"url":"ombCategory","valueCoding":{"system":"urn:oid:2.16.840.1.113883.6.238","code":"2076-8","display":"Native Hawaiian or Other Pacific Islander","userSelected":true}},{"url":"text","valueString":"Native Hawaiian or Other Pacific Islander"}]},{"url":"http://hl7.org/fhir/us/core/StructureDefinition/us-core-ethnicity","extension":[{"url":"ombCategory","valueCoding":{"system":"urn:oid:2.16.840.1.113883.6.238","code":"2186-5","display":"Not Hispanic or Latino","userSelected":true}},{"url":"text","valueString":"Not Hispanic or Latino"}]}],"identifier":[{"type":{"coding":[{"system":"http://terminology.hl7.org/CodeSystem/v2-0203","code":"MR"}]},"system":"https://bonnie-fhir.healthit.gov/","value":"6179e1a9e2011aa9929f330d"}],"name":[{"family":"DenExcl1Fail","given":["DxExclStartsBeforeEndsBeforeED"]}],"gender":"female","birthDate":"1985-12-02"},"request":{"method":"PUT","url":"Patient/9a0727fd-6922-4fcc-9d7f-0bfd5c2f473b"}},{"fullUrl":"https://madie.cms.gov/Encounter/24cfbda3-d8d5-4104-acae-37309578a371","resource":{"resourceType":"Encounter","id":"24cfbda3-d8d5-4104-acae-37309578a371","meta":{"profile":["http://hl7.org/fhir/us/qicore/StructureDefinition/qicore-encounter"]},"status":"finished","class":{"system":"http://terminology.hl7.org/CodeSystem/v3-ActCode","code":"EMER","display":"emergency","userSelected":true},"type":[{"coding":[{"system":"http://snomed.info/sct","version":"2020-09","code":"4525004","display":"Emergency department patient visit (procedure)","userSelected":true}]}],"subject":{"reference":"Patient/9a0727fd-6922-4fcc-9d7f-0bfd5c2f473b"},"period":{"start":"2026-10-09T08:05:00.000+00:00","end":"2026-10-10T07:15:00.000+00:00"}},"request":{"method":"PUT","url":"Encounter/24cfbda3-d8d5-4104-acae-37309578a371"}},{"fullUrl":"https://madie.cms.gov/Condition/a79a77a7-005f-4cc7-bb26-078963927a38","resource":{"resourceType":"Condition","id":"a79a77a7-005f-4cc7-bb26-078963927a38","meta":{"profile":["http://hl7.org/fhir/us/qicore/StructureDefinition/qicore-condition"]},"clinicalStatus":{"coding":[{"system":"http://terminology.hl7.org/CodeSystem/condition-clinical","code":"active","display":"active","userSelected":true}]},"category":[{"coding":[{"system":"http://terminology.hl7.org/CodeSystem/condition-category","code":"encounter-diagnosis","display":"Encounter Diagnosis","userSelected":true}]}],"code":{"coding":[{"system":"http://snomed.info/sct","version":"2020-09","code":"401303003","display":"Acute ST segment elevation myocardial infarction (disorder)","userSelected":true}]},"subject":{"reference":"Patient/9a0727fd-6922-4fcc-9d7f-0bfd5c2f473b"},"onsetDateTime":"2026-10-09T08:30:00.000+00:00"},"request":{"method":"PUT","url":"Condition/a79a77a7-005f-4cc7-bb26-078963927a38"}},{"fullUrl":"https://madie.cms.gov/Condition/076995c7-da83-492d-9b32-1f4de3e16d90","resource":{"resourceType":"Condition","id":"076995c7-da83-492d-9b32-1f4de3e16d90","meta":{"profile":["http://hl7.org/fhir/us/qicore/StructureDefinition/qicore-condition"]},"clinicalStatus":{"coding":[{"system":"http://terminology.hl7.org/CodeSystem/condition-clinical","version":"4.0.1","code":"inactive","display":"Inactive","userSelected":true}]},"category":[{"coding":[{"system":"http://terminology.hl7.org/CodeSystem/condition-category","code":"encounter-diagnosis","display":"Encounter Diagnosis","userSelected":true}]}],"code":{"coding":[{"system":"http://snomed.info/sct","version":"2020-09","code":"111633007","display":"Open fracture of sacrum AND/OR coccyx with complete cauda equina lesion (disorder)","userSelected":true}]},"subject":{"reference":"Patient/9a0727fd-6922-4fcc-9d7f-0bfd5c2f473b"},"onsetDateTime":"2026-01-08T08:00:00.000+00:00","abatementDateTime":"2026-04-08T08:15:00.000+00:00"},"request":{"method":"PUT","url":"Condition/076995c7-da83-492d-9b32-1f4de3e16d90"}},{"fullUrl":"https://madie.cms.gov/MeasureReport/45388801-bd9d-44ea-8b62-bbf52be2eeb4","resource":{"resourceType":"MeasureReport","id":"45388801-bd9d-44ea-8b62-bbf52be2eeb4","meta":{"profile":["http://hl7.org/fhir/us/cqfmeasures/StructureDefinition/test-case-cqfm"]},"contained":[{"resourceType":"Parameters","id":"8b86eef3-288b-4204-8948-a2c8f4ecec43-parameters","parameter":[{"name":"subject","valueString":"9a0727fd-6922-4fcc-9d7f-0bfd5c2f473b"}]}],"extension":[{"url":"http://hl7.org/fhir/us/cqfmeasures/StructureDefinition/cqfm-inputParameters","valueReference":{"reference":"#8b86eef3-288b-4204-8948-a2c8f4ecec43-parameters"}},{"url":"http://hl7.org/fhir/us/cqfmeasures/StructureDefinition/cqfm-testCaseDescription","valueMarkdown":"Patient has Neurologic Impairment (exclusion diagnosis) that starts before ED encounter and ends before ED"}],"modifierExtension":[{"url":"http://hl7.org/fhir/us/cqfmeasures/StructureDefinition/cqfm-isTestCase","valueBoolean":true}],"status":"complete","type":"individual","measure":"https://madie.cms.gov/Measure/CMS996FHIRAptTxforSTEMI","period":{"start":"2026-01-01","end":"2026-12-31"},"group":[{"population":[{"code":{"coding":[{"system":"http://terminology.hl7.org/CodeSystem/measure-population","code":"initial-population","display":"Initial Population"}]},"count":1},{"code":{"coding":[{"system":"http://terminology.hl7.org/CodeSystem/measure-population","code":"denominator","display":"Denominator"}]},"count":1},{"code":{"coding":[{"system":"http://terminology.hl7.org/CodeSystem/measure-population","code":"denominator-exclusion","display":"Denominator Exclusion"}]},"count":0},{"code":{"coding":[{"system":"http://terminology.hl7.org/CodeSystem/measure-population","code":"numerator","display":"Numerator"}]},"count":0},{"code":{"coding":[{"system":"http://terminology.hl7.org/CodeSystem/measure-population","code":"denominator-exception","display":"Denominator Exception"}]},"count":0}]}]},"request":{"method":"PUT","url":"MeasureReport/45388801-bd9d-44ea-8b62-bbf52be2eeb4"}}]}