{"resourceType":"Bundle","id":"tests-f7d55d17-b25e-4923-a880-dd79ef092ba6-bundle","type":"transaction","entry":[{"fullUrl":"https://madie.cms.gov/Patient/f7d55d17-b25e-4923-a880-dd79ef092ba6","resource":{"resourceType":"Patient","id":"f7d55d17-b25e-4923-a880-dd79ef092ba6","meta":{"profile":["http://hl7.org/fhir/us/qicore/StructureDefinition/qicore-patient"]},"extension":[{"url":"http://hl7.org/fhir/us/core/StructureDefinition/us-core-race","extension":[{"url":"ombCategory","valueCoding":{"system":"urn:oid:2.16.840.1.113883.6.238","code":"2076-8","display":"Native Hawaiian or Other Pacific Islander","userSelected":true}},{"url":"text","valueString":"Native Hawaiian or Other Pacific Islander"}]},{"url":"http://hl7.org/fhir/us/core/StructureDefinition/us-core-ethnicity","extension":[{"url":"ombCategory","valueCoding":{"system":"urn:oid:2.16.840.1.113883.6.238","code":"2186-5","display":"Not Hispanic or Latino","userSelected":true}},{"url":"text","valueString":"Not Hispanic or Latino"}]}],"identifier":[{"type":{"coding":[{"system":"http://terminology.hl7.org/CodeSystem/v2-0203","code":"MR"}]},"system":"https://bonnie-fhir.healthit.gov/","value":"6179ead0ad1a790b7af75253"}],"name":[{"family":"DenExcl2Pass","given":["PxExclStartsDuringEDNoEnd"]}],"gender":"female","birthDate":"1985-12-02"},"request":{"method":"PUT","url":"Patient/f7d55d17-b25e-4923-a880-dd79ef092ba6"}},{"fullUrl":"https://madie.cms.gov/Encounter/5870d6e9-bca0-4db1-9b32-82f995ff14ae","resource":{"resourceType":"Encounter","id":"5870d6e9-bca0-4db1-9b32-82f995ff14ae","meta":{"profile":["http://hl7.org/fhir/us/qicore/StructureDefinition/qicore-encounter"]},"status":"finished","class":{"system":"http://terminology.hl7.org/CodeSystem/v3-ActCode","code":"EMER","display":"emergency","userSelected":true},"type":[{"coding":[{"system":"http://snomed.info/sct","version":"2020-09","code":"4525004","display":"Emergency department patient visit (procedure)","userSelected":true}]}],"subject":{"reference":"Patient/f7d55d17-b25e-4923-a880-dd79ef092ba6"},"period":{"start":"2026-10-09T08:05:00.000+00:00","end":"2026-10-10T07:15:00.000+00:00"}},"request":{"method":"PUT","url":"Encounter/5870d6e9-bca0-4db1-9b32-82f995ff14ae"}},{"fullUrl":"https://madie.cms.gov/Condition/23c7c47b-7820-4363-86fe-01e3811f3422","resource":{"resourceType":"Condition","id":"23c7c47b-7820-4363-86fe-01e3811f3422","meta":{"profile":["http://hl7.org/fhir/us/qicore/StructureDefinition/qicore-condition"]},"clinicalStatus":{"coding":[{"system":"http://terminology.hl7.org/CodeSystem/condition-clinical","code":"active","display":"active","userSelected":true}]},"category":[{"coding":[{"system":"http://terminology.hl7.org/CodeSystem/condition-category","code":"encounter-diagnosis","display":"Encounter Diagnosis","userSelected":true}]}],"code":{"coding":[{"system":"http://snomed.info/sct","version":"2020-09","code":"401303003","display":"Acute ST segment elevation myocardial infarction (disorder)","userSelected":true}]},"subject":{"reference":"Patient/f7d55d17-b25e-4923-a880-dd79ef092ba6"},"onsetDateTime":"2026-10-09T08:30:00.000+00:00"},"request":{"method":"PUT","url":"Condition/23c7c47b-7820-4363-86fe-01e3811f3422"}},{"fullUrl":"https://madie.cms.gov/Procedure/df6534d9-7b0c-4429-a1cb-dd553c666ea5","resource":{"resourceType":"Procedure","id":"df6534d9-7b0c-4429-a1cb-dd553c666ea5","meta":{"profile":["http://hl7.org/fhir/us/qicore/StructureDefinition/qicore-procedure"]},"extension":[{"url":"http://hl7.org/fhir/us/qicore/StructureDefinition/qicore-recorded","valueDateTime":"2026-10-09T14:00:00.000+00:00"}],"status":"completed","category":{"coding":[{"system":"http://snomed.info/sct","code":"387713003","display":"Surgical procedure","userSelected":true}]},"code":{"coding":[{"system":"http://snomed.info/sct","code":"429161001","userSelected":true}]},"subject":{"reference":"Patient/f7d55d17-b25e-4923-a880-dd79ef092ba6"},"performedPeriod":{"start":"2026-10-09T13:15:00.000+00:00"}},"request":{"method":"PUT","url":"Procedure/df6534d9-7b0c-4429-a1cb-dd553c666ea5"}},{"fullUrl":"https://madie.cms.gov/MeasureReport/5cbbee11-c708-4d4a-b356-3a0297555886","resource":{"resourceType":"MeasureReport","id":"5cbbee11-c708-4d4a-b356-3a0297555886","meta":{"profile":["http://hl7.org/fhir/us/cqfmeasures/StructureDefinition/test-case-cqfm"]},"contained":[{"resourceType":"Parameters","id":"e0762c90-b82d-47e1-b664-7c5d8f443ed4-parameters","parameter":[{"name":"subject","valueString":"f7d55d17-b25e-4923-a880-dd79ef092ba6"}]}],"extension":[{"url":"http://hl7.org/fhir/us/cqfmeasures/StructureDefinition/cqfm-inputParameters","valueReference":{"reference":"#e0762c90-b82d-47e1-b664-7c5d8f443ed4-parameters"}},{"url":"http://hl7.org/fhir/us/cqfmeasures/StructureDefinition/cqfm-testCaseDescription","valueMarkdown":"Patient has endotracheal intubation (exclusion procedure) that starts during the ED encounter and no end"}],"modifierExtension":[{"url":"http://hl7.org/fhir/us/cqfmeasures/StructureDefinition/cqfm-isTestCase","valueBoolean":true}],"status":"complete","type":"individual","measure":"https://madie.cms.gov/Measure/CMS996FHIRAptTxforSTEMI","period":{"start":"2026-01-01","end":"2026-12-31"},"group":[{"population":[{"code":{"coding":[{"system":"http://terminology.hl7.org/CodeSystem/measure-population","code":"initial-population","display":"Initial Population"}]},"count":1},{"code":{"coding":[{"system":"http://terminology.hl7.org/CodeSystem/measure-population","code":"denominator","display":"Denominator"}]},"count":1},{"code":{"coding":[{"system":"http://terminology.hl7.org/CodeSystem/measure-population","code":"denominator-exclusion","display":"Denominator Exclusion"}]},"count":1},{"code":{"coding":[{"system":"http://terminology.hl7.org/CodeSystem/measure-population","code":"numerator","display":"Numerator"}]},"count":0},{"code":{"coding":[{"system":"http://terminology.hl7.org/CodeSystem/measure-population","code":"denominator-exception","display":"Denominator Exception"}]},"count":0}]}]},"request":{"method":"PUT","url":"MeasureReport/5cbbee11-c708-4d4a-b356-3a0297555886"}}]}