{"resourceType":"Bundle","id":"tests-2930f2ff-3263-4a82-9abe-468b39c142b0-bundle","type":"transaction","entry":[{"fullUrl":"https://madie.cms.gov/Patient/2930f2ff-3263-4a82-9abe-468b39c142b0","resource":{"resourceType":"Patient","id":"2930f2ff-3263-4a82-9abe-468b39c142b0","meta":{"profile":["http://hl7.org/fhir/us/qicore/StructureDefinition/qicore-patient"]},"extension":[{"url":"http://hl7.org/fhir/us/core/StructureDefinition/us-core-race","extension":[{"url":"ombCategory","valueCoding":{"system":"urn:oid:2.16.840.1.113883.6.238","code":"2028-9","display":"Asian","userSelected":true}},{"url":"text","valueString":"Asian"}]},{"url":"http://hl7.org/fhir/us/core/StructureDefinition/us-core-ethnicity","extension":[{"url":"ombCategory","valueCoding":{"system":"urn:oid:2.16.840.1.113883.6.238","code":"2135-2","display":"Hispanic or Latino","userSelected":true}},{"url":"text","valueString":"Hispanic or Latino"}]}],"identifier":[{"type":{"coding":[{"system":"http://terminology.hl7.org/CodeSystem/v2-0203","code":"MR"}]},"system":"https://bonnie-fhir.healthit.gov/","value":"6179ebc6ad1a790b7af75255"}],"name":[{"family":"DenExcl2Pass","given":["PxExclStartsDuringEndsDuringEDrelevantDatetime"]}],"gender":"female","birthDate":"1985-12-02"},"request":{"method":"PUT","url":"Patient/2930f2ff-3263-4a82-9abe-468b39c142b0"}},{"fullUrl":"https://madie.cms.gov/Encounter/e1e30559-7f12-4431-95d1-8ef2b9d62188","resource":{"resourceType":"Encounter","id":"e1e30559-7f12-4431-95d1-8ef2b9d62188","meta":{"profile":["http://hl7.org/fhir/us/qicore/StructureDefinition/qicore-encounter"]},"status":"finished","class":{"system":"http://terminology.hl7.org/CodeSystem/v3-ActCode","code":"EMER","display":"emergency","userSelected":true},"type":[{"coding":[{"system":"http://snomed.info/sct","version":"2020-09","code":"4525004","display":"Emergency department patient visit (procedure)","userSelected":true}]}],"subject":{"reference":"Patient/2930f2ff-3263-4a82-9abe-468b39c142b0"},"period":{"start":"2026-10-09T08:05:00.000+00:00","end":"2026-10-10T07:15:00.000+00:00"}},"request":{"method":"PUT","url":"Encounter/e1e30559-7f12-4431-95d1-8ef2b9d62188"}},{"fullUrl":"https://madie.cms.gov/Condition/14a0c77a-31f2-4c9f-8f77-d5b12818b104","resource":{"resourceType":"Condition","id":"14a0c77a-31f2-4c9f-8f77-d5b12818b104","meta":{"profile":["http://hl7.org/fhir/us/qicore/StructureDefinition/qicore-condition"]},"clinicalStatus":{"coding":[{"system":"http://terminology.hl7.org/CodeSystem/condition-clinical","code":"active","display":"active","userSelected":true}]},"category":[{"coding":[{"system":"http://terminology.hl7.org/CodeSystem/condition-category","code":"encounter-diagnosis","display":"Encounter Diagnosis","userSelected":true}]}],"code":{"coding":[{"system":"http://snomed.info/sct","version":"2020-09","code":"401303003","display":"Acute ST segment elevation myocardial infarction (disorder)","userSelected":true}]},"subject":{"reference":"Patient/2930f2ff-3263-4a82-9abe-468b39c142b0"},"onsetDateTime":"2026-10-09T08:30:00.000+00:00"},"request":{"method":"PUT","url":"Condition/14a0c77a-31f2-4c9f-8f77-d5b12818b104"}},{"fullUrl":"https://madie.cms.gov/Procedure/6728f19d-21e1-498c-bce4-b45384e7fd83","resource":{"resourceType":"Procedure","id":"6728f19d-21e1-498c-bce4-b45384e7fd83","meta":{"profile":["http://hl7.org/fhir/us/qicore/StructureDefinition/qicore-procedure"]},"extension":[{"url":"http://hl7.org/fhir/us/qicore/StructureDefinition/qicore-recorded","valueDateTime":"2026-10-09T13:15:00.000+00:00"}],"status":"completed","category":{"coding":[{"system":"http://snomed.info/sct","code":"387713003","display":"Surgical procedure","userSelected":true}]},"code":{"coding":[{"system":"http://www.cms.gov/Medicare/Coding/ICD10","code":"5A1935Z","userSelected":true}]},"subject":{"reference":"Patient/2930f2ff-3263-4a82-9abe-468b39c142b0"},"performedDateTime":"2026-10-09T13:15:00.000+00:00"},"request":{"method":"PUT","url":"Procedure/6728f19d-21e1-498c-bce4-b45384e7fd83"}},{"fullUrl":"https://madie.cms.gov/MeasureReport/8ed93dcb-4c98-4040-a6d1-5b69725e9677","resource":{"resourceType":"MeasureReport","id":"8ed93dcb-4c98-4040-a6d1-5b69725e9677","meta":{"profile":["http://hl7.org/fhir/us/cqfmeasures/StructureDefinition/test-case-cqfm"]},"contained":[{"resourceType":"Parameters","id":"0873ec3f-2389-4125-8bb0-4d322076651d-parameters","parameter":[{"name":"subject","valueString":"2930f2ff-3263-4a82-9abe-468b39c142b0"}]}],"extension":[{"url":"http://hl7.org/fhir/us/cqfmeasures/StructureDefinition/cqfm-inputParameters","valueReference":{"reference":"#0873ec3f-2389-4125-8bb0-4d322076651d-parameters"}},{"url":"http://hl7.org/fhir/us/cqfmeasures/StructureDefinition/cqfm-testCaseDescription","valueMarkdown":"Patient has endotracheal intubation (exclusion procedure) that starts during and ends during the ED encounter - using relevantDatetime"}],"modifierExtension":[{"url":"http://hl7.org/fhir/us/cqfmeasures/StructureDefinition/cqfm-isTestCase","valueBoolean":true}],"status":"complete","type":"individual","measure":"https://madie.cms.gov/Measure/CMS996FHIRAptTxforSTEMI","period":{"start":"2026-01-01","end":"2026-12-31"},"group":[{"population":[{"code":{"coding":[{"system":"http://terminology.hl7.org/CodeSystem/measure-population","code":"initial-population","display":"Initial Population"}]},"count":1},{"code":{"coding":[{"system":"http://terminology.hl7.org/CodeSystem/measure-population","code":"denominator","display":"Denominator"}]},"count":1},{"code":{"coding":[{"system":"http://terminology.hl7.org/CodeSystem/measure-population","code":"denominator-exclusion","display":"Denominator Exclusion"}]},"count":1},{"code":{"coding":[{"system":"http://terminology.hl7.org/CodeSystem/measure-population","code":"numerator","display":"Numerator"}]},"count":0},{"code":{"coding":[{"system":"http://terminology.hl7.org/CodeSystem/measure-population","code":"denominator-exception","display":"Denominator Exception"}]},"count":0}]}]},"request":{"method":"PUT","url":"MeasureReport/8ed93dcb-4c98-4040-a6d1-5b69725e9677"}}]}