{"resourceType":"Bundle","id":"tests-c43150be-5974-4986-b428-6fcb6aa43472-bundle","type":"transaction","entry":[{"fullUrl":"https://madie.cms.gov/Patient/c43150be-5974-4986-b428-6fcb6aa43472","resource":{"resourceType":"Patient","id":"c43150be-5974-4986-b428-6fcb6aa43472","meta":{"profile":["http://hl7.org/fhir/us/qicore/StructureDefinition/qicore-patient"]},"extension":[{"url":"http://hl7.org/fhir/us/core/StructureDefinition/us-core-race","extension":[{"url":"ombCategory","valueCoding":{"system":"urn:oid:2.16.840.1.113883.6.238","code":"2076-8","display":"Native Hawaiian or Other Pacific Islander","userSelected":true}},{"url":"text","valueString":"Native Hawaiian or Other Pacific Islander"}]},{"url":"http://hl7.org/fhir/us/core/StructureDefinition/us-core-ethnicity","extension":[{"url":"ombCategory","valueCoding":{"system":"urn:oid:2.16.840.1.113883.6.238","code":"2186-5","display":"Not Hispanic or Latino","userSelected":true}},{"url":"text","valueString":"Not Hispanic or Latino"}]}],"identifier":[{"type":{"coding":[{"system":"http://terminology.hl7.org/CodeSystem/v2-0203","code":"MR"}]},"system":"https://bonnie-fhir.healthit.gov/","value":"6419de4b9c0269a68225bb46"}],"name":[{"family":"5DenExclPass","given":["DxExclStartsDuringEndsDuringED"]}],"gender":"female","birthDate":"1985-12-02"},"request":{"method":"PUT","url":"Patient/c43150be-5974-4986-b428-6fcb6aa43472"}},{"fullUrl":"https://madie.cms.gov/Encounter/fbf24283-aba9-4edc-a470-8f12f25179b1","resource":{"resourceType":"Encounter","id":"fbf24283-aba9-4edc-a470-8f12f25179b1","meta":{"profile":["http://hl7.org/fhir/us/qicore/StructureDefinition/qicore-encounter"]},"status":"finished","class":{"system":"http://terminology.hl7.org/CodeSystem/v3-ActCode","code":"EMER","display":"emergency","userSelected":true},"type":[{"coding":[{"system":"http://snomed.info/sct","version":"2020-09","code":"4525004","display":"Emergency department patient visit (procedure)","userSelected":true}]}],"subject":{"reference":"Patient/c43150be-5974-4986-b428-6fcb6aa43472"},"period":{"start":"2026-10-09T08:05:00.000+00:00","end":"2026-10-10T07:15:00.000+00:00"},"reasonCode":[{"coding":[{"system":"http://snomed.info/sct","version":"2020-09","code":"703210007","display":"Subsequent ST segment elevation myocardial infarction of anterior wall (disorder)","userSelected":true}]}]},"request":{"method":"PUT","url":"Encounter/fbf24283-aba9-4edc-a470-8f12f25179b1"}},{"fullUrl":"https://madie.cms.gov/Condition/34caee48-314f-483e-9c36-922e6bf97d19","resource":{"resourceType":"Condition","id":"34caee48-314f-483e-9c36-922e6bf97d19","meta":{"profile":["http://hl7.org/fhir/us/qicore/StructureDefinition/qicore-condition"]},"clinicalStatus":{"coding":[{"system":"http://terminology.hl7.org/CodeSystem/condition-clinical","code":"active","display":"active","userSelected":true}]},"verificationStatus":{"coding":[{"system":"http://terminology.hl7.org/CodeSystem/condition-ver-status","code":"confirmed","display":"Confirmed","userSelected":true}]},"category":[{"coding":[{"system":"http://terminology.hl7.org/CodeSystem/condition-category","code":"encounter-diagnosis","display":"Encounter Diagnosis","userSelected":true}]}],"code":{"coding":[{"system":"http://snomed.info/sct","version":"2020-09","code":"401303003","display":"Acute ST segment elevation myocardial infarction (disorder)","userSelected":true}]},"subject":{"reference":"Patient/c43150be-5974-4986-b428-6fcb6aa43472"},"onsetDateTime":"2026-10-09T08:30:00.000+00:00"},"request":{"method":"PUT","url":"Condition/34caee48-314f-483e-9c36-922e6bf97d19"}},{"fullUrl":"https://madie.cms.gov/Condition/6423d59c-a231-4075-a28f-992e52cf9ece","resource":{"resourceType":"Condition","id":"6423d59c-a231-4075-a28f-992e52cf9ece","meta":{"profile":["http://hl7.org/fhir/us/qicore/StructureDefinition/qicore-condition"]},"clinicalStatus":{"coding":[{"system":"http://terminology.hl7.org/CodeSystem/condition-clinical","code":"resolved","display":"resolved","userSelected":true}]},"verificationStatus":{"coding":[{"system":"http://terminology.hl7.org/CodeSystem/condition-ver-status","code":"confirmed","display":"Confirmed","userSelected":true}]},"category":[{"coding":[{"system":"http://terminology.hl7.org/CodeSystem/condition-category","code":"problem-list-item","display":"Problem List Item"}]}],"code":{"coding":[{"system":"http://snomed.info/sct","version":"2020-09","code":"14336007","display":"Ruptured abdominal aortic aneurysm (disorder)","userSelected":true}]},"subject":{"reference":"Patient/c43150be-5974-4986-b428-6fcb6aa43472"},"onsetDateTime":"2026-10-09T13:00:00.000+00:00","abatementDateTime":"2026-10-09T21:15:00.000+00:00"},"request":{"method":"PUT","url":"Condition/6423d59c-a231-4075-a28f-992e52cf9ece"}},{"fullUrl":"https://madie.cms.gov/Coverage/7a77c89b-bb8d-4679-bad3-ea5ff071c896","resource":{"resourceType":"Coverage","id":"7a77c89b-bb8d-4679-bad3-ea5ff071c896","meta":{"profile":["http://hl7.org/fhir/us/qicore/StructureDefinition/qicore-coverage"]},"status":"active","beneficiary":{"reference":"Patient/c43150be-5974-4986-b428-6fcb6aa43472"},"payor":[{"reference":"Organization/77e4d06f-5e3c-436a-a598-80cefcca5028"}]},"request":{"method":"PUT","url":"Coverage/7a77c89b-bb8d-4679-bad3-ea5ff071c896"}},{"fullUrl":"https://madie.cms.gov/Organization/a20e9089-387e-4a69-844d-e361d51bba48","resource":{"resourceType":"Organization","id":"77e4d06f-5e3c-436a-a598-80cefcca5028","meta":{"profile":["http://hl7.org/fhir/us/qicore/StructureDefinition/qicore-organization"]},"identifier":[{"use":"temp","system":"urn:oid:2.16.840.1.113883.4.4","value":"21-3259825"}],"active":true,"type":[{"coding":[{"system":"http://terminology.hl7.org/CodeSystem/organization-type","code":"pay","display":"Payer"}]}],"name":"Blue Cross Blue Shield of Texas","telecom":[{"system":"phone","value":"(+1) 972-766-6900"}],"address":[{"use":"billing","type":"postal","line":["P.O. Box 660044"],"city":"Dallas","state":"TX","postalCode":"75266-0044","country":"USA"}]},"request":{"method":"PUT","url":"Organization/77e4d06f-5e3c-436a-a598-80cefcca5028"}},{"fullUrl":"https://madie.cms.gov/Practitioner/b71c3461-244b-4297-b7c2-16d07f26f1ac","resource":{"resourceType":"Practitioner","id":"b71c3461-244b-4297-b7c2-16d07f26f1ac","identifier":[{"system":"http://hl7.org/fhir/sid/us-npi","value":"123456"}],"name":[{"family":"Evil","prefix":["Dr"]}]},"request":{"method":"PUT","url":"Practitioner/b71c3461-244b-4297-b7c2-16d07f26f1ac"}},{"fullUrl":"https://madie.cms.gov/MeasureReport/0e040dfa-d0a9-4866-b2d6-41a9d4117877","resource":{"resourceType":"MeasureReport","id":"0e040dfa-d0a9-4866-b2d6-41a9d4117877","meta":{"profile":["http://hl7.org/fhir/us/cqfmeasures/StructureDefinition/test-case-cqfm"]},"contained":[{"resourceType":"Parameters","id":"49932c5b-b4d5-463b-b4cb-5dedebe28e6d-parameters","parameter":[{"name":"subject","valueString":"c43150be-5974-4986-b428-6fcb6aa43472"}]}],"extension":[{"url":"http://hl7.org/fhir/us/cqfmeasures/StructureDefinition/cqfm-inputParameters","valueReference":{"reference":"#49932c5b-b4d5-463b-b4cb-5dedebe28e6d-parameters"}},{"url":"http://hl7.org/fhir/us/cqfmeasures/StructureDefinition/cqfm-testCaseDescription","valueMarkdown":"Patient has aortic dissection (exclusion diagnosis) that starts during and ends during the ED encounter - not active status"}],"modifierExtension":[{"url":"http://hl7.org/fhir/us/cqfmeasures/StructureDefinition/cqfm-isTestCase","valueBoolean":true}],"status":"complete","type":"individual","measure":"https://madie.cms.gov/Measure/CMS996FHIRAptTxforSTEMI","period":{"start":"2026-01-01","end":"2026-12-31"},"group":[{"population":[{"code":{"coding":[{"system":"http://terminology.hl7.org/CodeSystem/measure-population","code":"initial-population","display":"Initial Population"}]},"count":1},{"code":{"coding":[{"system":"http://terminology.hl7.org/CodeSystem/measure-population","code":"denominator","display":"Denominator"}]},"count":1},{"code":{"coding":[{"system":"http://terminology.hl7.org/CodeSystem/measure-population","code":"denominator-exclusion","display":"Denominator Exclusion"}]},"count":1},{"code":{"coding":[{"system":"http://terminology.hl7.org/CodeSystem/measure-population","code":"numerator","display":"Numerator"}]},"count":0},{"code":{"coding":[{"system":"http://terminology.hl7.org/CodeSystem/measure-population","code":"denominator-exception","display":"Denominator Exception"}]},"count":0}]}]},"request":{"method":"PUT","url":"MeasureReport/0e040dfa-d0a9-4866-b2d6-41a9d4117877"}}]}