{"resourceType":"Bundle","id":"tests-f1d921e8-bf78-488a-a30e-429e232ffaa9-bundle","type":"transaction","entry":[{"fullUrl":"https://madie.cms.gov/Patient/f1d921e8-bf78-488a-a30e-429e232ffaa9","resource":{"resourceType":"Patient","id":"f1d921e8-bf78-488a-a30e-429e232ffaa9","meta":{"profile":["http://hl7.org/fhir/us/qicore/StructureDefinition/qicore-patient"]},"extension":[{"url":"http://hl7.org/fhir/us/core/StructureDefinition/us-core-race","extension":[{"url":"ombCategory","valueCoding":{"system":"urn:oid:2.16.840.1.113883.6.238","code":"2076-8","display":"Native Hawaiian or Other Pacific Islander","userSelected":true}},{"url":"text","valueString":"Native Hawaiian or Other Pacific Islander"}]},{"url":"http://hl7.org/fhir/us/core/StructureDefinition/us-core-ethnicity","extension":[{"url":"ombCategory","valueCoding":{"system":"urn:oid:2.16.840.1.113883.6.238","code":"2186-5","display":"Not Hispanic or Latino","userSelected":true}},{"url":"text","valueString":"Not Hispanic or Latino"}]}],"identifier":[{"type":{"coding":[{"system":"http://terminology.hl7.org/CodeSystem/v2-0203","code":"MR"}]},"system":"https://bonnie-fhir.healthit.gov/","value":"6179e8d8ad1a790b7af7524c"}],"name":[{"family":"DenExcl2Fail","given":["PxExclStartsAfterEndsAfterED"]}],"gender":"female","birthDate":"1985-12-02"},"request":{"method":"PUT","url":"Patient/f1d921e8-bf78-488a-a30e-429e232ffaa9"}},{"fullUrl":"https://madie.cms.gov/Encounter/1c590444-551b-4a01-ac55-c2d6a9ba8f57","resource":{"resourceType":"Encounter","id":"1c590444-551b-4a01-ac55-c2d6a9ba8f57","meta":{"profile":["http://hl7.org/fhir/us/qicore/StructureDefinition/qicore-encounter"]},"status":"finished","class":{"system":"http://terminology.hl7.org/CodeSystem/v3-ActCode","code":"EMER","display":"emergency","userSelected":true},"type":[{"coding":[{"system":"http://snomed.info/sct","version":"2020-09","code":"4525004","display":"Emergency department patient visit (procedure)","userSelected":true}]}],"subject":{"reference":"Patient/f1d921e8-bf78-488a-a30e-429e232ffaa9"},"period":{"start":"2026-10-09T08:05:00.000+00:00","end":"2026-10-10T07:15:00.000+00:00"}},"request":{"method":"PUT","url":"Encounter/1c590444-551b-4a01-ac55-c2d6a9ba8f57"}},{"fullUrl":"https://madie.cms.gov/Condition/5f9933eb-e868-4c44-923b-2975691f167d","resource":{"resourceType":"Condition","id":"5f9933eb-e868-4c44-923b-2975691f167d","meta":{"profile":["http://hl7.org/fhir/us/qicore/StructureDefinition/qicore-condition"]},"clinicalStatus":{"coding":[{"system":"http://terminology.hl7.org/CodeSystem/condition-clinical","code":"active","display":"active","userSelected":true}]},"category":[{"coding":[{"system":"http://terminology.hl7.org/CodeSystem/condition-category","code":"encounter-diagnosis","display":"Encounter Diagnosis","userSelected":true}]}],"code":{"coding":[{"system":"http://snomed.info/sct","version":"2020-09","code":"401303003","display":"Acute ST segment elevation myocardial infarction (disorder)","userSelected":true}]},"subject":{"reference":"Patient/f1d921e8-bf78-488a-a30e-429e232ffaa9"},"onsetDateTime":"2026-10-09T08:30:00.000+00:00"},"request":{"method":"PUT","url":"Condition/5f9933eb-e868-4c44-923b-2975691f167d"}},{"fullUrl":"https://madie.cms.gov/Procedure/aba406b3-6cc4-431c-83b3-d36d4ec21978","resource":{"resourceType":"Procedure","id":"aba406b3-6cc4-431c-83b3-d36d4ec21978","meta":{"profile":["http://hl7.org/fhir/us/qicore/StructureDefinition/qicore-procedure"]},"extension":[{"url":"http://hl7.org/fhir/us/qicore/StructureDefinition/qicore-recorded","valueDateTime":"2026-10-18T08:15:00.000+00:00"}],"status":"completed","category":{"coding":[{"system":"http://snomed.info/sct","code":"387713003","display":"Surgical procedure","userSelected":true}]},"code":{"coding":[{"system":"http://www.ama-assn.org/go/cpt","code":"33975","userSelected":true}]},"subject":{"reference":"Patient/f1d921e8-bf78-488a-a30e-429e232ffaa9"},"performedPeriod":{"start":"2026-10-09T06:00:00.000+00:00","end":"2026-10-18T08:15:00.000+00:00"}},"request":{"method":"PUT","url":"Procedure/aba406b3-6cc4-431c-83b3-d36d4ec21978"}},{"fullUrl":"https://madie.cms.gov/MeasureReport/cd511c1c-19ba-41c7-8e0f-a8f690d8f7f2","resource":{"resourceType":"MeasureReport","id":"cd511c1c-19ba-41c7-8e0f-a8f690d8f7f2","meta":{"profile":["http://hl7.org/fhir/us/cqfmeasures/StructureDefinition/test-case-cqfm"]},"contained":[{"resourceType":"Parameters","id":"d8fd9589-979c-4ba9-8062-8e704e2d8beb-parameters","parameter":[{"name":"subject","valueString":"f1d921e8-bf78-488a-a30e-429e232ffaa9"}]}],"extension":[{"url":"http://hl7.org/fhir/us/cqfmeasures/StructureDefinition/cqfm-inputParameters","valueReference":{"reference":"#d8fd9589-979c-4ba9-8062-8e704e2d8beb-parameters"}},{"url":"http://hl7.org/fhir/us/cqfmeasures/StructureDefinition/cqfm-testCaseDescription","valueMarkdown":"Patient has Mechanical Circulatory Assist Device (exclusion procedure) that starts 24 hours before and ends after the ED encounter"}],"modifierExtension":[{"url":"http://hl7.org/fhir/us/cqfmeasures/StructureDefinition/cqfm-isTestCase","valueBoolean":true}],"status":"complete","type":"individual","measure":"https://madie.cms.gov/Measure/CMS996FHIRAptTxforSTEMI","period":{"start":"2026-01-01","end":"2026-12-31"},"group":[{"population":[{"code":{"coding":[{"system":"http://terminology.hl7.org/CodeSystem/measure-population","code":"initial-population","display":"Initial Population"}]},"count":1},{"code":{"coding":[{"system":"http://terminology.hl7.org/CodeSystem/measure-population","code":"denominator","display":"Denominator"}]},"count":1},{"code":{"coding":[{"system":"http://terminology.hl7.org/CodeSystem/measure-population","code":"denominator-exclusion","display":"Denominator Exclusion"}]},"count":1},{"code":{"coding":[{"system":"http://terminology.hl7.org/CodeSystem/measure-population","code":"numerator","display":"Numerator"}]},"count":0},{"code":{"coding":[{"system":"http://terminology.hl7.org/CodeSystem/measure-population","code":"denominator-exception","display":"Denominator Exception"}]},"count":0}]}]},"request":{"method":"PUT","url":"MeasureReport/cd511c1c-19ba-41c7-8e0f-a8f690d8f7f2"}}]}