{"resourceType":"Bundle","id":"tests-3803ca64-74ee-442c-ac0d-75a925a2bf30-bundle","type":"transaction","entry":[{"fullUrl":"https://madie.cms.gov/Patient/3803ca64-74ee-442c-ac0d-75a925a2bf30","resource":{"resourceType":"Patient","id":"3803ca64-74ee-442c-ac0d-75a925a2bf30","meta":{"profile":["http://hl7.org/fhir/us/qicore/StructureDefinition/qicore-patient"]},"extension":[{"url":"http://hl7.org/fhir/us/core/StructureDefinition/us-core-race","extension":[{"url":"ombCategory","valueCoding":{"system":"urn:oid:2.16.840.1.113883.6.238","code":"2076-8","display":"Native Hawaiian or Other Pacific Islander","userSelected":true}},{"url":"text","valueString":"Native Hawaiian or Other Pacific Islander"}]},{"url":"http://hl7.org/fhir/us/core/StructureDefinition/us-core-ethnicity","extension":[{"url":"ombCategory","valueCoding":{"system":"urn:oid:2.16.840.1.113883.6.238","code":"2186-5","display":"Not Hispanic or Latino","userSelected":true}},{"url":"text","valueString":"Not Hispanic or Latino"}]}],"identifier":[{"type":{"coding":[{"system":"http://terminology.hl7.org/CodeSystem/v2-0203","code":"MR"}]},"system":"https://bonnie-fhir.healthit.gov/","value":"617be1241619a529957d62a9"}],"name":[{"family":"DenExcl4Pass","given":["DxStartsBeforeEndsDuringED"]}],"gender":"female","birthDate":"1985-12-02"},"request":{"method":"PUT","url":"Patient/3803ca64-74ee-442c-ac0d-75a925a2bf30"}},{"fullUrl":"https://madie.cms.gov/Encounter/4ed6effb-aa8a-40c7-8d04-ae6ba8c0378c","resource":{"resourceType":"Encounter","id":"4ed6effb-aa8a-40c7-8d04-ae6ba8c0378c","meta":{"profile":["http://hl7.org/fhir/us/qicore/StructureDefinition/qicore-encounter"]},"status":"finished","class":{"system":"http://terminology.hl7.org/CodeSystem/v3-ActCode","code":"EMER","display":"emergency"},"type":[{"coding":[{"system":"http://snomed.info/sct","version":"2020-09","code":"4525004","display":"Emergency department patient visit (procedure)","userSelected":true}]}],"subject":{"reference":"Patient/3803ca64-74ee-442c-ac0d-75a925a2bf30"},"period":{"start":"2026-10-09T08:05:00.000+00:00","end":"2026-10-10T07:15:00.000+00:00"}},"request":{"method":"PUT","url":"Encounter/4ed6effb-aa8a-40c7-8d04-ae6ba8c0378c"}},{"fullUrl":"https://madie.cms.gov/Condition/3cba64a2-e42b-46b7-a8e6-964b7c56e5e2","resource":{"resourceType":"Condition","id":"3cba64a2-e42b-46b7-a8e6-964b7c56e5e2","meta":{"profile":["http://hl7.org/fhir/us/qicore/StructureDefinition/qicore-condition"]},"clinicalStatus":{"coding":[{"system":"http://terminology.hl7.org/CodeSystem/condition-clinical","code":"active","display":"active","userSelected":true}]},"category":[{"coding":[{"system":"http://terminology.hl7.org/CodeSystem/condition-category","code":"problem-list-item","display":"Problem List Item"}]}],"code":{"coding":[{"system":"http://snomed.info/sct","version":"2020-09","code":"401303003","display":"Acute ST segment elevation myocardial infarction (disorder)","userSelected":true}]},"subject":{"reference":"Patient/3803ca64-74ee-442c-ac0d-75a925a2bf30"},"onsetDateTime":"2026-10-09T09:36:00.000+00:00"},"request":{"method":"PUT","url":"Condition/3cba64a2-e42b-46b7-a8e6-964b7c56e5e2"}},{"fullUrl":"https://madie.cms.gov/Condition/c8759d38-7906-4ac6-8062-d3ebd6f0fcd7","resource":{"resourceType":"Condition","id":"c8759d38-7906-4ac6-8062-d3ebd6f0fcd7","meta":{"profile":["http://hl7.org/fhir/us/qicore/StructureDefinition/qicore-condition"]},"clinicalStatus":{"coding":[{"system":"http://terminology.hl7.org/CodeSystem/condition-clinical","code":"inactive","display":"Inactive","userSelected":true}]},"category":[{"coding":[{"system":"http://terminology.hl7.org/CodeSystem/condition-category","code":"problem-list-item","display":"Problem List Item"}]}],"code":{"coding":[{"system":"http://snomed.info/sct","version":"2020-09","code":"109911004","display":"Overlapping malignant neoplasm of brain and other parts of the central nervous system (disorder)","userSelected":true}]},"subject":{"reference":"Patient/3803ca64-74ee-442c-ac0d-75a925a2bf30"},"onsetDateTime":"2026-05-31T08:00:00.000+00:00","abatementDateTime":"2026-10-09T08:06:00.000+00:00"},"request":{"method":"PUT","url":"Condition/c8759d38-7906-4ac6-8062-d3ebd6f0fcd7"}},{"fullUrl":"https://madie.cms.gov/Coverage/57ecd573-b94c-42ee-a424-f9a32538f542","resource":{"resourceType":"Coverage","id":"57ecd573-b94c-42ee-a424-f9a32538f542","meta":{"profile":["http://hl7.org/fhir/us/qicore/StructureDefinition/qicore-coverage"]},"status":"active","beneficiary":{"reference":"Patient/3803ca64-74ee-442c-ac0d-75a925a2bf30"},"payor":[{"reference":"Organization/5224cb12-ed64-4d6d-ab28-40a64f0800f1"}]},"request":{"method":"PUT","url":"Coverage/57ecd573-b94c-42ee-a424-f9a32538f542"}},{"fullUrl":"https://madie.cms.gov/Organization/a48cfd43-d3d5-4ae5-b474-22a590636e81","resource":{"resourceType":"Organization","id":"5224cb12-ed64-4d6d-ab28-40a64f0800f1","meta":{"profile":["http://hl7.org/fhir/us/qicore/StructureDefinition/qicore-organization"]},"identifier":[{"use":"temp","system":"urn:oid:2.16.840.1.113883.4.4","value":"21-3259825"}],"active":true,"type":[{"coding":[{"system":"http://terminology.hl7.org/CodeSystem/organization-type","code":"pay","display":"Payer"}]}],"name":"Blue Cross Blue Shield of Texas","telecom":[{"system":"phone","value":"(+1) 972-766-6900"}],"address":[{"use":"billing","type":"postal","line":["P.O. Box 660044"],"city":"Dallas","state":"TX","postalCode":"75266-0044","country":"USA"}]},"request":{"method":"PUT","url":"Organization/5224cb12-ed64-4d6d-ab28-40a64f0800f1"}},{"fullUrl":"https://madie.cms.gov/Practitioner/a74eb3b2-4f04-45ab-ad3e-359353c70058","resource":{"resourceType":"Practitioner","id":"a74eb3b2-4f04-45ab-ad3e-359353c70058","meta":{"profile":["http://hl7.org/fhir/us/qicore/StructureDefinition/qicore-practitioner"]},"identifier":[{"system":"http://hl7.org/fhir/sid/us-npi","value":"123456"}],"name":[{"family":"Evil","prefix":["Dr"]}]},"request":{"method":"PUT","url":"Practitioner/a74eb3b2-4f04-45ab-ad3e-359353c70058"}},{"fullUrl":"https://madie.cms.gov/MeasureReport/0cceed16-9178-4b27-b2b6-aacb89e3c598","resource":{"resourceType":"MeasureReport","id":"0cceed16-9178-4b27-b2b6-aacb89e3c598","meta":{"profile":["http://hl7.org/fhir/us/cqfmeasures/StructureDefinition/test-case-cqfm"]},"contained":[{"resourceType":"Parameters","id":"1c9d58eb-63ce-4086-8c64-46966101f9a8-parameters","parameter":[{"name":"subject","valueString":"3803ca64-74ee-442c-ac0d-75a925a2bf30"}]}],"extension":[{"url":"http://hl7.org/fhir/us/cqfmeasures/StructureDefinition/cqfm-inputParameters","valueReference":{"reference":"#1c9d58eb-63ce-4086-8c64-46966101f9a8-parameters"}},{"url":"http://hl7.org/fhir/us/cqfmeasures/StructureDefinition/cqfm-testCaseDescription","valueMarkdown":"Patient has Malignant Intracranial Neoplasm (exclusion dx) starts before ends during ED"}],"modifierExtension":[{"url":"http://hl7.org/fhir/us/cqfmeasures/StructureDefinition/cqfm-isTestCase","valueBoolean":true}],"status":"complete","type":"individual","measure":"https://madie.cms.gov/Measure/CMS996FHIRAptTxforSTEMI","period":{"start":"2026-01-01","end":"2026-12-31"},"group":[{"population":[{"code":{"coding":[{"system":"http://terminology.hl7.org/CodeSystem/measure-population","code":"initial-population","display":"Initial Population"}]},"count":1},{"code":{"coding":[{"system":"http://terminology.hl7.org/CodeSystem/measure-population","code":"denominator","display":"Denominator"}]},"count":1},{"code":{"coding":[{"system":"http://terminology.hl7.org/CodeSystem/measure-population","code":"denominator-exclusion","display":"Denominator Exclusion"}]},"count":1},{"code":{"coding":[{"system":"http://terminology.hl7.org/CodeSystem/measure-population","code":"numerator","display":"Numerator"}]},"count":0},{"code":{"coding":[{"system":"http://terminology.hl7.org/CodeSystem/measure-population","code":"denominator-exception","display":"Denominator Exception"}]},"count":0}]}]},"request":{"method":"PUT","url":"MeasureReport/0cceed16-9178-4b27-b2b6-aacb89e3c598"}}]}