{"resourceType":"Bundle","id":"tests-c453e51c-aa59-4755-b872-28b2f05f3552-bundle","type":"transaction","entry":[{"fullUrl":"https://madie.cms.gov/Patient/c453e51c-aa59-4755-b872-28b2f05f3552","resource":{"resourceType":"Patient","id":"c453e51c-aa59-4755-b872-28b2f05f3552","meta":{"profile":["http://hl7.org/fhir/us/qicore/StructureDefinition/qicore-patient"]},"extension":[{"url":"http://hl7.org/fhir/us/core/StructureDefinition/us-core-race","extension":[{"url":"ombCategory","valueCoding":{"system":"urn:oid:2.16.840.1.113883.6.238","code":"2028-9","display":"Asian","userSelected":true}},{"url":"text","valueString":"Asian"}]},{"url":"http://hl7.org/fhir/us/core/StructureDefinition/us-core-ethnicity","extension":[{"url":"ombCategory","valueCoding":{"system":"urn:oid:2.16.840.1.113883.6.238","code":"2186-5","display":"Not Hispanic or Latino","userSelected":true}},{"url":"text","valueString":"Not Hispanic or Latino"}]}],"identifier":[{"type":{"coding":[{"system":"http://terminology.hl7.org/CodeSystem/v2-0203","code":"MR"}]},"system":"https://bonnie-fhir.healthit.gov/","value":"617b1149513b5d1ee28b757d"}],"name":[{"family":"DenExcl4Pass","given":["DxStartsBeforeEndsAfterED"]}],"gender":"male","birthDate":"1985-12-02"},"request":{"method":"PUT","url":"Patient/c453e51c-aa59-4755-b872-28b2f05f3552"}},{"fullUrl":"https://madie.cms.gov/Encounter/c37855b7-4170-403a-8675-072ba62fa5ee","resource":{"resourceType":"Encounter","id":"c37855b7-4170-403a-8675-072ba62fa5ee","meta":{"profile":["http://hl7.org/fhir/us/qicore/StructureDefinition/qicore-encounter"]},"status":"finished","class":{"system":"http://terminology.hl7.org/CodeSystem/v3-ActCode","code":"EMER","display":"emergency","userSelected":true},"type":[{"coding":[{"system":"http://snomed.info/sct","version":"2020-09","code":"4525004","display":"Emergency department patient visit (procedure)","userSelected":true}]}],"subject":{"reference":"Patient/c453e51c-aa59-4755-b872-28b2f05f3552"},"period":{"start":"2026-10-09T08:05:00.000+00:00","end":"2026-10-10T07:15:00.000+00:00"}},"request":{"method":"PUT","url":"Encounter/c37855b7-4170-403a-8675-072ba62fa5ee"}},{"fullUrl":"https://madie.cms.gov/Condition/d9da92c3-8496-415b-9439-b9b901f47525","resource":{"resourceType":"Condition","id":"d9da92c3-8496-415b-9439-b9b901f47525","meta":{"profile":["http://hl7.org/fhir/us/qicore/StructureDefinition/qicore-condition"]},"clinicalStatus":{"coding":[{"system":"http://terminology.hl7.org/CodeSystem/condition-clinical","code":"active","display":"active","userSelected":true}]},"category":[{"coding":[{"system":"http://terminology.hl7.org/CodeSystem/condition-category","code":"encounter-diagnosis","display":"Encounter Diagnosis","userSelected":true}]}],"code":{"coding":[{"system":"http://snomed.info/sct","version":"2020-09","code":"401303003","display":"Acute ST segment elevation myocardial infarction (disorder)","userSelected":true}]},"subject":{"reference":"Patient/c453e51c-aa59-4755-b872-28b2f05f3552"},"onsetDateTime":"2026-10-09T08:30:00.000+00:00"},"request":{"method":"PUT","url":"Condition/d9da92c3-8496-415b-9439-b9b901f47525"}},{"fullUrl":"https://madie.cms.gov/Condition/04182ef9-d446-4489-adc5-53d8f94536c6","resource":{"resourceType":"Condition","id":"04182ef9-d446-4489-adc5-53d8f94536c6","meta":{"profile":["http://hl7.org/fhir/us/qicore/StructureDefinition/qicore-condition"]},"clinicalStatus":{"coding":[{"system":"http://terminology.hl7.org/CodeSystem/condition-clinical","version":"4.0.1","code":"inactive","display":"inactive","userSelected":true}]},"category":[{"coding":[{"system":"http://terminology.hl7.org/CodeSystem/condition-category","code":"encounter-diagnosis","display":"Encounter Diagnosis","userSelected":true}]}],"code":{"coding":[{"system":"http://snomed.info/sct","version":"2020-09","code":"255409004","display":"Pregnant woman (person)","userSelected":true}]},"subject":{"reference":"Patient/c453e51c-aa59-4755-b872-28b2f05f3552"},"onsetDateTime":"2024-10-01T08:00:00.000+00:00","abatementDateTime":"2026-10-31T08:15:00.000+00:00"},"request":{"method":"PUT","url":"Condition/04182ef9-d446-4489-adc5-53d8f94536c6"}},{"fullUrl":"https://madie.cms.gov/MeasureReport/6c7539ab-65f9-4759-b88b-f34bf6c61942","resource":{"resourceType":"MeasureReport","id":"6c7539ab-65f9-4759-b88b-f34bf6c61942","meta":{"profile":["http://hl7.org/fhir/us/cqfmeasures/StructureDefinition/test-case-cqfm"]},"contained":[{"resourceType":"Parameters","id":"92b3cac2-66f4-49f3-aedb-5cd820369608-parameters","parameter":[{"name":"subject","valueString":"c453e51c-aa59-4755-b872-28b2f05f3552"}]}],"extension":[{"url":"http://hl7.org/fhir/us/cqfmeasures/StructureDefinition/cqfm-inputParameters","valueReference":{"reference":"#92b3cac2-66f4-49f3-aedb-5cd820369608-parameters"}},{"url":"http://hl7.org/fhir/us/cqfmeasures/StructureDefinition/cqfm-testCaseDescription","valueMarkdown":"pregnancy starts before and ends after ED visit"}],"modifierExtension":[{"url":"http://hl7.org/fhir/us/cqfmeasures/StructureDefinition/cqfm-isTestCase","valueBoolean":true}],"status":"complete","type":"individual","measure":"https://madie.cms.gov/Measure/CMS996FHIRAptTxforSTEMI","period":{"start":"2026-01-01","end":"2026-12-31"},"group":[{"population":[{"code":{"coding":[{"system":"http://terminology.hl7.org/CodeSystem/measure-population","code":"initial-population","display":"Initial Population"}]},"count":1},{"code":{"coding":[{"system":"http://terminology.hl7.org/CodeSystem/measure-population","code":"denominator","display":"Denominator"}]},"count":1},{"code":{"coding":[{"system":"http://terminology.hl7.org/CodeSystem/measure-population","code":"denominator-exclusion","display":"Denominator Exclusion"}]},"count":1},{"code":{"coding":[{"system":"http://terminology.hl7.org/CodeSystem/measure-population","code":"numerator","display":"Numerator"}]},"count":0},{"code":{"coding":[{"system":"http://terminology.hl7.org/CodeSystem/measure-population","code":"denominator-exception","display":"Denominator Exception"}]},"count":0}]}]},"request":{"method":"PUT","url":"MeasureReport/6c7539ab-65f9-4759-b88b-f34bf6c61942"}}]}