{"resourceType":"Bundle","id":"tests-9f17f3e9-55eb-4c67-a4e0-1cc85961330d-bundle","type":"transaction","entry":[{"fullUrl":"https://madie.cms.gov/Patient/9f17f3e9-55eb-4c67-a4e0-1cc85961330d","resource":{"resourceType":"Patient","id":"9f17f3e9-55eb-4c67-a4e0-1cc85961330d","meta":{"profile":["http://hl7.org/fhir/us/qicore/StructureDefinition/qicore-patient"]},"extension":[{"url":"http://hl7.org/fhir/us/core/StructureDefinition/us-core-race","extension":[{"url":"ombCategory","valueCoding":{"system":"urn:oid:2.16.840.1.113883.6.238","code":"2076-8","display":"Native Hawaiian or Other Pacific Islander","userSelected":true}},{"url":"text","valueString":"Native Hawaiian or Other Pacific Islander"}]},{"url":"http://hl7.org/fhir/us/core/StructureDefinition/us-core-ethnicity","extension":[{"url":"ombCategory","valueCoding":{"system":"urn:oid:2.16.840.1.113883.6.238","code":"2186-5","display":"Not Hispanic or Latino","userSelected":true}},{"url":"text","valueString":"Not Hispanic or Latino"}]}],"identifier":[{"type":{"coding":[{"system":"http://terminology.hl7.org/CodeSystem/v2-0203","code":"MR"}]},"system":"https://bonnie-fhir.healthit.gov/","value":"617b0d8f513b5d1ee28b7572"}],"name":[{"family":"DenExcl4Fail","given":["DxStartsBeforeEndsBeforeED"]}],"gender":"female","birthDate":"1985-12-02"},"request":{"method":"PUT","url":"Patient/9f17f3e9-55eb-4c67-a4e0-1cc85961330d"}},{"fullUrl":"https://madie.cms.gov/Encounter/d5a259b9-f00b-4c5d-b4e4-96106e3c9f1a","resource":{"resourceType":"Encounter","id":"d5a259b9-f00b-4c5d-b4e4-96106e3c9f1a","meta":{"profile":["http://hl7.org/fhir/us/qicore/StructureDefinition/qicore-encounter"]},"status":"finished","class":{"system":"http://terminology.hl7.org/CodeSystem/v3-ActCode","code":"EMER","display":"emergency","userSelected":true},"type":[{"coding":[{"system":"http://snomed.info/sct","version":"2020-09","code":"4525004","display":"Emergency department patient visit (procedure)","userSelected":true}]}],"subject":{"reference":"Patient/9f17f3e9-55eb-4c67-a4e0-1cc85961330d"},"period":{"start":"2026-10-09T08:05:00.000+00:00","end":"2026-10-10T07:15:00.000+00:00"}},"request":{"method":"PUT","url":"Encounter/d5a259b9-f00b-4c5d-b4e4-96106e3c9f1a"}},{"fullUrl":"https://madie.cms.gov/Condition/bb634e7e-fa23-4bfb-8b68-2c1c49d61f49","resource":{"resourceType":"Condition","id":"bb634e7e-fa23-4bfb-8b68-2c1c49d61f49","meta":{"profile":["http://hl7.org/fhir/us/qicore/StructureDefinition/qicore-condition"]},"clinicalStatus":{"coding":[{"system":"http://terminology.hl7.org/CodeSystem/condition-clinical","code":"active","display":"active","userSelected":true}]},"category":[{"coding":[{"system":"http://terminology.hl7.org/CodeSystem/condition-category","code":"encounter-diagnosis","display":"Encounter Diagnosis","userSelected":true}]}],"code":{"coding":[{"system":"http://snomed.info/sct","version":"2020-09","code":"401303003","display":"Acute ST segment elevation myocardial infarction (disorder)","userSelected":true}]},"subject":{"reference":"Patient/9f17f3e9-55eb-4c67-a4e0-1cc85961330d"},"onsetDateTime":"2026-10-09T08:30:00.000+00:00"},"request":{"method":"PUT","url":"Condition/bb634e7e-fa23-4bfb-8b68-2c1c49d61f49"}},{"fullUrl":"https://madie.cms.gov/Condition/7b179164-1162-47aa-bb83-57137762305e","resource":{"resourceType":"Condition","id":"7b179164-1162-47aa-bb83-57137762305e","meta":{"profile":["http://hl7.org/fhir/us/qicore/StructureDefinition/qicore-condition"]},"clinicalStatus":{"coding":[{"system":"http://terminology.hl7.org/CodeSystem/condition-clinical","version":"4.0.1","code":"inactive","display":"Inactive","userSelected":true}]},"category":[{"coding":[{"system":"http://terminology.hl7.org/CodeSystem/condition-category","code":"encounter-diagnosis","display":"Encounter Diagnosis","userSelected":true}]}],"code":{"coding":[{"system":"http://snomed.info/sct","version":"2020-09","code":"105604006","display":"Deficiency of naturally occurring coagulation factor inhibitor (disorder)","userSelected":true}]},"subject":{"reference":"Patient/9f17f3e9-55eb-4c67-a4e0-1cc85961330d"},"onsetDateTime":"2026-10-01T08:00:00.000+00:00","abatementDateTime":"2026-10-08T08:15:00.000+00:00"},"request":{"method":"PUT","url":"Condition/7b179164-1162-47aa-bb83-57137762305e"}},{"fullUrl":"https://madie.cms.gov/MeasureReport/92d0fb44-9ca8-451d-99f6-ba6a07012a2c","resource":{"resourceType":"MeasureReport","id":"92d0fb44-9ca8-451d-99f6-ba6a07012a2c","meta":{"profile":["http://hl7.org/fhir/us/cqfmeasures/StructureDefinition/test-case-cqfm"]},"contained":[{"resourceType":"Parameters","id":"b7ddbb99-11a0-40a5-9727-4cc5b1ee0885-parameters","parameter":[{"name":"subject","valueString":"9f17f3e9-55eb-4c67-a4e0-1cc85961330d"}]}],"extension":[{"url":"http://hl7.org/fhir/us/cqfmeasures/StructureDefinition/cqfm-inputParameters","valueReference":{"reference":"#b7ddbb99-11a0-40a5-9727-4cc5b1ee0885-parameters"}},{"url":"http://hl7.org/fhir/us/cqfmeasures/StructureDefinition/cqfm-testCaseDescription","valueMarkdown":"Patient has active bleeding (exclusion dx) starts before ED and ends before ED"}],"modifierExtension":[{"url":"http://hl7.org/fhir/us/cqfmeasures/StructureDefinition/cqfm-isTestCase","valueBoolean":true}],"status":"complete","type":"individual","measure":"https://madie.cms.gov/Measure/CMS996FHIRAptTxforSTEMI","period":{"start":"2026-01-01","end":"2026-12-31"},"group":[{"population":[{"code":{"coding":[{"system":"http://terminology.hl7.org/CodeSystem/measure-population","code":"initial-population","display":"Initial Population"}]},"count":1},{"code":{"coding":[{"system":"http://terminology.hl7.org/CodeSystem/measure-population","code":"denominator","display":"Denominator"}]},"count":1},{"code":{"coding":[{"system":"http://terminology.hl7.org/CodeSystem/measure-population","code":"denominator-exclusion","display":"Denominator Exclusion"}]},"count":0},{"code":{"coding":[{"system":"http://terminology.hl7.org/CodeSystem/measure-population","code":"numerator","display":"Numerator"}]},"count":0},{"code":{"coding":[{"system":"http://terminology.hl7.org/CodeSystem/measure-population","code":"denominator-exception","display":"Denominator Exception"}]},"count":0}]}]},"request":{"method":"PUT","url":"MeasureReport/92d0fb44-9ca8-451d-99f6-ba6a07012a2c"}}]}