{"resourceType":"Bundle","id":"tests-64b49dbf-ca61-4e12-a99c-b2bfb95c53fb-bundle","type":"transaction","entry":[{"fullUrl":"https://madie.cms.gov/Patient/64b49dbf-ca61-4e12-a99c-b2bfb95c53fb","resource":{"resourceType":"Patient","id":"64b49dbf-ca61-4e12-a99c-b2bfb95c53fb","meta":{"profile":["http://hl7.org/fhir/us/qicore/StructureDefinition/qicore-patient"]},"extension":[{"url":"http://hl7.org/fhir/us/core/StructureDefinition/us-core-race","extension":[{"url":"ombCategory","valueCoding":{"system":"urn:oid:2.16.840.1.113883.6.238","code":"2076-8","display":"Native Hawaiian or Other Pacific Islander","userSelected":true}},{"url":"text","valueString":"Native Hawaiian or Other Pacific Islander"}]},{"url":"http://hl7.org/fhir/us/core/StructureDefinition/us-core-ethnicity","extension":[{"url":"ombCategory","valueCoding":{"system":"urn:oid:2.16.840.1.113883.6.238","code":"2186-5","display":"Not Hispanic or Latino","userSelected":true}},{"url":"text","valueString":"Not Hispanic or Latino"}]}],"identifier":[{"type":{"coding":[{"system":"http://terminology.hl7.org/CodeSystem/v2-0203","code":"MR"}]},"system":"https://bonnie-fhir.healthit.gov/","value":"617c00401289f5673c8cefff"}],"name":[{"family":"DenExcl5Pass","given":["PxStarts8DBeforeEDEndsDuringED"]}],"gender":"female","birthDate":"1985-12-02"},"request":{"method":"PUT","url":"Patient/64b49dbf-ca61-4e12-a99c-b2bfb95c53fb"}},{"fullUrl":"https://madie.cms.gov/Encounter/011dc88a-ced5-4ad9-858d-04d18cee9d8f","resource":{"resourceType":"Encounter","id":"011dc88a-ced5-4ad9-858d-04d18cee9d8f","meta":{"profile":["http://hl7.org/fhir/us/qicore/StructureDefinition/qicore-encounter"]},"status":"finished","class":{"system":"http://terminology.hl7.org/CodeSystem/v3-ActCode","code":"EMER","display":"emergency","userSelected":true},"type":[{"coding":[{"system":"http://snomed.info/sct","version":"2020-09","code":"4525004","display":"Emergency department patient visit (procedure)","userSelected":true}]}],"subject":{"reference":"Patient/64b49dbf-ca61-4e12-a99c-b2bfb95c53fb"},"period":{"start":"2026-10-09T08:05:00.000+00:00","end":"2026-10-10T07:15:00.000+00:00"}},"request":{"method":"PUT","url":"Encounter/011dc88a-ced5-4ad9-858d-04d18cee9d8f"}},{"fullUrl":"https://madie.cms.gov/Condition/31df2185-1942-4752-b9d2-4419d6720868","resource":{"resourceType":"Condition","id":"31df2185-1942-4752-b9d2-4419d6720868","meta":{"profile":["http://hl7.org/fhir/us/qicore/StructureDefinition/qicore-condition"]},"clinicalStatus":{"coding":[{"system":"http://terminology.hl7.org/CodeSystem/condition-clinical","code":"active","display":"active","userSelected":true}]},"category":[{"coding":[{"system":"http://terminology.hl7.org/CodeSystem/condition-category","code":"encounter-diagnosis","display":"Encounter Diagnosis","userSelected":true}]}],"code":{"coding":[{"system":"http://snomed.info/sct","version":"2020-09","code":"401303003","display":"Acute ST segment elevation myocardial infarction (disorder)","userSelected":true}]},"subject":{"reference":"Patient/64b49dbf-ca61-4e12-a99c-b2bfb95c53fb"},"onsetDateTime":"2026-10-09T08:30:00.000+00:00"},"request":{"method":"PUT","url":"Condition/31df2185-1942-4752-b9d2-4419d6720868"}},{"fullUrl":"https://madie.cms.gov/Procedure/3fd695b7-4060-45dd-901f-4a3847314999","resource":{"resourceType":"Procedure","id":"3fd695b7-4060-45dd-901f-4a3847314999","meta":{"profile":["http://hl7.org/fhir/us/qicore/StructureDefinition/qicore-procedure"]},"extension":[{"url":"http://hl7.org/fhir/us/qicore/StructureDefinition/qicore-recorded","valueDateTime":"2026-10-09T10:15:00.000+00:00"}],"status":"completed","category":{"coding":[{"system":"http://snomed.info/sct","code":"387713003","display":"Surgical procedure","userSelected":true}]},"code":{"coding":[{"system":"http://www.cms.gov/Medicare/Coding/ICD10","version":"2021","code":"00500ZZ","display":"Destruction of Brain, Open Approach","userSelected":true}]},"subject":{"reference":"Patient/64b49dbf-ca61-4e12-a99c-b2bfb95c53fb"},"performedPeriod":{"start":"2026-10-01T08:00:00.000+00:00","end":"2026-10-09T10:15:00.000+00:00"}},"request":{"method":"PUT","url":"Procedure/3fd695b7-4060-45dd-901f-4a3847314999"}},{"fullUrl":"https://madie.cms.gov/MeasureReport/eee3c7a0-eb1c-4281-8c28-784715c440cf","resource":{"resourceType":"MeasureReport","id":"eee3c7a0-eb1c-4281-8c28-784715c440cf","meta":{"profile":["http://hl7.org/fhir/us/cqfmeasures/StructureDefinition/test-case-cqfm"]},"contained":[{"resourceType":"Parameters","id":"d0fe82b1-d767-4eff-bbf1-3f1aea46ad15-parameters","parameter":[{"name":"subject","valueString":"64b49dbf-ca61-4e12-a99c-b2bfb95c53fb"}]}],"extension":[{"url":"http://hl7.org/fhir/us/cqfmeasures/StructureDefinition/cqfm-inputParameters","valueReference":{"reference":"#d0fe82b1-d767-4eff-bbf1-3f1aea46ad15-parameters"}},{"url":"http://hl7.org/fhir/us/cqfmeasures/StructureDefinition/cqfm-testCaseDescription","valueMarkdown":"Patient has Intracranial or Intraspinal Surgery (exclusion Px) starts 8 days before ED visit and ends during ED\n**need to select codes to test this logic as value set overlaps with major surgical procedure**"}],"modifierExtension":[{"url":"http://hl7.org/fhir/us/cqfmeasures/StructureDefinition/cqfm-isTestCase","valueBoolean":true}],"status":"complete","type":"individual","measure":"https://madie.cms.gov/Measure/CMS996FHIRAptTxforSTEMI","period":{"start":"2026-01-01","end":"2026-12-31"},"group":[{"population":[{"code":{"coding":[{"system":"http://terminology.hl7.org/CodeSystem/measure-population","code":"initial-population","display":"Initial Population"}]},"count":1},{"code":{"coding":[{"system":"http://terminology.hl7.org/CodeSystem/measure-population","code":"denominator","display":"Denominator"}]},"count":1},{"code":{"coding":[{"system":"http://terminology.hl7.org/CodeSystem/measure-population","code":"denominator-exclusion","display":"Denominator Exclusion"}]},"count":1},{"code":{"coding":[{"system":"http://terminology.hl7.org/CodeSystem/measure-population","code":"numerator","display":"Numerator"}]},"count":0},{"code":{"coding":[{"system":"http://terminology.hl7.org/CodeSystem/measure-population","code":"denominator-exception","display":"Denominator Exception"}]},"count":0}]}]},"request":{"method":"PUT","url":"MeasureReport/eee3c7a0-eb1c-4281-8c28-784715c440cf"}}]}