{"resourceType":"Bundle","id":"tests-e5611b09-d279-4c4d-ae0a-8cf72c0a6984-bundle","type":"transaction","entry":[{"fullUrl":"https://madie.cms.gov/Patient/e5611b09-d279-4c4d-ae0a-8cf72c0a6984","resource":{"resourceType":"Patient","id":"e5611b09-d279-4c4d-ae0a-8cf72c0a6984","meta":{"profile":["http://hl7.org/fhir/us/qicore/StructureDefinition/qicore-patient"]},"extension":[{"url":"http://hl7.org/fhir/us/core/StructureDefinition/us-core-race","extension":[{"url":"ombCategory","valueCoding":{"system":"urn:oid:2.16.840.1.113883.6.238","code":"1002-5","display":"American Indian or Alaska Native","userSelected":true}},{"url":"text","valueString":"American Indian or Alaska Native"}]},{"url":"http://hl7.org/fhir/us/core/StructureDefinition/us-core-ethnicity","extension":[{"url":"ombCategory","valueCoding":{"system":"urn:oid:2.16.840.1.113883.6.238","code":"2186-5","display":"Not Hispanic or Latino","userSelected":true}},{"url":"text","valueString":"Not Hispanic or Latino"}]}],"identifier":[{"type":{"coding":[{"system":"http://terminology.hl7.org/CodeSystem/v2-0203","code":"MR"}]},"system":"https://bonnie-fhir.healthit.gov/","value":"617ad6051e8170ac98fce637"}],"name":[{"family":"IPFail","given":["STEMIbeforeEnc"]}],"gender":"female","birthDate":"1985-12-02"},"request":{"method":"PUT","url":"Patient/e5611b09-d279-4c4d-ae0a-8cf72c0a6984"}},{"fullUrl":"https://madie.cms.gov/Encounter/294ff3a4-21a8-4697-97e8-824e9efff51b","resource":{"resourceType":"Encounter","id":"294ff3a4-21a8-4697-97e8-824e9efff51b","meta":{"profile":["http://hl7.org/fhir/us/qicore/StructureDefinition/qicore-encounter"]},"status":"finished","class":{"system":"http://terminology.hl7.org/CodeSystem/v3-ActCode","code":"EMER","display":"emergency","userSelected":true},"type":[{"coding":[{"system":"http://snomed.info/sct","version":"2020-09","code":"4525004","display":"Emergency department patient visit (procedure)","userSelected":true}]}],"subject":{"reference":"Patient/e5611b09-d279-4c4d-ae0a-8cf72c0a6984"},"period":{"start":"2024-10-09T08:05:00.000+00:00","end":"2024-10-10T07:15:00.000+00:00"},"diagnosis":[{"condition":{"reference":"Condition/d7326089-191f-4ced-8762-d46f60eb6b3a"}}]},"request":{"method":"PUT","url":"Encounter/294ff3a4-21a8-4697-97e8-824e9efff51b"}},{"fullUrl":"https://madie.cms.gov/Condition/d7326089-191f-4ced-8762-d46f60eb6b3a","resource":{"resourceType":"Condition","id":"d7326089-191f-4ced-8762-d46f60eb6b3a","meta":{"profile":["http://hl7.org/fhir/us/qicore/StructureDefinition/qicore-condition"]},"clinicalStatus":{"coding":[{"system":"http://terminology.hl7.org/CodeSystem/condition-clinical","code":"inactive","display":"inactive","userSelected":true}]},"category":[{"coding":[{"system":"http://terminology.hl7.org/CodeSystem/condition-category","code":"encounter-diagnosis","display":"Encounter Diagnosis","userSelected":true}]}],"code":{"coding":[{"system":"http://hl7.org/fhir/sid/icd-10-cm","code":"I21.19","userSelected":true}]},"subject":{"reference":"Patient/e5611b09-d279-4c4d-ae0a-8cf72c0a6984"},"onsetDateTime":"2026-01-10T08:00:00.000+00:00","abatementDateTime":"2026-03-20T09:15:00.000+00:00"},"request":{"method":"PUT","url":"Condition/d7326089-191f-4ced-8762-d46f60eb6b3a"}},{"fullUrl":"https://madie.cms.gov/MeasureReport/8aea941c-0223-446b-871e-57140d8505a2","resource":{"resourceType":"MeasureReport","id":"8aea941c-0223-446b-871e-57140d8505a2","meta":{"profile":["http://hl7.org/fhir/us/cqfmeasures/StructureDefinition/test-case-cqfm"]},"contained":[{"resourceType":"Parameters","id":"52b73383-305b-46b1-a9c5-a88151b553e6-parameters","parameter":[{"name":"subject","valueString":"e5611b09-d279-4c4d-ae0a-8cf72c0a6984"}]}],"extension":[{"url":"http://hl7.org/fhir/us/cqfmeasures/StructureDefinition/cqfm-inputParameters","valueReference":{"reference":"#52b73383-305b-46b1-a9c5-a88151b553e6-parameters"}},{"url":"http://hl7.org/fhir/us/cqfmeasures/StructureDefinition/cqfm-testCaseDescription","valueMarkdown":"Patient is over 18 years old and has an encounter during the MP and a STEMI before the Encounter"}],"modifierExtension":[{"url":"http://hl7.org/fhir/us/cqfmeasures/StructureDefinition/cqfm-isTestCase","valueBoolean":true}],"status":"complete","type":"individual","measure":"https://madie.cms.gov/Measure/CMS996FHIRAptTxforSTEMI","period":{"start":"2026-01-01","end":"2026-12-31"},"group":[{"population":[{"code":{"coding":[{"system":"http://terminology.hl7.org/CodeSystem/measure-population","code":"initial-population","display":"Initial Population"}]},"count":0},{"code":{"coding":[{"system":"http://terminology.hl7.org/CodeSystem/measure-population","code":"denominator","display":"Denominator"}]},"count":0},{"code":{"coding":[{"system":"http://terminology.hl7.org/CodeSystem/measure-population","code":"denominator-exclusion","display":"Denominator Exclusion"}]},"count":0},{"code":{"coding":[{"system":"http://terminology.hl7.org/CodeSystem/measure-population","code":"numerator","display":"Numerator"}]},"count":0},{"code":{"coding":[{"system":"http://terminology.hl7.org/CodeSystem/measure-population","code":"denominator-exception","display":"Denominator Exception"}]},"count":0}]}]},"request":{"method":"PUT","url":"MeasureReport/8aea941c-0223-446b-871e-57140d8505a2"}}]}