{"resourceType":"Bundle","id":"tests-eab13a30-13ed-4b28-b460-4893998e0733-bundle","type":"transaction","entry":[{"fullUrl":"https://madie.cms.gov/Patient/eab13a30-13ed-4b28-b460-4893998e0733","resource":{"resourceType":"Patient","id":"eab13a30-13ed-4b28-b460-4893998e0733","meta":{"profile":["http://hl7.org/fhir/us/qicore/StructureDefinition/qicore-patient"]},"extension":[{"url":"http://hl7.org/fhir/us/core/StructureDefinition/us-core-race","extension":[{"url":"ombCategory","valueCoding":{"system":"urn:oid:2.16.840.1.113883.6.238","code":"2028-9","display":"Asian","userSelected":true}},{"url":"text","valueString":"Asian"}]},{"url":"http://hl7.org/fhir/us/core/StructureDefinition/us-core-ethnicity","extension":[{"url":"ombCategory","valueCoding":{"system":"urn:oid:2.16.840.1.113883.6.238","code":"2186-5","display":"Not Hispanic or Latino","userSelected":true}},{"url":"text","valueString":"Not Hispanic or Latino"}]}],"identifier":[{"type":{"coding":[{"system":"http://terminology.hl7.org/CodeSystem/v2-0203","code":"MR"}]},"system":"https://bonnie-fhir.healthit.gov/","value":"617b1149513b5d1ee28b757d"}],"name":[{"family":"DenExcl4Pass","given":["DxStartsBeforeEndsAfterED"]}],"gender":"male","birthDate":"1985-12-02"},"request":{"method":"PUT","url":"Patient/eab13a30-13ed-4b28-b460-4893998e0733"}},{"fullUrl":"https://madie.cms.gov/Encounter/473d2ee8-ab6d-446f-aca4-f57fb26aff05","resource":{"resourceType":"Encounter","id":"473d2ee8-ab6d-446f-aca4-f57fb26aff05","meta":{"profile":["http://hl7.org/fhir/us/qicore/StructureDefinition/qicore-encounter"]},"status":"finished","class":{"system":"http://terminology.hl7.org/CodeSystem/v3-ActCode","code":"EMER","display":"emergency","userSelected":true},"type":[{"coding":[{"system":"http://snomed.info/sct","version":"2020-09","code":"4525004","display":"Emergency department patient visit (procedure)","userSelected":true}]}],"subject":{"reference":"Patient/eab13a30-13ed-4b28-b460-4893998e0733"},"period":{"start":"2026-10-09T08:05:00.000+00:00","end":"2026-10-10T07:15:00.000+00:00"}},"request":{"method":"PUT","url":"Encounter/473d2ee8-ab6d-446f-aca4-f57fb26aff05"}},{"fullUrl":"https://madie.cms.gov/Condition/09464639-5f52-4b12-a86e-760c8c806b3d","resource":{"resourceType":"Condition","id":"09464639-5f52-4b12-a86e-760c8c806b3d","meta":{"profile":["http://hl7.org/fhir/us/qicore/StructureDefinition/qicore-condition"]},"clinicalStatus":{"coding":[{"system":"http://terminology.hl7.org/CodeSystem/condition-clinical","code":"active","display":"active","userSelected":true}]},"category":[{"coding":[{"system":"http://terminology.hl7.org/CodeSystem/condition-category","code":"encounter-diagnosis","display":"Encounter Diagnosis","userSelected":true}]}],"code":{"coding":[{"system":"http://snomed.info/sct","version":"2020-09","code":"401303003","display":"Acute ST segment elevation myocardial infarction (disorder)","userSelected":true}]},"subject":{"reference":"Patient/eab13a30-13ed-4b28-b460-4893998e0733"},"onsetDateTime":"2026-10-09T08:30:00.000+00:00"},"request":{"method":"PUT","url":"Condition/09464639-5f52-4b12-a86e-760c8c806b3d"}},{"fullUrl":"https://madie.cms.gov/Condition/eee92fb1-1175-4032-aed6-f580afe5757e","resource":{"resourceType":"Condition","id":"eee92fb1-1175-4032-aed6-f580afe5757e","meta":{"profile":["http://hl7.org/fhir/us/qicore/StructureDefinition/qicore-condition"]},"clinicalStatus":{"coding":[{"system":"http://terminology.hl7.org/CodeSystem/condition-clinical","version":"4.0.1","code":"inactive","display":"Inactive","userSelected":true}]},"category":[{"coding":[{"system":"http://terminology.hl7.org/CodeSystem/condition-category","code":"encounter-diagnosis","display":"Encounter Diagnosis","userSelected":true}]}],"code":{"coding":[{"system":"http://snomed.info/sct","version":"2020-09","code":"101421000119107","display":"Dementia due to Parkinson's disease (disorder)","userSelected":true}]},"subject":{"reference":"Patient/eab13a30-13ed-4b28-b460-4893998e0733"},"onsetDateTime":"2024-10-01T08:00:00.000+00:00","abatementDateTime":"2026-10-31T08:15:00.000+00:00"},"request":{"method":"PUT","url":"Condition/eee92fb1-1175-4032-aed6-f580afe5757e"}},{"fullUrl":"https://madie.cms.gov/MeasureReport/a76d3ba3-a322-40a2-a902-8e9873b2e200","resource":{"resourceType":"MeasureReport","id":"a76d3ba3-a322-40a2-a902-8e9873b2e200","meta":{"profile":["http://hl7.org/fhir/us/cqfmeasures/StructureDefinition/test-case-cqfm"]},"contained":[{"resourceType":"Parameters","id":"c5995c6f-060d-45ab-b5e9-46d11f07a718-parameters","parameter":[{"name":"subject","valueString":"eab13a30-13ed-4b28-b460-4893998e0733"}]}],"extension":[{"url":"http://hl7.org/fhir/us/cqfmeasures/StructureDefinition/cqfm-inputParameters","valueReference":{"reference":"#c5995c6f-060d-45ab-b5e9-46d11f07a718-parameters"}},{"url":"http://hl7.org/fhir/us/cqfmeasures/StructureDefinition/cqfm-testCaseDescription","valueMarkdown":"Patient has Dementia (exclusion dx) starts before ends after ED"}],"modifierExtension":[{"url":"http://hl7.org/fhir/us/cqfmeasures/StructureDefinition/cqfm-isTestCase","valueBoolean":true}],"status":"complete","type":"individual","measure":"https://madie.cms.gov/Measure/CMS996FHIRAptTxforSTEMI","period":{"start":"2026-01-01","end":"2026-12-31"},"group":[{"population":[{"code":{"coding":[{"system":"http://terminology.hl7.org/CodeSystem/measure-population","code":"initial-population","display":"Initial Population"}]},"count":1},{"code":{"coding":[{"system":"http://terminology.hl7.org/CodeSystem/measure-population","code":"denominator","display":"Denominator"}]},"count":1},{"code":{"coding":[{"system":"http://terminology.hl7.org/CodeSystem/measure-population","code":"denominator-exclusion","display":"Denominator Exclusion"}]},"count":1},{"code":{"coding":[{"system":"http://terminology.hl7.org/CodeSystem/measure-population","code":"numerator","display":"Numerator"}]},"count":0},{"code":{"coding":[{"system":"http://terminology.hl7.org/CodeSystem/measure-population","code":"denominator-exception","display":"Denominator Exception"}]},"count":0}]}]},"request":{"method":"PUT","url":"MeasureReport/a76d3ba3-a322-40a2-a902-8e9873b2e200"}}]}