{"resourceType":"Bundle","id":"tests-ff9913bf-ff27-4b92-b28c-d3eda9866d2f-bundle","type":"transaction","entry":[{"fullUrl":"https://madie.cms.gov/Patient/ff9913bf-ff27-4b92-b28c-d3eda9866d2f","resource":{"resourceType":"Patient","id":"ff9913bf-ff27-4b92-b28c-d3eda9866d2f","meta":{"profile":["http://hl7.org/fhir/us/qicore/StructureDefinition/qicore-patient"]},"extension":[{"url":"http://hl7.org/fhir/us/core/StructureDefinition/us-core-race","extension":[{"url":"ombCategory","valueCoding":{"system":"urn:oid:2.16.840.1.113883.6.238","code":"2076-8","display":"Native Hawaiian or Other Pacific Islander","userSelected":true}},{"url":"text","valueString":"Native Hawaiian or Other Pacific Islander"}]},{"url":"http://hl7.org/fhir/us/core/StructureDefinition/us-core-ethnicity","extension":[{"url":"ombCategory","valueCoding":{"system":"urn:oid:2.16.840.1.113883.6.238","code":"2186-5","display":"Not Hispanic or Latino","userSelected":true}},{"url":"text","valueString":"Not Hispanic or Latino"}]}],"identifier":[{"type":{"coding":[{"system":"http://terminology.hl7.org/CodeSystem/v2-0203","code":"MR"}]},"system":"https://bonnie-fhir.healthit.gov/","value":"6179e214e2011aa9929f330e"}],"name":[{"family":"DenExcl1Fail","given":["DxExclStartsBeforeEndsDuringED"]}],"gender":"female","birthDate":"1985-12-02"},"request":{"method":"PUT","url":"Patient/ff9913bf-ff27-4b92-b28c-d3eda9866d2f"}},{"fullUrl":"https://madie.cms.gov/Encounter/f457a8e2-3bf5-4447-bf9a-3ab5b148234a","resource":{"resourceType":"Encounter","id":"f457a8e2-3bf5-4447-bf9a-3ab5b148234a","meta":{"profile":["http://hl7.org/fhir/us/qicore/StructureDefinition/qicore-encounter"]},"status":"finished","class":{"system":"http://terminology.hl7.org/CodeSystem/v3-ActCode","code":"EMER","display":"emergency","userSelected":true},"type":[{"coding":[{"system":"http://snomed.info/sct","version":"2020-09","code":"4525004","display":"Emergency department patient visit (procedure)","userSelected":true}]}],"subject":{"reference":"Patient/ff9913bf-ff27-4b92-b28c-d3eda9866d2f"},"period":{"start":"2026-10-09T08:05:00.000+00:00","end":"2026-10-10T07:15:00.000+00:00"}},"request":{"method":"PUT","url":"Encounter/f457a8e2-3bf5-4447-bf9a-3ab5b148234a"}},{"fullUrl":"https://madie.cms.gov/Organization/2dc38040-f9e3-4a0c-bda7-a2c0a9053998","resource":{"resourceType":"Organization","id":"18ca435c-cae6-4c34-8033-af717477f9fc","meta":{"profile":["http://hl7.org/fhir/us/qicore/StructureDefinition/qicore-organization"]},"identifier":[{"use":"temp","system":"urn:oid:2.16.840.1.113883.4.336","value":"APayer"}],"active":true,"type":[{"coding":[{"system":"http://terminology.hl7.org/CodeSystem/organization-type","code":"pay","display":"Payer"}],"text":"Healthcare Payer"}],"name":"Test Medical Center","telecom":[{"system":"phone","value":"(+1) 800-123-4567"},{"system":"email","value":"mypayer@test.org"}],"address":[{"line":["600 Maple Avenue"],"city":"Indianapolis","state":"IN","postalCode":"46237","country":"USA"}]},"request":{"method":"PUT","url":"Organization/18ca435c-cae6-4c34-8033-af717477f9fc"}},{"fullUrl":"https://madie.cms.gov/Coverage/a91da6d3-8cc7-4410-a9ef-4bd6f1db2ff7","resource":{"resourceType":"Coverage","id":"a91da6d3-8cc7-4410-a9ef-4bd6f1db2ff7","meta":{"profile":["http://hl7.org/fhir/us/qicore/StructureDefinition/qicore-coverage"]},"identifier":[{"system":"http://benefitsinc.com/certificate","value":"12345"}],"status":"active","type":{"coding":[{"system":"https://nahdo.org/sopt","code":"59","display":"Other Private Insurance"}]},"policyHolder":{"reference":"Patient/ff9913bf-ff27-4b92-b28c-d3eda9866d2f"},"subscriber":{"reference":"Patient/ff9913bf-ff27-4b92-b28c-d3eda9866d2f"},"beneficiary":{"reference":"Patient/ff9913bf-ff27-4b92-b28c-d3eda9866d2f"},"dependent":"0","relationship":{"coding":[{"system":"http://terminology.hl7.org/CodeSystem/subscriber-relationship","code":"self"}]},"period":{"start":"2023-01-01T06:00:00.000Z","end":"2027-01-01T11:06:01.000Z"},"payor":[{"reference":"Organization/18ca435c-cae6-4c34-8033-af717477f9fc"}],"order":9},"request":{"method":"PUT","url":"Coverage/a91da6d3-8cc7-4410-a9ef-4bd6f1db2ff7"}},{"fullUrl":"https://madie.cms.gov/Condition/623b3b4a-c8ca-4fe0-a6c1-2a1a71d7fba6","resource":{"resourceType":"Condition","id":"623b3b4a-c8ca-4fe0-a6c1-2a1a71d7fba6","meta":{"profile":["http://hl7.org/fhir/us/qicore/StructureDefinition/qicore-condition"]},"clinicalStatus":{"coding":[{"system":"http://terminology.hl7.org/CodeSystem/condition-clinical","code":"active","display":"active","userSelected":true}]},"category":[{"coding":[{"system":"http://terminology.hl7.org/CodeSystem/condition-category","code":"encounter-diagnosis","display":"Encounter Diagnosis","userSelected":true}]}],"code":{"coding":[{"system":"http://snomed.info/sct","version":"2020-09","code":"401303003","display":"Acute ST segment elevation myocardial infarction (disorder)","userSelected":true}]},"subject":{"reference":"Patient/ff9913bf-ff27-4b92-b28c-d3eda9866d2f"},"onsetDateTime":"2026-10-09T08:30:00.000+00:00"},"request":{"method":"PUT","url":"Condition/623b3b4a-c8ca-4fe0-a6c1-2a1a71d7fba6"}},{"fullUrl":"https://madie.cms.gov/Condition/ef3ff890-5e6d-4c1a-b7c6-7bc3fdd90f2a","resource":{"resourceType":"Condition","id":"ef3ff890-5e6d-4c1a-b7c6-7bc3fdd90f2a","meta":{"profile":["http://hl7.org/fhir/us/qicore/StructureDefinition/qicore-condition"]},"clinicalStatus":{"coding":[{"system":"http://terminology.hl7.org/CodeSystem/condition-clinical","version":"4.0.1","code":"inactive","display":"Inactive","userSelected":true}]},"category":[{"coding":[{"system":"http://terminology.hl7.org/CodeSystem/condition-category","code":"encounter-diagnosis","display":"Encounter Diagnosis","userSelected":true}]}],"code":{"coding":[{"system":"http://snomed.info/sct","version":"2020-09","code":"111633007","display":"Open fracture of sacrum AND/OR coccyx with complete cauda equina lesion (disorder)","userSelected":true}]},"subject":{"reference":"Patient/ff9913bf-ff27-4b92-b28c-d3eda9866d2f"},"onsetDateTime":"2026-01-08T08:00:00.000+00:00","abatementDateTime":"2026-10-09T15:15:00.000+00:00"},"request":{"method":"PUT","url":"Condition/ef3ff890-5e6d-4c1a-b7c6-7bc3fdd90f2a"}},{"fullUrl":"https://madie.cms.gov/MeasureReport/489b07cf-852a-43f8-a664-0ccc0b38c031","resource":{"resourceType":"MeasureReport","id":"489b07cf-852a-43f8-a664-0ccc0b38c031","meta":{"profile":["http://hl7.org/fhir/us/cqfmeasures/StructureDefinition/test-case-cqfm"]},"contained":[{"resourceType":"Parameters","id":"231a2130-49ae-445a-b8c0-cb33e47873bd-parameters","parameter":[{"name":"subject","valueString":"ff9913bf-ff27-4b92-b28c-d3eda9866d2f"}]}],"extension":[{"url":"http://hl7.org/fhir/us/cqfmeasures/StructureDefinition/cqfm-inputParameters","valueReference":{"reference":"#231a2130-49ae-445a-b8c0-cb33e47873bd-parameters"}},{"url":"http://hl7.org/fhir/us/cqfmeasures/StructureDefinition/cqfm-testCaseDescription","valueMarkdown":"Patient has Neurologic Impairment (exclusion diagnosis) that starts before ED encounter and ends during ED"}],"modifierExtension":[{"url":"http://hl7.org/fhir/us/cqfmeasures/StructureDefinition/cqfm-isTestCase","valueBoolean":true}],"status":"complete","type":"individual","measure":"https://madie.cms.gov/Measure/CMS996FHIRAptTxforSTEMI","period":{"start":"2026-01-01","end":"2026-12-31"},"group":[{"population":[{"code":{"coding":[{"system":"http://terminology.hl7.org/CodeSystem/measure-population","code":"initial-population","display":"Initial Population"}]},"count":1},{"code":{"coding":[{"system":"http://terminology.hl7.org/CodeSystem/measure-population","code":"denominator","display":"Denominator"}]},"count":1},{"code":{"coding":[{"system":"http://terminology.hl7.org/CodeSystem/measure-population","code":"denominator-exclusion","display":"Denominator Exclusion"}]},"count":0},{"code":{"coding":[{"system":"http://terminology.hl7.org/CodeSystem/measure-population","code":"numerator","display":"Numerator"}]},"count":0},{"code":{"coding":[{"system":"http://terminology.hl7.org/CodeSystem/measure-population","code":"denominator-exception","display":"Denominator Exception"}]},"count":0}]}]},"request":{"method":"PUT","url":"MeasureReport/489b07cf-852a-43f8-a664-0ccc0b38c031"}}]}