{"resourceType":"Bundle","id":"tests-00845eb5-a7ef-4edd-a566-813ed3ca749a-bundle","type":"transaction","entry":[{"fullUrl":"https://madie.cms.gov/Patient/00845eb5-a7ef-4edd-a566-813ed3ca749a","resource":{"resourceType":"Patient","id":"00845eb5-a7ef-4edd-a566-813ed3ca749a","meta":{"profile":["http://hl7.org/fhir/us/qicore/StructureDefinition/qicore-patient"]},"extension":[{"url":"http://hl7.org/fhir/us/core/StructureDefinition/us-core-race","extension":[{"url":"ombCategory","valueCoding":{"system":"urn:oid:2.16.840.1.113883.6.238","code":"2076-8","display":"Native Hawaiian or Other Pacific Islander","userSelected":true}},{"url":"text","valueString":"Native Hawaiian or Other Pacific Islander"}]},{"url":"http://hl7.org/fhir/us/core/StructureDefinition/us-core-ethnicity","extension":[{"url":"ombCategory","valueCoding":{"system":"urn:oid:2.16.840.1.113883.6.238","code":"2186-5","display":"Not Hispanic or Latino","userSelected":true}},{"url":"text","valueString":"Not Hispanic or Latino"}]}],"identifier":[{"type":{"coding":[{"system":"http://terminology.hl7.org/CodeSystem/v2-0203","code":"MR"}]},"system":"https://bonnie-fhir.healthit.gov/","value":"6419de119c0269a68225bb45"}],"name":[{"family":"DenExcl4Fail","given":["DxStartsDuringEDNoEnd"]}],"gender":"female","birthDate":"1985-12-02"},"request":{"method":"PUT","url":"Patient/00845eb5-a7ef-4edd-a566-813ed3ca749a"}},{"fullUrl":"https://madie.cms.gov/Encounter/bfaf1727-ebf7-4077-8acc-32277d139a17","resource":{"resourceType":"Encounter","id":"bfaf1727-ebf7-4077-8acc-32277d139a17","meta":{"profile":["http://hl7.org/fhir/us/qicore/StructureDefinition/qicore-encounter"]},"status":"finished","class":{"system":"http://terminology.hl7.org/CodeSystem/v3-ActCode","code":"EMER","display":"emergency","userSelected":true},"type":[{"coding":[{"system":"http://snomed.info/sct","version":"2020-09","code":"4525004","display":"Emergency department patient visit (procedure)","userSelected":true}]}],"subject":{"reference":"Patient/00845eb5-a7ef-4edd-a566-813ed3ca749a"},"period":{"start":"2026-10-09T08:05:00.000+00:00","end":"2026-10-10T07:15:00.000+00:00"},"reasonCode":[{"coding":[{"system":"http://snomed.info/sct","version":"2020-09","code":"703253007","display":"Acute ST segment elevation myocardial infarction of inferior wall involving right ventricle (disorder)","userSelected":true}]}]},"request":{"method":"PUT","url":"Encounter/bfaf1727-ebf7-4077-8acc-32277d139a17"}},{"fullUrl":"https://madie.cms.gov/Condition/6bbbb294-f794-4eb4-ad11-680a7289b310","resource":{"resourceType":"Condition","id":"6bbbb294-f794-4eb4-ad11-680a7289b310","meta":{"profile":["http://hl7.org/fhir/us/qicore/StructureDefinition/qicore-condition"]},"clinicalStatus":{"coding":[{"system":"http://terminology.hl7.org/CodeSystem/condition-clinical","code":"active","display":"active","userSelected":true}]},"verificationStatus":{"coding":[{"system":"http://terminology.hl7.org/CodeSystem/condition-ver-status","code":"confirmed","display":"Confirmed","userSelected":true}]},"category":[{"coding":[{"system":"http://terminology.hl7.org/CodeSystem/condition-category","code":"encounter-diagnosis","display":"Encounter Diagnosis","userSelected":true}]}],"code":{"coding":[{"system":"http://snomed.info/sct","version":"2020-09","code":"401303003","display":"Acute ST segment elevation myocardial infarction (disorder)","userSelected":true}]},"subject":{"reference":"Patient/00845eb5-a7ef-4edd-a566-813ed3ca749a"},"onsetDateTime":"2026-10-09T08:30:00.000+00:00"},"request":{"method":"PUT","url":"Condition/6bbbb294-f794-4eb4-ad11-680a7289b310"}},{"fullUrl":"https://madie.cms.gov/Condition/66eea50c-558a-49bd-9aab-e7b3541ad853","resource":{"resourceType":"Condition","id":"66eea50c-558a-49bd-9aab-e7b3541ad853","meta":{"profile":["http://hl7.org/fhir/us/qicore/StructureDefinition/qicore-condition"]},"clinicalStatus":{"coding":[{"system":"http://terminology.hl7.org/CodeSystem/condition-clinical","code":"active","display":"Active","userSelected":true}]},"verificationStatus":{"coding":[{"system":"http://terminology.hl7.org/CodeSystem/condition-ver-status","code":"confirmed","display":"Confirmed","userSelected":true}]},"category":[{"coding":[{"system":"http://terminology.hl7.org/CodeSystem/condition-category","code":"encounter-diagnosis","display":"Encounter Diagnosis","userSelected":true}]}],"code":{"coding":[{"system":"http://snomed.info/sct","version":"2020-09","code":"295108008","display":"Allergy to streptokinase (finding)","userSelected":true}]},"subject":{"reference":"Patient/00845eb5-a7ef-4edd-a566-813ed3ca749a"},"onsetDateTime":"2026-10-09T10:00:00.000+00:00"},"request":{"method":"PUT","url":"Condition/66eea50c-558a-49bd-9aab-e7b3541ad853"}},{"fullUrl":"https://madie.cms.gov/Coverage/8c5f74aa-44d4-40a3-aa24-0ffc6ccccef8","resource":{"resourceType":"Coverage","id":"8c5f74aa-44d4-40a3-aa24-0ffc6ccccef8","meta":{"profile":["http://hl7.org/fhir/us/qicore/StructureDefinition/qicore-coverage"]},"status":"active","beneficiary":{"reference":"Patient/00845eb5-a7ef-4edd-a566-813ed3ca749a"},"payor":[{"reference":"Organization/4da248b0-6e59-49b7-b80e-338aa21d299f"}]},"request":{"method":"PUT","url":"Coverage/8c5f74aa-44d4-40a3-aa24-0ffc6ccccef8"}},{"fullUrl":"https://madie.cms.gov/Organization/fa9dfb1b-f449-4a97-ae75-66168f4b44f7","resource":{"resourceType":"Organization","id":"4da248b0-6e59-49b7-b80e-338aa21d299f","meta":{"profile":["http://hl7.org/fhir/us/qicore/StructureDefinition/qicore-organization"]},"identifier":[{"use":"temp","system":"urn:oid:2.16.840.1.113883.4.4","value":"21-3259825"}],"active":true,"type":[{"coding":[{"system":"http://terminology.hl7.org/CodeSystem/organization-type","code":"pay","display":"Payer"}]}],"name":"Blue Cross Blue Shield of Texas","telecom":[{"system":"phone","value":"(+1) 972-766-6900"}],"address":[{"use":"billing","type":"postal","line":["P.O. Box 660044"],"city":"Dallas","state":"TX","postalCode":"75266-0044","country":"USA"}]},"request":{"method":"PUT","url":"Organization/4da248b0-6e59-49b7-b80e-338aa21d299f"}},{"fullUrl":"https://madie.cms.gov/Practitioner/56e07038-761e-4ab3-a4a1-be93f016f2ca","resource":{"resourceType":"Practitioner","id":"56e07038-761e-4ab3-a4a1-be93f016f2ca","meta":{"profile":["http://hl7.org/fhir/us/qicore/StructureDefinition/qicore-practitioner"]},"identifier":[{"system":"http://hl7.org/fhir/sid/us-npi","value":"123456"}],"name":[{"family":"Evil","prefix":["Dr"]}]},"request":{"method":"PUT","url":"Practitioner/56e07038-761e-4ab3-a4a1-be93f016f2ca"}},{"fullUrl":"https://madie.cms.gov/MeasureReport/3d30a236-5bed-47bd-acb3-115682bd546c","resource":{"resourceType":"MeasureReport","id":"3d30a236-5bed-47bd-acb3-115682bd546c","meta":{"profile":["http://hl7.org/fhir/us/cqfmeasures/StructureDefinition/test-case-cqfm"]},"contained":[{"resourceType":"Parameters","id":"84129a11-5ad0-4ec0-8ad0-4f31c9766ca9-parameters","parameter":[{"name":"subject","valueString":"00845eb5-a7ef-4edd-a566-813ed3ca749a"}]}],"extension":[{"url":"http://hl7.org/fhir/us/cqfmeasures/StructureDefinition/cqfm-inputParameters","valueReference":{"reference":"#84129a11-5ad0-4ec0-8ad0-4f31c9766ca9-parameters"}},{"url":"http://hl7.org/fhir/us/cqfmeasures/StructureDefinition/cqfm-testCaseDescription","valueMarkdown":"Patient has allergy to thrombolytics (exclusion dx) starts during ED and no end"}],"modifierExtension":[{"url":"http://hl7.org/fhir/us/cqfmeasures/StructureDefinition/cqfm-isTestCase","valueBoolean":true}],"status":"complete","type":"individual","measure":"https://madie.cms.gov/Measure/CMS996FHIRAptTxforSTEMI","period":{"start":"2026-01-01","end":"2026-12-31"},"group":[{"population":[{"code":{"coding":[{"system":"http://terminology.hl7.org/CodeSystem/measure-population","code":"initial-population","display":"Initial Population"}]},"count":1},{"code":{"coding":[{"system":"http://terminology.hl7.org/CodeSystem/measure-population","code":"denominator","display":"Denominator"}]},"count":1},{"code":{"coding":[{"system":"http://terminology.hl7.org/CodeSystem/measure-population","code":"denominator-exclusion","display":"Denominator Exclusion"}]},"count":0},{"code":{"coding":[{"system":"http://terminology.hl7.org/CodeSystem/measure-population","code":"numerator","display":"Numerator"}]},"count":0},{"code":{"coding":[{"system":"http://terminology.hl7.org/CodeSystem/measure-population","code":"denominator-exception","display":"Denominator Exception"}]},"count":0}]}]},"request":{"method":"PUT","url":"MeasureReport/3d30a236-5bed-47bd-acb3-115682bd546c"}}]}