{"resourceType":"Bundle","id":"tests-ebdb2548-e2a1-4cee-a7df-c824f80b4eab-bundle","type":"transaction","entry":[{"fullUrl":"https://madie.cms.gov/Patient/ebdb2548-e2a1-4cee-a7df-c824f80b4eab","resource":{"resourceType":"Patient","id":"ebdb2548-e2a1-4cee-a7df-c824f80b4eab","meta":{"profile":["http://hl7.org/fhir/us/qicore/StructureDefinition/qicore-patient"]},"extension":[{"url":"http://hl7.org/fhir/us/core/StructureDefinition/us-core-race","extension":[{"url":"ombCategory","valueCoding":{"system":"urn:oid:2.16.840.1.113883.6.238","code":"2028-9","display":"Asian","userSelected":true}},{"url":"text","valueString":"Asian"}]},{"url":"http://hl7.org/fhir/us/core/StructureDefinition/us-core-ethnicity","extension":[{"url":"ombCategory","valueCoding":{"system":"urn:oid:2.16.840.1.113883.6.238","code":"2186-5","display":"Not Hispanic or Latino","userSelected":true}},{"url":"text","valueString":"Not Hispanic or Latino"}]}],"identifier":[{"type":{"coding":[{"system":"http://terminology.hl7.org/CodeSystem/v2-0203","code":"MR"}]},"system":"https://bonnie-fhir.healthit.gov/","value":"617be6951619a529957d62b4"}],"name":[{"family":"DenExcl6Fail","given":["MedStartsWayBeforeED"]}],"gender":"female","birthDate":"1985-12-02"},"request":{"method":"PUT","url":"Patient/ebdb2548-e2a1-4cee-a7df-c824f80b4eab"}},{"fullUrl":"https://madie.cms.gov/Encounter/9b78382a-d055-4f68-b1f7-570f9a8c387b","resource":{"resourceType":"Encounter","id":"9b78382a-d055-4f68-b1f7-570f9a8c387b","meta":{"profile":["http://hl7.org/fhir/us/qicore/StructureDefinition/qicore-encounter"]},"status":"finished","class":{"system":"http://terminology.hl7.org/CodeSystem/v3-ActCode","code":"EMER","display":"emergency","userSelected":true},"type":[{"coding":[{"system":"http://snomed.info/sct","version":"2020-09","code":"4525004","display":"Emergency department patient visit (procedure)","userSelected":true}]}],"subject":{"reference":"Patient/ebdb2548-e2a1-4cee-a7df-c824f80b4eab"},"period":{"start":"2026-10-09T08:05:00.000+00:00","end":"2026-10-10T07:15:00.000+00:00"},"reasonCode":[{"coding":[{"system":"http://hl7.org/fhir/sid/icd-10-cm","version":"2021","code":"I21.02","display":"ST elevation (STEMI) myocardial infarction involving left anterior descending coronary artery","userSelected":true}]}]},"request":{"method":"PUT","url":"Encounter/9b78382a-d055-4f68-b1f7-570f9a8c387b"}},{"fullUrl":"https://madie.cms.gov/MedicationRequest/635a72a9-e895-42b2-a4b0-06f956b5c250","resource":{"resourceType":"MedicationRequest","id":"635a72a9-e895-42b2-a4b0-06f956b5c250","meta":{"profile":["http://hl7.org/fhir/us/qicore/StructureDefinition/qicore-medicationrequest"]},"status":"active","intent":"order","category":[{"coding":[{"system":"http://terminology.hl7.org/CodeSystem/medicationrequest-category","code":"inpatient","display":"Inpatient","userSelected":true}]}],"medicationCodeableConcept":{"coding":[{"system":"http://www.nlm.nih.gov/research/umls/rxnorm","version":"2021-01","code":"1114202","display":"rivaroxaban 10 MG Oral Tablet [Xarelto]","userSelected":true}]},"subject":{"reference":"Patient/ebdb2548-e2a1-4cee-a7df-c824f80b4eab"},"authoredOn":"2026-06-02T08:00:00.000+00:00","requester":{"reference":"Practitioner/ee1a225a-b261-467f-a01f-2b72c79d9d9a"}},"request":{"method":"PUT","url":"MedicationRequest/635a72a9-e895-42b2-a4b0-06f956b5c250"}},{"fullUrl":"https://madie.cms.gov/Practitioner/ee1a225a-b261-467f-a01f-2b72c79d9d9a","resource":{"resourceType":"Practitioner","id":"ee1a225a-b261-467f-a01f-2b72c79d9d9a","meta":{"profile":["http://hl7.org/fhir/us/qicore/StructureDefinition/qicore-practitioner"]},"identifier":[{"system":"http://hl7.org/fhir/sid/us-npi","value":"123456"}],"name":[{"family":"Evil","prefix":["Dr"]}]},"request":{"method":"PUT","url":"Practitioner/ee1a225a-b261-467f-a01f-2b72c79d9d9a"}},{"fullUrl":"https://madie.cms.gov/MeasureReport/dd7db99d-ac63-4ace-a1bc-92e401a8a6c7","resource":{"resourceType":"MeasureReport","id":"dd7db99d-ac63-4ace-a1bc-92e401a8a6c7","meta":{"profile":["http://hl7.org/fhir/us/cqfmeasures/StructureDefinition/test-case-cqfm"]},"contained":[{"resourceType":"Parameters","id":"7b23e1cf-20b1-445d-9638-92c484f15d67-parameters","parameter":[{"name":"subject","valueString":"ebdb2548-e2a1-4cee-a7df-c824f80b4eab"}]}],"extension":[{"url":"http://hl7.org/fhir/us/cqfmeasures/StructureDefinition/cqfm-inputParameters","valueReference":{"reference":"#7b23e1cf-20b1-445d-9638-92c484f15d67-parameters"}},{"url":"http://hl7.org/fhir/us/cqfmeasures/StructureDefinition/cqfm-testCaseDescription","valueMarkdown":"Patient has anticoagulant medication starts way before ED"}],"modifierExtension":[{"url":"http://hl7.org/fhir/us/cqfmeasures/StructureDefinition/cqfm-isTestCase","valueBoolean":true}],"status":"complete","type":"individual","measure":"https://madie.cms.gov/Measure/CMS996FHIRAptTxforSTEMI","period":{"start":"2026-01-01","end":"2026-12-31"},"group":[{"population":[{"code":{"coding":[{"system":"http://terminology.hl7.org/CodeSystem/measure-population","code":"initial-population","display":"Initial Population"}]},"count":1},{"code":{"coding":[{"system":"http://terminology.hl7.org/CodeSystem/measure-population","code":"denominator","display":"Denominator"}]},"count":1},{"code":{"coding":[{"system":"http://terminology.hl7.org/CodeSystem/measure-population","code":"denominator-exclusion","display":"Denominator Exclusion"}]},"count":0},{"code":{"coding":[{"system":"http://terminology.hl7.org/CodeSystem/measure-population","code":"numerator","display":"Numerator"}]},"count":0},{"code":{"coding":[{"system":"http://terminology.hl7.org/CodeSystem/measure-population","code":"denominator-exception","display":"Denominator Exception"}]},"count":0}]}]},"request":{"method":"PUT","url":"MeasureReport/dd7db99d-ac63-4ace-a1bc-92e401a8a6c7"}}]}