{"resourceType":"Bundle","id":"tests-021fc428-e6c1-4c32-a27e-667cd272aa6d-bundle","type":"transaction","entry":[{"fullUrl":"https://madie.cms.gov/Patient/021fc428-e6c1-4c32-a27e-667cd272aa6d","resource":{"resourceType":"Patient","id":"021fc428-e6c1-4c32-a27e-667cd272aa6d","meta":{"profile":["http://hl7.org/fhir/us/qicore/StructureDefinition/qicore-patient"]},"extension":[{"url":"http://hl7.org/fhir/us/core/StructureDefinition/us-core-race","extension":[{"url":"ombCategory","valueCoding":{"system":"urn:oid:2.16.840.1.113883.6.238","code":"2028-9","display":"Asian","userSelected":true}},{"url":"text","valueString":"Asian"}]},{"url":"http://hl7.org/fhir/us/core/StructureDefinition/us-core-ethnicity","extension":[{"url":"ombCategory","valueCoding":{"system":"urn:oid:2.16.840.1.113883.6.238","code":"2186-5","display":"Non Hispanic or Latino","userSelected":true}},{"url":"text","valueString":"Non Hispanic or Latino"}]}],"identifier":[{"type":{"coding":[{"system":"http://terminology.hl7.org/CodeSystem/v2-0203","code":"MR"}]},"system":"https://bonnie-fhir.healthit.gov/","value":"9ede1ee9-dff8-4c8b-8117-d784ebd99c01"}],"name":[{"family":"DENEXCL11PASS","given":["HospiceFacilityDischargeDispositionBeforeED"]}],"gender":"female","birthDate":"1950-02-08"},"request":{"method":"PUT","url":"Patient/021fc428-e6c1-4c32-a27e-667cd272aa6d"}},{"fullUrl":"https://madie.cms.gov/Encounter/6a044f54-4c19-4973-9b85-35faeaa46b06","resource":{"resourceType":"Encounter","id":"6a044f54-4c19-4973-9b85-35faeaa46b06","meta":{"profile":["http://hl7.org/fhir/us/qicore/StructureDefinition/qicore-encounter"]},"status":"finished","class":{"system":"http://terminology.hl7.org/CodeSystem/v3-ActCode","code":"EMER","display":"emergency","userSelected":true},"type":[{"coding":[{"system":"http://snomed.info/sct","version":"2020-09","code":"4525004","display":"Emergency department patient visit","userSelected":true}]}],"subject":{"reference":"Patient/021fc428-e6c1-4c32-a27e-667cd272aa6d"},"period":{"start":"2026-10-09T05:00:00.000+00:00","end":"2026-10-13T17:00:00.000+00:00"},"diagnosis":[{"condition":{"reference":"Condition/a02c0ae7-2d65-47eb-a6bb-b73fa5a13c71"}}]},"request":{"method":"PUT","url":"Encounter/6a044f54-4c19-4973-9b85-35faeaa46b06"}},{"fullUrl":"https://madie.cms.gov/Encounter/e6c34053-58a5-41b2-9b4b-10a60a3501f0","resource":{"resourceType":"Encounter","id":"e6c34053-58a5-41b2-9b4b-10a60a3501f0","meta":{"profile":["http://hl7.org/fhir/us/qicore/StructureDefinition/qicore-encounter"]},"status":"finished","class":{"system":"http://terminology.hl7.org/CodeSystem/v3-ActCode","code":"EMER","display":"emergency","userSelected":true},"type":[{"coding":[{"system":"http://snomed.info/sct","code":"32485007","display":"Hospital admission (procedure)","userSelected":true}]}],"subject":{"reference":"Patient/021fc428-e6c1-4c32-a27e-667cd272aa6d"},"period":{"start":"2026-08-12T05:00:00.000+00:00","end":"2026-08-19T12:00:00.000+00:00"},"hospitalization":{"dischargeDisposition":{"coding":[{"system":"http://snomed.info/sct","code":"428371000124100","display":"Discharge to healthcare facility for hospice care (procedure)","userSelected":true}]}}},"request":{"method":"PUT","url":"Encounter/e6c34053-58a5-41b2-9b4b-10a60a3501f0"}},{"fullUrl":"https://madie.cms.gov/Condition/a02c0ae7-2d65-47eb-a6bb-b73fa5a13c71","resource":{"resourceType":"Condition","id":"a02c0ae7-2d65-47eb-a6bb-b73fa5a13c71","meta":{"profile":["http://hl7.org/fhir/us/qicore/StructureDefinition/qicore-condition"]},"clinicalStatus":{"coding":[{"system":"http://terminology.hl7.org/CodeSystem/condition-clinical","code":"active","display":"Active","userSelected":true}]},"category":[{"coding":[{"system":"http://terminology.hl7.org/CodeSystem/condition-category","code":"encounter-diagnosis","display":"Encounter Diagnosis","userSelected":true}]}],"code":{"coding":[{"system":"http://hl7.org/fhir/sid/icd-10-cm","code":"I21.21","display":"ST elevation (STEMI) myocardial infarction involving left circumflex coronary artery","userSelected":true}]},"subject":{"reference":"Patient/021fc428-e6c1-4c32-a27e-667cd272aa6d"},"encounter":{"reference":"Encounter/6a044f54-4c19-4973-9b85-35faeaa46b06"},"onsetPeriod":{"start":"2026-10-09T05:00:00.000+00:00","end":"2026-10-09T17:00:00.000+00:00"}},"request":{"method":"PUT","url":"Condition/a02c0ae7-2d65-47eb-a6bb-b73fa5a13c71"}},{"fullUrl":"https://madie.cms.gov/MeasureReport/547fe49a-d7cd-4042-b088-a7eec5ab9926","resource":{"resourceType":"MeasureReport","id":"547fe49a-d7cd-4042-b088-a7eec5ab9926","meta":{"profile":["http://hl7.org/fhir/us/cqfmeasures/StructureDefinition/test-case-cqfm"]},"contained":[{"resourceType":"Parameters","id":"fb90c288-9bc7-4854-97dd-a5b4bd712e7b-parameters","parameter":[{"name":"subject","valueString":"021fc428-e6c1-4c32-a27e-667cd272aa6d"}]}],"extension":[{"url":"http://hl7.org/fhir/us/cqfmeasures/StructureDefinition/cqfm-inputParameters","valueReference":{"reference":"#fb90c288-9bc7-4854-97dd-a5b4bd712e7b-parameters"}},{"url":"http://hl7.org/fhir/us/cqfmeasures/StructureDefinition/cqfm-testCaseDescription","valueMarkdown":"Patients has hospice discharge disposition (HCF) before ED"}],"modifierExtension":[{"url":"http://hl7.org/fhir/us/cqfmeasures/StructureDefinition/cqfm-isTestCase","valueBoolean":true}],"status":"complete","type":"individual","measure":"https://madie.cms.gov/Measure/CMS996FHIRAptTxforSTEMI","period":{"start":"2026-01-01","end":"2026-12-31"},"group":[{"population":[{"code":{"coding":[{"system":"http://terminology.hl7.org/CodeSystem/measure-population","code":"initial-population","display":"Initial Population"}]},"count":1},{"code":{"coding":[{"system":"http://terminology.hl7.org/CodeSystem/measure-population","code":"denominator","display":"Denominator"}]},"count":1},{"code":{"coding":[{"system":"http://terminology.hl7.org/CodeSystem/measure-population","code":"denominator-exclusion","display":"Denominator Exclusion"}]},"count":1},{"code":{"coding":[{"system":"http://terminology.hl7.org/CodeSystem/measure-population","code":"numerator","display":"Numerator"}]},"count":0},{"code":{"coding":[{"system":"http://terminology.hl7.org/CodeSystem/measure-population","code":"denominator-exception","display":"Denominator Exception"}]},"count":0}]}]},"request":{"method":"PUT","url":"MeasureReport/547fe49a-d7cd-4042-b088-a7eec5ab9926"}}]}