{
  "resourceType": "Bundle",
  "id": "633c9d040968f8012250fca0",
  "type": "transaction",
  "entry": [ {
    "fullUrl": "https://madie.cms.gov/Patient/541c6790-5a21-41ca-8e4e-49da54a28b9b",
    "resource": {
      "resourceType": "Patient",
      "id": "541c6790-5a21-41ca-8e4e-49da54a28b9b",
      "meta": {
        "profile": [ "http://hl7.org/fhir/us/qicore/StructureDefinition/qicore-patient" ]
      },
      "text": {
        "status": "generated",
        "div": "<div xmlns=\"http://www.w3.org/1999/xhtml\"><div class=\"hapiHeaderText\">CMOdurEnc_NoEDObs&lt;1hrBFEnc <b>DENEXPASS </b></div><table class=\"hapiPropertyTable\"><tbody><tr><td>Identifier</td><td>02b0ef2e973beaec0a8b1e55c0dadc67beed7a4482dce2ae4bf0963095b983fa</td></tr><tr><td>Date of birth</td><td><span>18 September 1985</span></td></tr></tbody></table></div>"
      },
      "extension": [ {
        "url": "http://hl7.org/fhir/us/core/StructureDefinition/us-core-race",
        "extension": [ {
          "url": "ombCategory",
          "valueCoding": {
            "system": "urn:oid:2.16.840.1.113883.6.238",
            "code": "1002-5",
            "display": "American Indian or Alaska Native",
            "userSelected": true
          }
        }, {
          "url": "text",
          "valueString": "American Indian or Alaska Native"
        } ]
      }, {
        "url": "http://hl7.org/fhir/us/core/StructureDefinition/us-core-ethnicity",
        "extension": [ {
          "url": "ombCategory",
          "valueCoding": {
            "system": "urn:oid:2.16.840.1.113883.6.238",
            "code": "2135-2",
            "display": "Hispanic or Latino",
            "userSelected": true
          }
        }, {
          "url": "text",
          "valueString": "Hispanic or Latino"
        } ]
      } ],
      "identifier": [ {
        "type": {
          "coding": [ {
            "system": "http://terminology.hl7.org/CodeSystem/v2-0203",
            "code": "MR"
          } ]
        },
        "system": "https://bonnie-fhir.healthit.gov/",
        "value": "633c9d040968f8012250fca0"
      } ],
      "active": true,
      "name": [ {
        "use": "usual",
        "family": "DENEXPass",
        "given": [ "CMOdurEnc_NoEDObs<1hrBFEnc" ]
      } ],
      "gender": "female",
      "birthDate": "1986-09-18"
    },
    "request": {
      "method": "PUT",
      "url": "Patient/541c6790-5a21-41ca-8e4e-49da54a28b9b"
    }
  }, {
    "fullUrl": "https://madie.cms.gov/Condition/d781b7c8-3df6-4dd1-a72c-3acbf0432496",
    "resource": {
      "resourceType": "Condition",
      "id": "d781b7c8-3df6-4dd1-a72c-3acbf0432496",
      "meta": {
        "profile": [ "http://hl7.org/fhir/us/qicore/StructureDefinition/qicore-condition" ]
      },
      "clinicalStatus": {
        "coding": [ {
          "system": "http://terminology.hl7.org/CodeSystem/condition-clinical",
          "code": "inactive"
        } ]
      },
      "verificationStatus": {
        "coding": [ {
          "system": "http://terminology.hl7.org/CodeSystem/condition-ver-status",
          "code": "confirmed"
        } ]
      },
      "category": [ {
        "coding": [ {
          "system": "http://terminology.hl7.org/CodeSystem/condition-category",
          "code": "encounter-diagnosis",
          "display": "Encounter Diagnosis"
        } ]
      } ],
      "code": {
        "coding": [ {
          "system": "http://hl7.org/fhir/sid/icd-10-cm",
          "code": "I48.20"
        }, {
          "system": "http://hl7.org/fhir/sid/icd-10-cm",
          "code": "I48.0"
        }, {
          "system": "http://snomed.info/sct",
          "code": "5370000"
        } ]
      },
      "subject": {
        "reference": "Patient/541c6790-5a21-41ca-8e4e-49da54a28b9b"
      },
      "onsetDateTime": "2026-02-11T08:00:00.000Z",
      "abatementDateTime": "2026-02-11T08:15:00.000Z"
    },
    "request": {
      "method": "PUT",
      "url": "Condition/d781b7c8-3df6-4dd1-a72c-3acbf0432496"
    }
  }, {
    "fullUrl": "https://madie.cms.gov/Condition/2d964e92-0591-4818-aa40-98562e907171",
    "resource": {
      "resourceType": "Condition",
      "id": "2d964e92-0591-4818-aa40-98562e907171",
      "meta": {
        "profile": [ "http://hl7.org/fhir/us/qicore/StructureDefinition/qicore-condition" ]
      },
      "clinicalStatus": {
        "coding": [ {
          "system": "http://terminology.hl7.org/CodeSystem/condition-clinical",
          "code": "inactive"
        } ]
      },
      "verificationStatus": {
        "coding": [ {
          "system": "http://terminology.hl7.org/CodeSystem/condition-ver-status",
          "code": "confirmed"
        } ]
      },
      "category": [ {
        "coding": [ {
          "system": "http://terminology.hl7.org/CodeSystem/condition-category",
          "code": "encounter-diagnosis",
          "display": "Encounter Diagnosis"
        } ]
      } ],
      "code": {
        "coding": [ {
          "system": "http://hl7.org/fhir/sid/icd-10-cm",
          "code": "I48.20"
        }, {
          "system": "http://hl7.org/fhir/sid/icd-10-cm",
          "code": "I48.0"
        }, {
          "system": "http://snomed.info/sct",
          "code": "5370000"
        } ]
      },
      "subject": {
        "reference": "Patient/541c6790-5a21-41ca-8e4e-49da54a28b9b"
      },
      "onsetDateTime": "2026-10-01T09:00:00.000Z",
      "abatementDateTime": "2026-10-12T08:15:00.000Z"
    },
    "request": {
      "method": "PUT",
      "url": "Condition/2d964e92-0591-4818-aa40-98562e907171"
    }
  }, {
    "fullUrl": "https://madie.cms.gov/Encounter/f4bfcb0c-ddda-4f3a-938b-3911a7e46b58",
    "resource": {
      "resourceType": "Encounter",
      "id": "f4bfcb0c-ddda-4f3a-938b-3911a7e46b58",
      "meta": {
        "profile": [ "http://hl7.org/fhir/us/qicore/StructureDefinition/qicore-encounter" ]
      },
      "status": "finished",
      "class": {
        "system": "http://terminology.hl7.org/CodeSystem/v3-ActCode",
        "code": "OBSENC",
        "display": "observation encounter"
      },
      "type": [ {
        "coding": [ {
          "system": "http://snomed.info/sct",
          "code": "448851000124103"
        } ]
      } ],
      "subject": {
        "reference": "Patient/541c6790-5a21-41ca-8e4e-49da54a28b9b"
      },
      "period": {
        "start": "2026-10-01T06:00:00.000Z",
        "end": "2026-10-01T09:59:00.000Z"
      },
      "length": {
        "value": 0,
        "unit": "days"
      }
    },
    "request": {
      "method": "PUT",
      "url": "Encounter/f4bfcb0c-ddda-4f3a-938b-3911a7e46b58"
    }
  }, {
    "fullUrl": "https://madie.cms.gov/Encounter/14004218-4af4-4987-8ead-e7f5d10a0289",
    "resource": {
      "resourceType": "Encounter",
      "id": "14004218-4af4-4987-8ead-e7f5d10a0289",
      "meta": {
        "profile": [ "http://hl7.org/fhir/us/qicore/StructureDefinition/qicore-encounter" ]
      },
      "status": "finished",
      "class": {
        "system": "http://terminology.hl7.org/CodeSystem/v3-ActCode",
        "code": "IMP",
        "display": "inpatient encounter"
      },
      "type": [ {
        "coding": [ {
          "system": "http://snomed.info/sct",
          "code": "32485007"
        } ]
      } ],
      "subject": {
        "reference": "Patient/541c6790-5a21-41ca-8e4e-49da54a28b9b"
      },
      "period": {
        "start": "2026-10-01T10:00:00.000Z",
        "end": "2026-10-12T08:15:00.000Z"
      },
      "length": {
        "value": 11,
        "unit": "days"
      },
      "diagnosis": [ {
        "condition": {
          "reference": "Condition/75cee671-9c7f-4f2b-ab11-cb7faad6ff23"
        },
        "use": {
          "coding": [ {
            "system": "http://terminology.hl7.org/CodeSystem/diagnosis-role",
            "code": "billing",
            "display": "Billing"
          } ]
        },
        "rank": 1
      } ]
    },
    "request": {
      "method": "PUT",
      "url": "Encounter/14004218-4af4-4987-8ead-e7f5d10a0289"
    }
  }, {
    "fullUrl": "https://madie.cms.gov/ServiceRequest/28354a79-bb86-4eeb-819a-8902c0afbabf",
    "resource": {
      "resourceType": "ServiceRequest",
      "id": "28354a79-bb86-4eeb-819a-8902c0afbabf",
      "meta": {
        "profile": [ "http://hl7.org/fhir/us/qicore/StructureDefinition/qicore-servicerequest" ]
      },
      "status": "active",
      "intent": "order",
      "code": {
        "coding": [ {
          "system": "http://snomed.info/sct",
          "code": "133918004"
        } ]
      },
      "subject": {
        "reference": "Patient/541c6790-5a21-41ca-8e4e-49da54a28b9b"
      },
      "authoredOn": "2026-10-03T00:00:00.000+00:00"
    },
    "request": {
      "method": "PUT",
      "url": "ServiceRequest/28354a79-bb86-4eeb-819a-8902c0afbabf"
    }
  }, {
    "fullUrl": "https://madie.cms.gov/Coverage/617ea211-70d7-4bc9-92aa-122c4cb92c0e",
    "resource": {
      "resourceType": "Coverage",
      "id": "617ea211-70d7-4bc9-92aa-122c4cb92c0e",
      "status": "active",
      "beneficiary": {
        "reference": "Patient/541c6790-5a21-41ca-8e4e-49da54a28b9b"
      },
      "period": {
        "start": "1986-09-18T08:00:00.000Z"
      },
      "payor": [ {
        "reference": "Organization/dd49dfe1-65b3-40fa-b919-729f365bdddf"
      } ]
    },
    "request": {
      "method": "PUT",
      "url": "Coverage/617ea211-70d7-4bc9-92aa-122c4cb92c0e"
    }
  }, {
    "fullUrl": "https://madie.cms.gov/Condition/75cee671-9c7f-4f2b-ab11-cb7faad6ff23",
    "resource": {
      "resourceType": "Condition",
      "id": "75cee671-9c7f-4f2b-ab11-cb7faad6ff23",
      "meta": {
        "profile": [ "http://hl7.org/fhir/us/qicore/StructureDefinition/qicore-condition" ]
      },
      "clinicalStatus": {
        "coding": [ {
          "system": "http://terminology.hl7.org/CodeSystem/condition-clinical",
          "code": "active"
        } ]
      },
      "verificationStatus": {
        "coding": [ {
          "system": "http://terminology.hl7.org/CodeSystem/condition-ver-status",
          "code": "confirmed"
        } ]
      },
      "category": [ {
        "coding": [ {
          "system": "http://terminology.hl7.org/CodeSystem/condition-category",
          "code": "encounter-diagnosis",
          "display": "Encounter Diagnosis"
        } ]
      } ],
      "code": {
        "coding": [ {
          "system": "http://snomed.info/sct",
          "version": "2021-09",
          "code": "111297002",
          "display": "Nonparalytic stroke (disorder)",
          "userSelected": true
        } ]
      },
      "subject": {
        "reference": "Patient/541c6790-5a21-41ca-8e4e-49da54a28b9b"
      },
      "recordedDate": "2026-10-13T08:00:00.000+00:00"
    },
    "request": {
      "method": "PUT",
      "url": "Condition/75cee671-9c7f-4f2b-ab11-cb7faad6ff23"
    }
  }, {
    "fullUrl": "https://madie.cms.gov/Organization/dd49dfe1-65b3-40fa-b919-729f365bdddf",
    "resource": {
      "resourceType": "Organization",
      "id": "dd49dfe1-65b3-40fa-b919-729f365bdddf",
      "meta": {
        "profile": [ "http://hl7.org/fhir/us/qicore/StructureDefinition/qicore-organization" ]
      },
      "identifier": [ {
        "use": "temp",
        "system": "urn:oid:2.16.840.1.113883.4.4",
        "value": "21-3259825"
      } ],
      "active": true,
      "type": [ {
        "coding": [ {
          "system": "http://terminology.hl7.org/CodeSystem/organization-type",
          "code": "pay",
          "display": "Payer"
        } ]
      } ],
      "name": "Blue Cross Blue Shield of Texas",
      "telecom": [ {
        "system": "phone",
        "value": "(+1) 972-766-6900"
      } ],
      "address": [ {
        "use": "billing",
        "type": "postal",
        "line": [ "P.O. Box 660044" ],
        "city": "Dallas",
        "state": "TX",
        "postalCode": "75266-0044",
        "country": "USA"
      } ]
    },
    "request": {
      "method": "PUT",
      "url": "Organization/dd49dfe1-65b3-40fa-b919-729f365bdddf"
    }
  }, {
    "fullUrl": "https://madie.cms.gov/Practitioner/9bd5ee8b-cfd3-41a2-a933-969660bf613c",
    "resource": {
      "resourceType": "Practitioner",
      "id": "9bd5ee8b-cfd3-41a2-a933-969660bf613c",
      "identifier": [ {
        "system": "http://hl7.org/fhir/sid/us-npi",
        "value": "123456"
      } ],
      "name": [ {
        "family": "Evil",
        "prefix": [ "Dr" ]
      } ]
    },
    "request": {
      "method": "PUT",
      "url": "Practitioner/9bd5ee8b-cfd3-41a2-a933-969660bf613c"
    }
  }, {
    "fullUrl": "https://madie.cms.gov/MeasureReport/a92e4c46-1152-47c0-9ce0-3ce3e6440baf",
    "resource": {
      "resourceType": "MeasureReport",
      "id": "a92e4c46-1152-47c0-9ce0-3ce3e6440baf",
      "meta": {
        "profile": [ "http://hl7.org/fhir/us/cqfmeasures/StructureDefinition/test-case-cqfm" ]
      },
      "contained": [ {
        "resourceType": "Parameters",
        "id": "adfbed5d-0284-4085-9b08-f1cdcf2ec731-parameters",
        "parameter": [ {
          "name": "subject",
          "valueString": "541c6790-5a21-41ca-8e4e-49da54a28b9b"
        } ]
      } ],
      "extension": [ {
        "url": "http://hl7.org/fhir/us/cqfmeasures/StructureDefinition/cqfm-inputParameters",
        "valueReference": {
          "reference": "#adfbed5d-0284-4085-9b08-f1cdcf2ec731-parameters"
        }
      }, {
        "url": "http://hl7.org/fhir/us/cqfmeasures/StructureDefinition/cqfm-testCaseDescription",
        "valueMarkdown": "\"Patient receives CMO order during Observation, ED visit ends 1 min. before Obs, Obs ends 1 min before inpatient start. Testing HospitalizationWithObservation function.\n\n\"\n"
      } ],
      "modifierExtension": [ {
        "url": "http://hl7.org/fhir/us/cqfmeasures/StructureDefinition/cqfm-isTestCase",
        "valueBoolean": true
      } ],
      "status": "complete",
      "type": "individual",
      "measure": "https://madie.cms.gov/Measure/CMS71FHIRSTKAnticoagAFFlutter",
      "period": {
        "start": "2026-01-01",
        "end": "2026-12-31"
      },
      "group": [ {
        "population": [ {
          "code": {
            "coding": [ {
              "system": "http://terminology.hl7.org/CodeSystem/measure-population",
              "code": "initial-population",
              "display": "Initial Population"
            } ]
          },
          "count": 1
        }, {
          "code": {
            "coding": [ {
              "system": "http://terminology.hl7.org/CodeSystem/measure-population",
              "code": "denominator",
              "display": "Denominator"
            } ]
          },
          "count": 1
        }, {
          "code": {
            "coding": [ {
              "system": "http://terminology.hl7.org/CodeSystem/measure-population",
              "code": "denominator-exclusion",
              "display": "Denominator Exclusion"
            } ]
          },
          "count": 1
        }, {
          "code": {
            "coding": [ {
              "system": "http://terminology.hl7.org/CodeSystem/measure-population",
              "code": "numerator",
              "display": "Numerator"
            } ]
          },
          "count": 0
        }, {
          "code": {
            "coding": [ {
              "system": "http://terminology.hl7.org/CodeSystem/measure-population",
              "code": "denominator-exception",
              "display": "Denominator Exception"
            } ]
          },
          "count": 0
        } ]
      } ],
      "evaluatedResource": [ {
        "reference": "Patient/541c6790-5a21-41ca-8e4e-49da54a28b9b"
      }, {
        "reference": "Condition/d781b7c8-3df6-4dd1-a72c-3acbf0432496"
      }, {
        "reference": "Condition/2d964e92-0591-4818-aa40-98562e907171"
      }, {
        "reference": "Encounter/f4bfcb0c-ddda-4f3a-938b-3911a7e46b58"
      }, {
        "reference": "Encounter/14004218-4af4-4987-8ead-e7f5d10a0289"
      }, {
        "reference": "ServiceRequest/28354a79-bb86-4eeb-819a-8902c0afbabf"
      }, {
        "reference": "Coverage/617ea211-70d7-4bc9-92aa-122c4cb92c0e"
      }, {
        "reference": "Condition/75cee671-9c7f-4f2b-ab11-cb7faad6ff23"
      }, {
        "reference": "Organization/dd49dfe1-65b3-40fa-b919-729f365bdddf"
      }, {
        "reference": "Practitioner/9bd5ee8b-cfd3-41a2-a933-969660bf613c"
      } ]
    },
    "request": {
      "method": "PUT",
      "url": "MeasureReport/a92e4c46-1152-47c0-9ce0-3ce3e6440baf"
    }
  } ]
}