{"resourceType":"Bundle","id":"tests-faa0909e-a3b5-4fb2-885a-e8ddd20b9ab0-bundle","type":"transaction","entry":[{"fullUrl":"https://madie.cms.gov/Patient/faa0909e-a3b5-4fb2-885a-e8ddd20b9ab0","resource":{"resourceType":"Patient","id":"faa0909e-a3b5-4fb2-885a-e8ddd20b9ab0","meta":{"profile":["http://hl7.org/fhir/us/qicore/StructureDefinition/qicore-patient"]},"text":{"status":"generated","div":"<div xmlns=\"http://www.w3.org/1999/xhtml\"><div class=\"hapiHeaderText\">AssessPreTermMissingResult <b>DENFAIL </b></div><table class=\"hapiPropertyTable\"><tbody><tr><td>Identifier</td><td>68ae6e24f0fface97c058e998841dc5fd1e621f11f5d5bc2aeef1a3a248ebc14</td></tr><tr><td>Date of birth</td><td><span>14 February 1985</span></td></tr></tbody></table></div>"},"extension":[{"url":"http://hl7.org/fhir/us/core/StructureDefinition/us-core-race","extension":[{"url":"ombCategory","valueCoding":{"system":"urn:oid:2.16.840.1.113883.6.238","code":"1002-5","display":"American Indian or Alaska Native","userSelected":true}},{"url":"text","valueString":"American Indian or Alaska Native"}]},{"url":"http://hl7.org/fhir/us/core/StructureDefinition/us-core-ethnicity","extension":[{"url":"ombCategory","valueCoding":{"system":"urn:oid:2.16.840.1.113883.6.238","code":"2135-2","display":"Hispanic or Latino","userSelected":true}},{"url":"text","valueString":"Hispanic or Latino"}]}],"identifier":[{"type":{"coding":[{"system":"http://terminology.hl7.org/CodeSystem/v2-0203","code":"MR"}]},"system":"https://bonnie-fhir.healthit.gov/","value":"63487c300968f801225401bd"}],"active":true,"name":[{"use":"usual","family":"DENFail","given":["AssessPreTermMissingResult"]}],"gender":"female","birthDate":"1998-02-14"},"request":{"method":"PUT","url":"Patient/faa0909e-a3b5-4fb2-885a-e8ddd20b9ab0"}},{"fullUrl":"https://madie.cms.gov/Observation/5958d00a-006b-4340-8828-a13cfc520428","resource":{"resourceType":"Observation","id":"5958d00a-006b-4340-8828-a13cfc520428","meta":{"profile":["http://hl7.org/fhir/us/qicore/StructureDefinition/qicore-observation"]},"status":"final","category":[{"coding":[{"system":"http://terminology.hl7.org/CodeSystem/observation-category","code":"exam","display":"exam","userSelected":true}]}],"code":{"coding":[{"system":"http://loinc.org","code":"11639-2"}]},"subject":{"reference":"Patient/faa0909e-a3b5-4fb2-885a-e8ddd20b9ab0"},"effectiveDateTime":"2025-09-19T09:00:00.000+00:00","valueInteger":0},"request":{"method":"PUT","url":"Observation/5958d00a-006b-4340-8828-a13cfc520428"}},{"fullUrl":"https://madie.cms.gov/Observation/8fb1fafd-c386-4f78-bb21-e578c0df8c30","resource":{"resourceType":"Observation","id":"8fb1fafd-c386-4f78-bb21-e578c0df8c30","meta":{"profile":["http://hl7.org/fhir/us/qicore/StructureDefinition/qicore-observation"]},"status":"final","category":[{"coding":[{"system":"http://terminology.hl7.org/CodeSystem/observation-category","code":"exam","display":"exam","userSelected":true}]}],"code":{"coding":[{"system":"http://loinc.org","code":"11884-4"}]},"subject":{"reference":"Patient/faa0909e-a3b5-4fb2-885a-e8ddd20b9ab0"},"effectiveDateTime":"2026-06-08T20:00:00.000+00:00","valueQuantity":{"value":37,"system":"http://unitsofmeasure.org","code":"wk"}},"request":{"method":"PUT","url":"Observation/8fb1fafd-c386-4f78-bb21-e578c0df8c30"}},{"fullUrl":"https://madie.cms.gov/Observation/a8a60433-ccb3-4a2c-936b-504bc11946c7","resource":{"resourceType":"Observation","id":"a8a60433-ccb3-4a2c-936b-504bc11946c7","meta":{"profile":["http://hl7.org/fhir/us/qicore/StructureDefinition/qicore-observation"]},"status":"final","category":[{"coding":[{"system":"http://terminology.hl7.org/CodeSystem/observation-category","code":"exam","display":"exam","userSelected":true}]}],"code":{"coding":[{"system":"http://loinc.org","code":"93857-1"}]},"subject":{"reference":"Patient/faa0909e-a3b5-4fb2-885a-e8ddd20b9ab0"},"effectiveDateTime":"2026-06-08T20:00:00.000+00:00","valueDateTime":"2026-06-08T20:00:00+00:00"},"request":{"method":"PUT","url":"Observation/a8a60433-ccb3-4a2c-936b-504bc11946c7"}},{"fullUrl":"https://madie.cms.gov/Observation/8cc3a950-185d-4bc4-b2fd-5f39016c8cae","resource":{"resourceType":"Observation","id":"8cc3a950-185d-4bc4-b2fd-5f39016c8cae","meta":{"profile":["http://hl7.org/fhir/us/qicore/StructureDefinition/qicore-observation"]},"status":"final","category":[{"coding":[{"system":"http://terminology.hl7.org/CodeSystem/observation-category","code":"exam","display":"exam","userSelected":true}]}],"code":{"coding":[{"system":"http://loinc.org","code":"11637-6"}]},"subject":{"reference":"Patient/faa0909e-a3b5-4fb2-885a-e8ddd20b9ab0"}},"request":{"method":"PUT","url":"Observation/8cc3a950-185d-4bc4-b2fd-5f39016c8cae"}},{"fullUrl":"https://madie.cms.gov/Encounter/8a659cd6-44fc-4bb7-a1f2-1e3fa422c0c9","resource":{"resourceType":"Encounter","id":"8a659cd6-44fc-4bb7-a1f2-1e3fa422c0c9","meta":{"profile":["http://hl7.org/fhir/us/qicore/StructureDefinition/qicore-encounter"]},"status":"finished","class":{"system":"http://terminology.hl7.org/CodeSystem/v3-ActCode","code":"IMP","display":"inpatient encounter"},"type":[{"coding":[{"system":"http://snomed.info/sct","code":"8715000"}]}],"subject":{"reference":"Patient/faa0909e-a3b5-4fb2-885a-e8ddd20b9ab0"},"period":{"start":"2026-06-08T08:00:00.000Z","end":"2026-06-10T08:15:00.000Z"},"length":{"value":2,"unit":"days"},"diagnosis":[{"condition":{"reference":"Condition/delivery-of-singleton-f83c"},"use":{"coding":[{"system":"http://snomed.info/sct","code":"169826009","display":"Delivery of Singleton"}]}},{"condition":{"reference":"Condition/733ff88c-d278-4355-9342-3885d31b1a68"}}]},"request":{"method":"PUT","url":"Encounter/8a659cd6-44fc-4bb7-a1f2-1e3fa422c0c9"}},{"fullUrl":"https://madie.cms.gov/Procedure/fee07fd2-0a4c-4b5a-a1b4-35123bae9faa","resource":{"resourceType":"Procedure","id":"fee07fd2-0a4c-4b5a-a1b4-35123bae9faa","meta":{"profile":["http://hl7.org/fhir/us/qicore/StructureDefinition/qicore-procedure"]},"extension":[{"url":"http://hl7.org/fhir/us/qicore/StructureDefinition/qicore-recorded","valueDateTime":"2014-04-05T09:35:00-04:00"}],"status":"completed","code":{"coding":[{"system":"http://www.cms.gov/Medicare/Coding/ICD10","code":"10D00Z0"},{"system":"http://snomed.info/sct","code":"4504004"},{"system":"http://www.icd10data.com/icd10pcs","code":"10D00Z0","userSelected":true}]},"subject":{"reference":"Patient/faa0909e-a3b5-4fb2-885a-e8ddd20b9ab0"},"performedPeriod":{"start":"2026-06-08T20:00:00.000Z","end":"2026-06-08T20:15:00.000Z"}},"request":{"method":"PUT","url":"Procedure/fee07fd2-0a4c-4b5a-a1b4-35123bae9faa"}},{"fullUrl":"https://madie.cms.gov/Condition/733ff88c-d278-4355-9342-3885d31b1a68","resource":{"resourceType":"Condition","id":"733ff88c-d278-4355-9342-3885d31b1a68","meta":{"profile":["http://hl7.org/fhir/us/qicore/StructureDefinition/qicore-condition"]},"category":[{"coding":[{"system":"http://terminology.hl7.org/CodeSystem/condition-category","code":"encounter-diagnosis","display":"Encounter Diagnosis"}]}],"code":{"coding":[{"system":"http://snomed.info/sct","version":"2022-09","code":"169826009","display":"Single live birth (finding)","userSelected":true}]},"subject":{"reference":"Patient/faa0909e-a3b5-4fb2-885a-e8ddd20b9ab0"},"recordedDate":"2026-10-21T08:00:00.000+00:00"},"request":{"method":"PUT","url":"Condition/733ff88c-d278-4355-9342-3885d31b1a68"}},{"fullUrl":"https://madie.cms.gov/Coverage/e6ea88a3-6a12-4ef5-be90-7be41061faea","resource":{"resourceType":"Coverage","id":"e6ea88a3-6a12-4ef5-be90-7be41061faea","meta":{"profile":["http://hl7.org/fhir/us/qicore/StructureDefinition/qicore-coverage"]},"status":"active","beneficiary":{"reference":"Patient/faa0909e-a3b5-4fb2-885a-e8ddd20b9ab0"},"payor":[{"reference":"Organization/4da248b0-6e59-49b7-b80e-338aa21d299f"}]},"request":{"method":"PUT","url":"Coverage/e6ea88a3-6a12-4ef5-be90-7be41061faea"}},{"fullUrl":"https://madie.cms.gov/Organization/e70cef2d-c40f-4981-9918-74968ff7b93d","resource":{"resourceType":"Organization","id":"4da248b0-6e59-49b7-b80e-338aa21d299f","meta":{"profile":["http://hl7.org/fhir/us/qicore/StructureDefinition/qicore-organization"]},"identifier":[{"use":"temp","system":"urn:oid:2.16.840.1.113883.4.4","value":"21-3259825"}],"active":true,"type":[{"coding":[{"system":"http://terminology.hl7.org/CodeSystem/organization-type","code":"pay","display":"Payer"}]}],"name":"Blue Cross Blue Shield of Texas","telecom":[{"system":"phone","value":"(+1) 972-766-6900"}],"address":[{"use":"billing","type":"postal","line":["P.O. Box 660044"],"city":"Dallas","state":"TX","postalCode":"75266-0044","country":"USA"}]},"request":{"method":"PUT","url":"Organization/4da248b0-6e59-49b7-b80e-338aa21d299f"}},{"fullUrl":"https://madie.cms.gov/Practitioner/dff26576-9cee-4846-943a-bebf3e2b9b4c","resource":{"resourceType":"Practitioner","id":"dff26576-9cee-4846-943a-bebf3e2b9b4c","identifier":[{"system":"http://hl7.org/fhir/sid/us-npi","value":"123456"}],"name":[{"family":"Evil","prefix":["Dr"]}]},"request":{"method":"PUT","url":"Practitioner/dff26576-9cee-4846-943a-bebf3e2b9b4c"}},{"fullUrl":"https://madie.cms.gov/MeasureReport/151dc74c-286e-4687-988c-d3aae797fda3","resource":{"resourceType":"MeasureReport","id":"151dc74c-286e-4687-988c-d3aae797fda3","meta":{"profile":["http://hl7.org/fhir/us/cqfmeasures/StructureDefinition/test-case-cqfm"]},"contained":[{"resourceType":"Parameters","id":"d50d2e11-f9fb-469d-9acc-00099560a1f7-parameters","parameter":[{"name":"subject","valueString":"faa0909e-a3b5-4fb2-885a-e8ddd20b9ab0"}]}],"extension":[{"url":"http://hl7.org/fhir/us/cqfmeasures/StructureDefinition/cqfm-inputParameters","valueReference":{"reference":"#d50d2e11-f9fb-469d-9acc-00099560a1f7-parameters"}},{"url":"http://hl7.org/fhir/us/cqfmeasures/StructureDefinition/cqfm-testCaseDescription","valueMarkdown":"\"Preterm Births missing result, relevant date/time before Asse delivery datetime\nTerm Newborn=0, authored < 42weeks prior to Asse delivery\"\n"}],"modifierExtension":[{"url":"http://hl7.org/fhir/us/cqfmeasures/StructureDefinition/cqfm-isTestCase","valueBoolean":true}],"status":"complete","type":"individual","measure":"https://madie.cms.gov/Measure/CMS334FHIRPCCesareanBirth","period":{"start":"2026-01-01","end":"2026-12-31"},"group":[{"population":[{"code":{"coding":[{"system":"http://terminology.hl7.org/CodeSystem/measure-population","code":"initial-population","display":"Initial Population"}]},"count":1},{"code":{"coding":[{"system":"http://terminology.hl7.org/CodeSystem/measure-population","code":"denominator","display":"Denominator"}]},"count":0},{"code":{"coding":[{"system":"http://terminology.hl7.org/CodeSystem/measure-population","code":"denominator-exclusion","display":"Denominator Exclusion"}]},"count":0},{"code":{"coding":[{"system":"http://terminology.hl7.org/CodeSystem/measure-population","code":"numerator","display":"Numerator"}]},"count":0}]}]},"request":{"method":"PUT","url":"MeasureReport/151dc74c-286e-4687-988c-d3aae797fda3"}}]}