{"resourceType":"Bundle","id":"tests-213cfa17-45e4-4a27-8f69-6e29a40fd803-bundle","type":"transaction","entry":[{"fullUrl":"https://madie.cms.gov/Patient/213cfa17-45e4-4a27-8f69-6e29a40fd803","resource":{"resourceType":"Patient","id":"213cfa17-45e4-4a27-8f69-6e29a40fd803","meta":{"profile":["http://hl7.org/fhir/us/qicore/StructureDefinition/qicore-patient"]},"text":{"status":"generated","div":"<div xmlns=\"http://www.w3.org/1999/xhtml\"><div class=\"hapiHeaderText\">AgeLT8 <b>IPFAIL </b></div><table class=\"hapiPropertyTable\"><tbody><tr><td>Identifier</td><td>5de8faa62ce8d02e536ae8f9871c680ddfb3801eebe589f1938c81dd0173f1aa</td></tr><tr><td>Date of birth</td><td><span>14 February 2005</span></td></tr></tbody></table></div>"},"extension":[{"url":"http://hl7.org/fhir/us/core/StructureDefinition/us-core-race","extension":[{"url":"ombCategory","valueCoding":{"system":"urn:oid:2.16.840.1.113883.6.238","code":"1002-5","display":"American Indian or Alaska Native","userSelected":true}},{"url":"text","valueString":"American Indian or Alaska Native"}]},{"url":"http://hl7.org/fhir/us/core/StructureDefinition/us-core-ethnicity","extension":[{"url":"ombCategory","valueCoding":{"system":"urn:oid:2.16.840.1.113883.6.238","code":"2135-2","display":"Hispanic or Latino","userSelected":true}},{"url":"text","valueString":"Hispanic or Latino"}]}],"identifier":[{"type":{"coding":[{"system":"http://terminology.hl7.org/CodeSystem/v2-0203","code":"MR"}]},"system":"https://bonnie-fhir.healthit.gov/","value":"63487c2d0968f80122540148"}],"active":true,"name":[{"use":"usual","family":"IPFail","given":["AgeLT8"]}],"gender":"female","birthDate":"2019-02-14"},"request":{"method":"PUT","url":"Patient/213cfa17-45e4-4a27-8f69-6e29a40fd803"}},{"fullUrl":"https://madie.cms.gov/Encounter/3f40afc9-5c6c-4904-986b-5fbdd00942c4","resource":{"resourceType":"Encounter","id":"3f40afc9-5c6c-4904-986b-5fbdd00942c4","meta":{"profile":["http://hl7.org/fhir/us/qicore/StructureDefinition/qicore-encounter"]},"status":"finished","class":{"system":"http://terminology.hl7.org/CodeSystem/v3-ActCode","code":"IMP","display":"inpatient encounter"},"type":[{"coding":[{"system":"http://snomed.info/sct","code":"8715000"}]}],"subject":{"reference":"Patient/213cfa17-45e4-4a27-8f69-6e29a40fd803"},"period":{"start":"2026-11-28T08:00:00.000Z","end":"2026-11-30T08:15:00.000Z"},"length":{"value":2.0,"unit":"days"},"diagnosis":[{"condition":{"reference":"Condition/Condition-2"},"use":{"coding":[{"system":"http://snomed.info/sct","code":"169826009","display":"Delivery of Singleton"}]}}]},"request":{"method":"PUT","url":"Encounter/3f40afc9-5c6c-4904-986b-5fbdd00942c4"}},{"fullUrl":"https://madie.cms.gov/Procedure/1bdeb5b3-7dbd-4836-9e0c-59d0c5380ab4","resource":{"resourceType":"Procedure","id":"1bdeb5b3-7dbd-4836-9e0c-59d0c5380ab4","meta":{"profile":["http://hl7.org/fhir/us/qicore/StructureDefinition/qicore-procedure"]},"extension":[{"url":"http://hl7.org/fhir/us/qicore/StructureDefinition/qicore-recorded","valueDateTime":"2014-04-05T09:35:00-04:00"}],"status":"completed","code":{"coding":[{"system":"http://www.cms.gov/Medicare/Coding/ICD10","code":"10D00Z0"},{"system":"http://www.icd10data.com/icd10pcs","code":"10D00Z0","userSelected":true}]},"subject":{"reference":"Patient/213cfa17-45e4-4a27-8f69-6e29a40fd803"},"performedPeriod":{"start":"2026-11-28T20:00:00.000Z","end":"2026-11-28T20:15:00.000Z"}},"request":{"method":"PUT","url":"Procedure/1bdeb5b3-7dbd-4836-9e0c-59d0c5380ab4"}},{"fullUrl":"https://madie.cms.gov/Coverage/56baf20f-6019-40da-8d23-b636515ac994","resource":{"resourceType":"Coverage","id":"56baf20f-6019-40da-8d23-b636515ac994","meta":{"profile":["http://hl7.org/fhir/us/qicore/StructureDefinition/qicore-coverage"]},"status":"active","beneficiary":{"reference":"Patient/213cfa17-45e4-4a27-8f69-6e29a40fd803"},"payor":[{"reference":"Organization/f7da4368-fb6d-4d73-a75b-f78024cbb18d"}]},"request":{"method":"PUT","url":"Coverage/56baf20f-6019-40da-8d23-b636515ac994"}},{"fullUrl":"https://madie.cms.gov/Organization/55c0183e-0884-4b5e-8a8f-3b4ca08effc2","resource":{"resourceType":"Organization","id":"f7da4368-fb6d-4d73-a75b-f78024cbb18d","meta":{"profile":["http://hl7.org/fhir/us/qicore/StructureDefinition/qicore-organization"]},"identifier":[{"use":"temp","system":"urn:oid:2.16.840.1.113883.4.4","value":"21-3259825"}],"active":true,"type":[{"coding":[{"system":"http://terminology.hl7.org/CodeSystem/organization-type","code":"pay","display":"Payer"}]}],"name":"Blue Cross Blue Shield of Texas","telecom":[{"system":"phone","value":"(+1) 972-766-6900"}],"address":[{"use":"billing","type":"postal","line":["P.O. Box 660044"],"city":"Dallas","state":"TX","postalCode":"75266-0044","country":"USA"}]},"request":{"method":"PUT","url":"Organization/f7da4368-fb6d-4d73-a75b-f78024cbb18d"}},{"fullUrl":"https://madie.cms.gov/Practitioner/96c6bf8a-4683-44b8-afd2-7880831e330e","resource":{"resourceType":"Practitioner","id":"96c6bf8a-4683-44b8-afd2-7880831e330e","identifier":[{"system":"http://hl7.org/fhir/sid/us-npi","value":"123456"}],"name":[{"family":"Evil","prefix":["Dr"]}]},"request":{"method":"PUT","url":"Practitioner/96c6bf8a-4683-44b8-afd2-7880831e330e"}},{"fullUrl":"https://madie.cms.gov/MeasureReport/f92cebab-7c8a-4811-8d2e-1276956e2388","resource":{"resourceType":"MeasureReport","id":"f92cebab-7c8a-4811-8d2e-1276956e2388","meta":{"profile":["http://hl7.org/fhir/us/cqfmeasures/StructureDefinition/test-case-cqfm"]},"contained":[{"resourceType":"Parameters","id":"41dfcee4-f245-4dca-8b6a-4b0567102071-parameters","parameter":[{"name":"subject","valueString":"213cfa17-45e4-4a27-8f69-6e29a40fd803"}]}],"extension":[{"url":"http://hl7.org/fhir/us/cqfmeasures/StructureDefinition/cqfm-inputParameters","valueReference":{"reference":"#41dfcee4-f245-4dca-8b6a-4b0567102071-parameters"}},{"url":"http://hl7.org/fhir/us/cqfmeasures/StructureDefinition/cqfm-testCaseDescription","valueMarkdown":"age < 8 fail IPP,\n\n"}],"modifierExtension":[{"url":"http://hl7.org/fhir/us/cqfmeasures/StructureDefinition/cqfm-isTestCase","valueBoolean":true}],"status":"complete","type":"individual","measure":"https://madie.cms.gov/Measure/CMS334FHIRPCCesareanBirth","period":{"start":"2026-01-01","end":"2026-12-31"},"group":[{"population":[{"code":{"coding":[{"system":"http://terminology.hl7.org/CodeSystem/measure-population","code":"initial-population","display":"Initial Population"}]},"count":0},{"code":{"coding":[{"system":"http://terminology.hl7.org/CodeSystem/measure-population","code":"denominator","display":"Denominator"}]},"count":0},{"code":{"coding":[{"system":"http://terminology.hl7.org/CodeSystem/measure-population","code":"denominator-exclusion","display":"Denominator Exclusion"}]},"count":0},{"code":{"coding":[{"system":"http://terminology.hl7.org/CodeSystem/measure-population","code":"numerator","display":"Numerator"}]},"count":0}]}]},"request":{"method":"PUT","url":"MeasureReport/f92cebab-7c8a-4811-8d2e-1276956e2388"}}]}