{"resourceType":"Bundle","id":"tests-8f2a5cf4-2468-47cd-8efb-cbb1b95f78fe-bundle","type":"transaction","entry":[{"fullUrl":"https://madie.cms.gov/Patient/8f2a5cf4-2468-47cd-8efb-cbb1b95f78fe","resource":{"resourceType":"Patient","id":"8f2a5cf4-2468-47cd-8efb-cbb1b95f78fe","meta":{"profile":["http://hl7.org/fhir/us/qicore/StructureDefinition/qicore-patient"]},"text":{"status":"generated","div":"<div xmlns=\"http://www.w3.org/1999/xhtml\"><div class=\"hapiHeaderText\">CMS334ProcDelivStart1MinAftEncInpEnds <b>IPPASS </b></div><table class=\"hapiPropertyTable\"><tbody><tr><td>Identifier</td><td>d130de5f4e42b38bd935fc8ebcd660c0e5f442917fd322d307794dfacd0563d2</td></tr><tr><td>Date of birth</td><td><span>14 February 2004</span></td></tr></tbody></table></div>"},"extension":[{"url":"http://hl7.org/fhir/us/core/StructureDefinition/us-core-race","extension":[{"url":"ombCategory","valueCoding":{"system":"urn:oid:2.16.840.1.113883.6.238","code":"1002-5","display":"American Indian or Alaska Native","userSelected":true}},{"url":"text","valueString":"American Indian or Alaska Native"}]},{"url":"http://hl7.org/fhir/us/core/StructureDefinition/us-core-ethnicity","extension":[{"url":"ombCategory","valueCoding":{"system":"urn:oid:2.16.840.1.113883.6.238","code":"2135-2","display":"Hispanic or Latino","userSelected":true}},{"url":"text","valueString":"Hispanic or Latino"}]}],"identifier":[{"type":{"coding":[{"system":"http://terminology.hl7.org/CodeSystem/v2-0203","code":"MR"}]},"system":"https://bonnie-fhir.healthit.gov/","value":"63487c2d0968f80122540149"}],"active":true,"name":[{"use":"usual","family":"IPFail","given":["CMS334ProcDelivStart1MinAftEncInpEnds"]}],"gender":"female","birthDate":"2017-02-14"},"request":{"method":"PUT","url":"Patient/8f2a5cf4-2468-47cd-8efb-cbb1b95f78fe"}},{"fullUrl":"https://madie.cms.gov/Encounter/a6569e08-52c1-4cce-95c4-564368051a43","resource":{"resourceType":"Encounter","id":"a6569e08-52c1-4cce-95c4-564368051a43","meta":{"profile":["http://hl7.org/fhir/us/qicore/StructureDefinition/qicore-encounter"]},"status":"finished","class":{"system":"http://terminology.hl7.org/CodeSystem/v3-ActCode","code":"IMP","display":"inpatient encounter"},"type":[{"coding":[{"system":"http://snomed.info/sct","code":"8715000"}]}],"subject":{"reference":"Patient/8f2a5cf4-2468-47cd-8efb-cbb1b95f78fe"},"period":{"start":"2026-11-28T08:00:00.000Z","end":"2026-11-30T08:15:00.000Z"},"diagnosis":[{"condition":{"reference":"Condition/Condition-2"},"use":{"coding":[{"system":"http://snomed.info/sct","code":"169826009","display":"Delivery of Singleton"}]}}]},"request":{"method":"PUT","url":"Encounter/a6569e08-52c1-4cce-95c4-564368051a43"}},{"fullUrl":"https://madie.cms.gov/Procedure/e0433313-501f-4226-9e14-7b2e6633accc","resource":{"resourceType":"Procedure","id":"e0433313-501f-4226-9e14-7b2e6633accc","meta":{"profile":["http://hl7.org/fhir/us/qicore/StructureDefinition/qicore-procedure"]},"extension":[{"url":"http://hl7.org/fhir/us/qicore/StructureDefinition/qicore-recorded","valueDateTime":"2014-04-05T09:35:00-04:00"}],"status":"completed","code":{"coding":[{"system":"http://snomed.info/sct","version":"2022-09","code":"10745001","display":"Delivery of transverse presentation (procedure)","userSelected":true}]},"subject":{"reference":"Patient/8f2a5cf4-2468-47cd-8efb-cbb1b95f78fe"},"performedDateTime":"2026-11-30T08:16:00.000+00:00"},"request":{"method":"PUT","url":"Procedure/e0433313-501f-4226-9e14-7b2e6633accc"}},{"fullUrl":"https://madie.cms.gov/Coverage/de1fd44a-4f67-4fa1-b788-21c6320cb284","resource":{"resourceType":"Coverage","id":"de1fd44a-4f67-4fa1-b788-21c6320cb284","status":"active","type":{"coding":[{"system":"http://www.nlm.nih.gov/research/umls/sop","version":"9.2","code":"1","display":"MEDICARE","userSelected":true}]},"beneficiary":{"reference":"Patient/8f2a5cf4-2468-47cd-8efb-cbb1b95f78fe"},"period":{"start":"2026-11-28T08:00:00.000Z","end":"2026-11-30T08:15:00.000Z"},"payor":[{"reference":"Organization/aeb2c6be-6577-4bba-a6b6-6eab95111f1b"}]},"request":{"method":"PUT","url":"Coverage/de1fd44a-4f67-4fa1-b788-21c6320cb284"}},{"fullUrl":"https://madie.cms.gov/Organization/aeae1152-f5d0-49bb-9241-972e56da0dac","resource":{"resourceType":"Organization","id":"aeb2c6be-6577-4bba-a6b6-6eab95111f1b","meta":{"profile":["http://hl7.org/fhir/us/qicore/StructureDefinition/qicore-organization"]},"identifier":[{"use":"temp","system":"urn:oid:2.16.840.1.113883.4.4","value":"21-3259825"}],"active":true,"type":[{"coding":[{"system":"http://terminology.hl7.org/CodeSystem/organization-type","code":"pay","display":"Payer"}]}],"name":"Blue Cross Blue Shield of Texas","telecom":[{"system":"phone","value":"(+1) 972-766-6900"}],"address":[{"use":"billing","type":"postal","line":["P.O. Box 660044"],"city":"Dallas","state":"TX","postalCode":"75266-0044","country":"USA"}]},"request":{"method":"PUT","url":"Organization/aeb2c6be-6577-4bba-a6b6-6eab95111f1b"}},{"fullUrl":"https://madie.cms.gov/Practitioner/646f5649-4f3b-438d-b2ba-5e8b8deb63ba","resource":{"resourceType":"Practitioner","id":"646f5649-4f3b-438d-b2ba-5e8b8deb63ba","identifier":[{"system":"http://hl7.org/fhir/sid/us-npi","value":"123456"}],"name":[{"family":"Evil","prefix":["Dr"]}]},"request":{"method":"PUT","url":"Practitioner/646f5649-4f3b-438d-b2ba-5e8b8deb63ba"}},{"fullUrl":"https://madie.cms.gov/MeasureReport/bf21fb2a-589b-446f-a57b-8c362b5d860d","resource":{"resourceType":"MeasureReport","id":"bf21fb2a-589b-446f-a57b-8c362b5d860d","meta":{"profile":["http://hl7.org/fhir/us/cqfmeasures/StructureDefinition/test-case-cqfm"]},"contained":[{"resourceType":"Parameters","id":"6b150dbd-173b-4eb0-b68c-c55370f3f5d6-parameters","parameter":[{"name":"subject","valueString":"8f2a5cf4-2468-47cd-8efb-cbb1b95f78fe"}]}],"extension":[{"url":"http://hl7.org/fhir/us/cqfmeasures/StructureDefinition/cqfm-inputParameters","valueReference":{"reference":"#6b150dbd-173b-4eb0-b68c-c55370f3f5d6-parameters"}},{"url":"http://hl7.org/fhir/us/cqfmeasures/StructureDefinition/cqfm-testCaseDescription","valueMarkdown":"Fails IP since Proc Deliv Start 1 minute after Inpt Enc Ends, not during encounter."}],"modifierExtension":[{"url":"http://hl7.org/fhir/us/cqfmeasures/StructureDefinition/cqfm-isTestCase","valueBoolean":true}],"status":"complete","type":"individual","measure":"https://madie.cms.gov/Measure/CMS334FHIRPCCesareanBirth","period":{"start":"2026-01-01","end":"2026-12-31"},"group":[{"population":[{"code":{"coding":[{"system":"http://terminology.hl7.org/CodeSystem/measure-population","code":"initial-population","display":"Initial Population"}]},"count":0},{"code":{"coding":[{"system":"http://terminology.hl7.org/CodeSystem/measure-population","code":"denominator","display":"Denominator"}]},"count":0},{"code":{"coding":[{"system":"http://terminology.hl7.org/CodeSystem/measure-population","code":"denominator-exclusion","display":"Denominator Exclusion"}]},"count":0},{"code":{"coding":[{"system":"http://terminology.hl7.org/CodeSystem/measure-population","code":"numerator","display":"Numerator"}]},"count":0}]}]},"request":{"method":"PUT","url":"MeasureReport/bf21fb2a-589b-446f-a57b-8c362b5d860d"}}]}