{"resourceType":"Bundle","id":"tests-2d756eed-2ff2-4147-9380-e25de99dce16-bundle","type":"transaction","entry":[{"fullUrl":"https://madie.cms.gov/Patient/2d756eed-2ff2-4147-9380-e25de99dce16","resource":{"resourceType":"Patient","id":"2d756eed-2ff2-4147-9380-e25de99dce16","meta":{"profile":["http://hl7.org/fhir/us/qicore/StructureDefinition/qicore-patient"]},"text":{"status":"generated","div":"<div xmlns=\"http://www.w3.org/1999/xhtml\"><div class=\"hapiHeaderText\">AssessGARelDtTimeEQTimeOfDeliv <b>DENPASS </b></div><table class=\"hapiPropertyTable\"><tbody><tr><td>Identifier</td><td>5a43feb5ef6790325ae6e24fa7ff46c3f575969de203fb850fa7ba5a88d0a779</td></tr><tr><td>Date of birth</td><td><span>14 February 1985</span></td></tr></tbody></table></div>"},"extension":[{"url":"http://hl7.org/fhir/us/core/StructureDefinition/us-core-race","extension":[{"url":"ombCategory","valueCoding":{"system":"urn:oid:2.16.840.1.113883.6.238","code":"1002-5","display":"American Indian or Alaska Native","userSelected":true}},{"url":"text","valueString":"American Indian or Alaska Native"}]},{"url":"http://hl7.org/fhir/us/core/StructureDefinition/us-core-ethnicity","extension":[{"url":"ombCategory","valueCoding":{"system":"urn:oid:2.16.840.1.113883.6.238","code":"2135-2","display":"Hispanic or Latino","userSelected":true}},{"url":"text","valueString":"Hispanic or Latino"}]}],"identifier":[{"type":{"coding":[{"system":"http://terminology.hl7.org/CodeSystem/v2-0203","code":"MR"}]},"system":"https://bonnie-fhir.healthit.gov/","value":"63487c2f0968f8012254018d"}],"active":true,"name":[{"use":"usual","family":"DENPass","given":["AssessGARelDtTimeEQTimeOfDeliv"]}],"gender":"female","birthDate":"1998-02-14"},"request":{"method":"PUT","url":"Patient/2d756eed-2ff2-4147-9380-e25de99dce16"}},{"fullUrl":"https://madie.cms.gov/Observation/0d1f8e9b-e73c-4306-955d-94f2bc7f2cbf","resource":{"resourceType":"Observation","id":"0d1f8e9b-e73c-4306-955d-94f2bc7f2cbf","meta":{"profile":["http://hl7.org/fhir/us/qicore/StructureDefinition/qicore-observation"]},"status":"final","category":[{"coding":[{"system":"http://terminology.hl7.org/CodeSystem/observation-category","code":"exam","display":"exam","userSelected":true}]}],"code":{"coding":[{"system":"http://loinc.org","code":"11996-6"}]},"subject":{"reference":"Patient/2d756eed-2ff2-4147-9380-e25de99dce16"},"effectiveDateTime":"2026-06-08T08:00:00.000+00:00","valueInteger":1},"request":{"method":"PUT","url":"Observation/0d1f8e9b-e73c-4306-955d-94f2bc7f2cbf"}},{"fullUrl":"https://madie.cms.gov/Observation/5de7b133-38f2-4db4-a944-07d5a057234e","resource":{"resourceType":"Observation","id":"5de7b133-38f2-4db4-a944-07d5a057234e","meta":{"profile":["http://hl7.org/fhir/us/qicore/StructureDefinition/qicore-observation"]},"status":"final","category":[{"coding":[{"system":"http://terminology.hl7.org/CodeSystem/observation-category","code":"exam","display":"exam","userSelected":true}]}],"code":{"coding":[{"system":"http://loinc.org","code":"11884-4"}]},"subject":{"reference":"Patient/2d756eed-2ff2-4147-9380-e25de99dce16"},"effectiveDateTime":"2026-06-08T09:15:00.000+00:00","valueQuantity":{"value":37,"system":"http://unitsofmeasure.org","code":"wk"}},"request":{"method":"PUT","url":"Observation/5de7b133-38f2-4db4-a944-07d5a057234e"}},{"fullUrl":"https://madie.cms.gov/Observation/3e8085d5-991a-4174-af7d-51331d8c7609","resource":{"resourceType":"Observation","id":"3e8085d5-991a-4174-af7d-51331d8c7609","meta":{"profile":["http://hl7.org/fhir/us/qicore/StructureDefinition/qicore-observation"]},"status":"final","category":[{"coding":[{"system":"http://terminology.hl7.org/CodeSystem/observation-category","code":"exam","display":"exam","userSelected":true}]}],"code":{"coding":[{"system":"http://loinc.org","code":"93857-1"}]},"subject":{"reference":"Patient/2d756eed-2ff2-4147-9380-e25de99dce16"},"effectiveDateTime":"2026-06-08T09:15:00.000+00:00","valueDateTime":"2026-06-08T09:15:00+00:00"},"request":{"method":"PUT","url":"Observation/3e8085d5-991a-4174-af7d-51331d8c7609"}},{"fullUrl":"https://madie.cms.gov/Encounter/78a7d0b4-1709-41b2-b326-882ccd379494","resource":{"resourceType":"Encounter","id":"78a7d0b4-1709-41b2-b326-882ccd379494","meta":{"profile":["http://hl7.org/fhir/us/qicore/StructureDefinition/qicore-encounter"]},"status":"finished","class":{"system":"http://terminology.hl7.org/CodeSystem/v3-ActCode","code":"IMP","display":"inpatient encounter"},"type":[{"coding":[{"system":"http://snomed.info/sct","code":"183452005"}]}],"subject":{"reference":"Patient/2d756eed-2ff2-4147-9380-e25de99dce16"},"period":{"start":"2026-06-08T08:00:00.000Z","end":"2026-06-10T08:15:00.000Z"},"length":{"value":2,"unit":"days"},"diagnosis":[{"condition":{"reference":"Condition/76721305-0f5e-41e2-b7c9-89ebaa331250"},"use":{"coding":[{"system":"http://snomed.info/sct","code":"169826009","display":"Delivery of Singleton"}]}}]},"request":{"method":"PUT","url":"Encounter/78a7d0b4-1709-41b2-b326-882ccd379494"}},{"fullUrl":"https://madie.cms.gov/Procedure/75e13e82-a0e9-4b34-85b1-864b8e59237e","resource":{"resourceType":"Procedure","id":"75e13e82-a0e9-4b34-85b1-864b8e59237e","meta":{"profile":["http://hl7.org/fhir/us/qicore/StructureDefinition/qicore-procedure"]},"extension":[{"url":"http://hl7.org/fhir/us/qicore/StructureDefinition/qicore-recorded","valueDateTime":"2014-04-05T09:35:00-04:00"}],"status":"completed","code":{"coding":[{"system":"http://www.cms.gov/Medicare/Coding/ICD10","code":"10D00Z0"},{"system":"http://www.icd10data.com/icd10pcs","code":"10D00Z0","userSelected":true}]},"subject":{"reference":"Patient/2d756eed-2ff2-4147-9380-e25de99dce16"},"performedPeriod":{"start":"2026-06-08T08:00:00.000Z","end":"2026-06-08T09:15:00.000Z"}},"request":{"method":"PUT","url":"Procedure/75e13e82-a0e9-4b34-85b1-864b8e59237e"}},{"fullUrl":"https://madie.cms.gov/Condition/76721305-0f5e-41e2-b7c9-89ebaa331250","resource":{"resourceType":"Condition","id":"76721305-0f5e-41e2-b7c9-89ebaa331250","meta":{"profile":["http://hl7.org/fhir/us/qicore/StructureDefinition/qicore-condition"]},"category":[{"coding":[{"system":"http://terminology.hl7.org/CodeSystem/condition-category","code":"encounter-diagnosis","display":"Encounter Diagnosis"}]}],"code":{"coding":[{"system":"http://snomed.info/sct","version":"2022-09","code":"169826009","display":"Single live birth (finding)","userSelected":true}]},"subject":{"reference":"Patient/2d756eed-2ff2-4147-9380-e25de99dce16"},"recordedDate":"2026-10-21T08:00:00.000+00:00"},"request":{"method":"PUT","url":"Condition/76721305-0f5e-41e2-b7c9-89ebaa331250"}},{"fullUrl":"https://madie.cms.gov/Condition/a0460da5-1b6f-400c-88f4-9595991d5c2c","resource":{"resourceType":"Condition","id":"a0460da5-1b6f-400c-88f4-9595991d5c2c","category":[{"coding":[{"system":"http://terminology.hl7.org/CodeSystem/condition-category","code":"encounter-diagnosis","display":"Encounter Diagnosis"}]}],"code":{"coding":[{"system":"http://snomed.info/sct","version":"2022-09","code":"18559007","display":"Frank breech presentation (finding)","userSelected":true}]},"subject":{"reference":"Patient/2d756eed-2ff2-4147-9380-e25de99dce16"},"recordedDate":"2026-10-21T08:00:00.000+00:00"},"request":{"method":"PUT","url":"Condition/a0460da5-1b6f-400c-88f4-9595991d5c2c"}},{"fullUrl":"https://madie.cms.gov/Coverage/82994782-defc-4071-89b5-0cc79eec4de3","resource":{"resourceType":"Coverage","id":"82994782-defc-4071-89b5-0cc79eec4de3","meta":{"profile":["http://hl7.org/fhir/us/qicore/StructureDefinition/qicore-coverage"]},"status":"active","beneficiary":{"reference":"Patient/2d756eed-2ff2-4147-9380-e25de99dce16"},"payor":[{"reference":"Organization/f7da4368-fb6d-4d73-a75b-f78024cbb18d"}]},"request":{"method":"PUT","url":"Coverage/82994782-defc-4071-89b5-0cc79eec4de3"}},{"fullUrl":"https://madie.cms.gov/Organization/956b80dd-dbf6-4505-a8e7-9ed6f788921a","resource":{"resourceType":"Organization","id":"f7da4368-fb6d-4d73-a75b-f78024cbb18d","meta":{"profile":["http://hl7.org/fhir/us/qicore/StructureDefinition/qicore-organization"]},"identifier":[{"use":"temp","system":"urn:oid:2.16.840.1.113883.4.4","value":"21-3259825"}],"active":true,"type":[{"coding":[{"system":"http://terminology.hl7.org/CodeSystem/organization-type","code":"pay","display":"Payer"}]}],"name":"Blue Cross Blue Shield of Texas","telecom":[{"system":"phone","value":"(+1) 972-766-6900"}],"address":[{"use":"billing","type":"postal","line":["P.O. Box 660044"],"city":"Dallas","state":"TX","postalCode":"75266-0044","country":"USA"}]},"request":{"method":"PUT","url":"Organization/f7da4368-fb6d-4d73-a75b-f78024cbb18d"}},{"fullUrl":"https://madie.cms.gov/Practitioner/8389d49b-c23f-457c-84d0-e1721e54835d","resource":{"resourceType":"Practitioner","id":"8389d49b-c23f-457c-84d0-e1721e54835d","identifier":[{"system":"http://hl7.org/fhir/sid/us-npi","value":"123456"}],"name":[{"family":"Evil","prefix":["Dr"]}]},"request":{"method":"PUT","url":"Practitioner/8389d49b-c23f-457c-84d0-e1721e54835d"}},{"fullUrl":"https://madie.cms.gov/MeasureReport/9023f002-b331-4318-8e48-2564b924e136","resource":{"resourceType":"MeasureReport","id":"9023f002-b331-4318-8e48-2564b924e136","meta":{"profile":["http://hl7.org/fhir/us/cqfmeasures/StructureDefinition/test-case-cqfm"]},"contained":[{"resourceType":"Parameters","id":"f710ab69-c6fb-45e7-a3f5-8d148fa76f56-parameters","parameter":[{"name":"subject","valueString":"2d756eed-2ff2-4147-9380-e25de99dce16"}]}],"extension":[{"url":"http://hl7.org/fhir/us/cqfmeasures/StructureDefinition/cqfm-inputParameters","valueReference":{"reference":"#f710ab69-c6fb-45e7-a3f5-8d148fa76f56-parameters"}},{"url":"http://hl7.org/fhir/us/cqfmeasures/StructureDefinition/cqfm-testCaseDescription","valueMarkdown":"Passes: IP, Pt is 27 years of age,  encounter dx of delivery of singleton, gravida, EGA @ 38 weeks  AsseEGA37 (same day and time) TmDeliver.  Tests \"Gestation37PlusWeeks.authorDatetime 1 day or less on or before TimeOfDelivery.authorDatetime\".\n"}],"modifierExtension":[{"url":"http://hl7.org/fhir/us/cqfmeasures/StructureDefinition/cqfm-isTestCase","valueBoolean":true}],"status":"complete","type":"individual","measure":"https://madie.cms.gov/Measure/CMS334FHIRPCCesareanBirth","period":{"start":"2026-01-01","end":"2026-12-31"},"group":[{"population":[{"code":{"coding":[{"system":"http://terminology.hl7.org/CodeSystem/measure-population","code":"initial-population","display":"Initial Population"}]},"count":1},{"code":{"coding":[{"system":"http://terminology.hl7.org/CodeSystem/measure-population","code":"denominator","display":"Denominator"}]},"count":1},{"code":{"coding":[{"system":"http://terminology.hl7.org/CodeSystem/measure-population","code":"denominator-exclusion","display":"Denominator Exclusion"}]},"count":0},{"code":{"coding":[{"system":"http://terminology.hl7.org/CodeSystem/measure-population","code":"numerator","display":"Numerator"}]},"count":1}]}]},"request":{"method":"PUT","url":"MeasureReport/9023f002-b331-4318-8e48-2564b924e136"}}]}