{"resourceType":"Bundle","id":"tests-3c38598f-548f-483a-b387-376142846a96-bundle","type":"transaction","entry":[{"fullUrl":"https://madie.cms.gov/Patient/3c38598f-548f-483a-b387-376142846a96","resource":{"resourceType":"Patient","id":"3c38598f-548f-483a-b387-376142846a96","meta":{"profile":["http://hl7.org/fhir/us/qicore/StructureDefinition/qicore-patient"]},"text":{"status":"generated","div":"<div xmlns=\"http://www.w3.org/1999/xhtml\"><div class=\"hapiHeaderText\">AssessNoGPPretermTerm <b>DENFAIL </b></div><table class=\"hapiPropertyTable\"><tbody><tr><td>Identifier</td><td>b00b06f67015bda652373741cca10f65466d828e3a674df9528f73ec417ce0bb</td></tr><tr><td>Date of birth</td><td><span>14 February 1985</span></td></tr></tbody></table></div>"},"extension":[{"url":"http://hl7.org/fhir/us/core/StructureDefinition/us-core-race","extension":[{"url":"ombCategory","valueCoding":{"system":"urn:oid:2.16.840.1.113883.6.238","code":"1002-5","display":"American Indian or Alaska Native","userSelected":true}},{"url":"text","valueString":"American Indian or Alaska Native"}]},{"url":"http://hl7.org/fhir/us/core/StructureDefinition/us-core-ethnicity","extension":[{"url":"ombCategory","valueCoding":{"system":"urn:oid:2.16.840.1.113883.6.238","code":"2135-2","display":"Hispanic or Latino","userSelected":true}},{"url":"text","valueString":"Hispanic or Latino"}]}],"identifier":[{"type":{"coding":[{"system":"http://terminology.hl7.org/CodeSystem/v2-0203","code":"MR"}]},"system":"https://bonnie-fhir.healthit.gov/","value":"63487c300968f801225401b9"}],"active":true,"name":[{"use":"usual","family":"DENFail","given":["AssessNoGPPretermTerm"]}],"gender":"female","birthDate":"1998-02-14"},"request":{"method":"PUT","url":"Patient/3c38598f-548f-483a-b387-376142846a96"}},{"fullUrl":"https://madie.cms.gov/Observation/1578a844-8864-4a07-962a-225df85e7bd5","resource":{"resourceType":"Observation","id":"1578a844-8864-4a07-962a-225df85e7bd5","meta":{"profile":["http://hl7.org/fhir/us/qicore/StructureDefinition/qicore-observation"]},"status":"final","category":[{"coding":[{"system":"http://terminology.hl7.org/CodeSystem/observation-category","code":"exam","display":"exam","userSelected":true}]}],"code":{"coding":[{"system":"http://loinc.org","code":"11884-4"}]},"subject":{"reference":"Patient/3c38598f-548f-483a-b387-376142846a96"},"effectiveDateTime":"2026-06-08T09:15:00.000+00:00","valueQuantity":{"value":38,"system":"http://unitsofmeasure.org","code":"wk"}},"request":{"method":"PUT","url":"Observation/1578a844-8864-4a07-962a-225df85e7bd5"}},{"fullUrl":"https://madie.cms.gov/Observation/054e0218-b12b-4906-b6e5-3403d38b41ba","resource":{"resourceType":"Observation","id":"054e0218-b12b-4906-b6e5-3403d38b41ba","meta":{"profile":["http://hl7.org/fhir/us/qicore/StructureDefinition/qicore-observation"]},"status":"final","category":[{"coding":[{"system":"http://terminology.hl7.org/CodeSystem/observation-category","code":"exam","display":"exam","userSelected":true}]}],"code":{"coding":[{"system":"http://loinc.org","code":"93857-1"}]},"subject":{"reference":"Patient/3c38598f-548f-483a-b387-376142846a96"},"effectiveDateTime":"2026-06-08T20:00:00.000+00:00","valueDateTime":"2026-06-08T20:00:00+00:00"},"request":{"method":"PUT","url":"Observation/054e0218-b12b-4906-b6e5-3403d38b41ba"}},{"fullUrl":"https://madie.cms.gov/Encounter/4a06450d-ae2e-46c8-8594-f551c59dc03f","resource":{"resourceType":"Encounter","id":"4a06450d-ae2e-46c8-8594-f551c59dc03f","meta":{"profile":["http://hl7.org/fhir/us/qicore/StructureDefinition/qicore-encounter"]},"status":"finished","class":{"system":"http://terminology.hl7.org/CodeSystem/v3-ActCode","code":"IMP","display":"inpatient encounter"},"type":[{"coding":[{"system":"http://snomed.info/sct","code":"183452005"}]}],"subject":{"reference":"Patient/3c38598f-548f-483a-b387-376142846a96"},"period":{"start":"2026-06-08T08:00:00.000Z","end":"2026-06-10T08:15:00.000Z"},"length":{"value":2,"unit":"days"},"diagnosis":[{"condition":{"reference":"Condition/delivery-of-singleton-f83c"},"use":{"coding":[{"system":"http://snomed.info/sct","code":"169826009","display":"Delivery of Singleton"}]}},{"condition":{"reference":"Condition/2da18726-4660-4045-84c7-2ac58b539735"}}]},"request":{"method":"PUT","url":"Encounter/4a06450d-ae2e-46c8-8594-f551c59dc03f"}},{"fullUrl":"https://madie.cms.gov/Procedure/36952ca0-5875-42eb-ab3d-4c9d753ba190","resource":{"resourceType":"Procedure","id":"36952ca0-5875-42eb-ab3d-4c9d753ba190","meta":{"profile":["http://hl7.org/fhir/us/qicore/StructureDefinition/qicore-procedure"]},"extension":[{"url":"http://hl7.org/fhir/us/qicore/StructureDefinition/qicore-recorded","valueDateTime":"2014-04-05T09:35:00-04:00"}],"status":"completed","code":{"coding":[{"system":"http://www.cms.gov/Medicare/Coding/ICD10","code":"10D07Z3"},{"system":"http://www.icd10data.com/icd10pcs","code":"10D07Z3","userSelected":true}]},"subject":{"reference":"Patient/3c38598f-548f-483a-b387-376142846a96"},"performedPeriod":{"start":"2026-06-08T08:10:00.000Z","end":"2026-06-08T09:14:00.000Z"}},"request":{"method":"PUT","url":"Procedure/36952ca0-5875-42eb-ab3d-4c9d753ba190"}},{"fullUrl":"https://madie.cms.gov/Condition/2da18726-4660-4045-84c7-2ac58b539735","resource":{"resourceType":"Condition","id":"2da18726-4660-4045-84c7-2ac58b539735","meta":{"profile":["http://hl7.org/fhir/us/qicore/StructureDefinition/qicore-condition"]},"category":[{"coding":[{"system":"http://terminology.hl7.org/CodeSystem/condition-category","code":"encounter-diagnosis","display":"Encounter Diagnosis"}]}],"code":{"coding":[{"system":"http://snomed.info/sct","version":"2022-09","code":"169826009","display":"Single live birth (finding)","userSelected":true}]},"subject":{"reference":"Patient/3c38598f-548f-483a-b387-376142846a96"},"recordedDate":"2026-10-21T08:00:00.000+00:00"},"request":{"method":"PUT","url":"Condition/2da18726-4660-4045-84c7-2ac58b539735"}},{"fullUrl":"https://madie.cms.gov/Coverage/dea6e2a6-5800-460c-8225-ab5a21912cb4","resource":{"resourceType":"Coverage","id":"dea6e2a6-5800-460c-8225-ab5a21912cb4","meta":{"profile":["http://hl7.org/fhir/us/qicore/StructureDefinition/qicore-coverage"]},"status":"active","beneficiary":{"reference":"Patient/3c38598f-548f-483a-b387-376142846a96"},"payor":[{"reference":"Organization/3778262e-e084-4bb5-9a47-1a144735f786"}]},"request":{"method":"PUT","url":"Coverage/dea6e2a6-5800-460c-8225-ab5a21912cb4"}},{"fullUrl":"https://madie.cms.gov/Organization/857bd597-6088-4e40-998c-10b4a7054518","resource":{"resourceType":"Organization","id":"3778262e-e084-4bb5-9a47-1a144735f786","meta":{"profile":["http://hl7.org/fhir/us/qicore/StructureDefinition/qicore-organization"]},"identifier":[{"use":"temp","system":"urn:oid:2.16.840.1.113883.4.4","value":"21-3259825"}],"active":true,"type":[{"coding":[{"system":"http://terminology.hl7.org/CodeSystem/organization-type","code":"pay","display":"Payer"}]}],"name":"Blue Cross Blue Shield of Texas","telecom":[{"system":"phone","value":"(+1) 972-766-6900"}],"address":[{"use":"billing","type":"postal","line":["P.O. Box 660044"],"city":"Dallas","state":"TX","postalCode":"75266-0044","country":"USA"}]},"request":{"method":"PUT","url":"Organization/3778262e-e084-4bb5-9a47-1a144735f786"}},{"fullUrl":"https://madie.cms.gov/Practitioner/67b354f4-333e-4f20-babd-530846bd2742","resource":{"resourceType":"Practitioner","id":"67b354f4-333e-4f20-babd-530846bd2742","identifier":[{"system":"http://hl7.org/fhir/sid/us-npi","value":"123456"}],"name":[{"family":"Evil","prefix":["Dr"]}]},"request":{"method":"PUT","url":"Practitioner/67b354f4-333e-4f20-babd-530846bd2742"}},{"fullUrl":"https://madie.cms.gov/MeasureReport/7ce6fb27-0af5-4649-8cbd-60865d6a1039","resource":{"resourceType":"MeasureReport","id":"7ce6fb27-0af5-4649-8cbd-60865d6a1039","meta":{"profile":["http://hl7.org/fhir/us/cqfmeasures/StructureDefinition/test-case-cqfm"]},"contained":[{"resourceType":"Parameters","id":"eeedee76-43f9-4524-9ca0-c986396077f6-parameters","parameter":[{"name":"subject","valueString":"3c38598f-548f-483a-b387-376142846a96"}]}],"extension":[{"url":"http://hl7.org/fhir/us/cqfmeasures/StructureDefinition/cqfm-inputParameters","valueReference":{"reference":"#eeedee76-43f9-4524-9ca0-c986396077f6-parameters"}},{"url":"http://hl7.org/fhir/us/cqfmeasures/StructureDefinition/cqfm-testCaseDescription","valueMarkdown":"Passes: IP, Fails DENOM because no Parity, Gravida, Term nor Preterm information\n"}],"modifierExtension":[{"url":"http://hl7.org/fhir/us/cqfmeasures/StructureDefinition/cqfm-isTestCase","valueBoolean":true}],"status":"complete","type":"individual","measure":"https://madie.cms.gov/Measure/CMS334FHIRPCCesareanBirth","period":{"start":"2026-01-01","end":"2026-12-31"},"group":[{"population":[{"code":{"coding":[{"system":"http://terminology.hl7.org/CodeSystem/measure-population","code":"initial-population","display":"Initial Population"}]},"count":1},{"code":{"coding":[{"system":"http://terminology.hl7.org/CodeSystem/measure-population","code":"denominator","display":"Denominator"}]},"count":0},{"code":{"coding":[{"system":"http://terminology.hl7.org/CodeSystem/measure-population","code":"denominator-exclusion","display":"Denominator Exclusion"}]},"count":0},{"code":{"coding":[{"system":"http://terminology.hl7.org/CodeSystem/measure-population","code":"numerator","display":"Numerator"}]},"count":0}]}]},"request":{"method":"PUT","url":"MeasureReport/7ce6fb27-0af5-4649-8cbd-60865d6a1039"}}]}