{"resourceType":"Bundle","id":"tests-ecf5375c-912c-483c-9c38-72d85df27f12-bundle","type":"transaction","entry":[{"fullUrl":"https://madie.cms.gov/Patient/ecf5375c-912c-483c-9c38-72d85df27f12","resource":{"resourceType":"Patient","id":"ecf5375c-912c-483c-9c38-72d85df27f12","meta":{"profile":["http://hl7.org/fhir/us/qicore/StructureDefinition/qicore-patient"]},"text":{"status":"generated","div":"<div xmlns=\"http://www.w3.org/1999/xhtml\"><div class=\"hapiHeaderText\">AssessG1RelDateTime1MinB4Deliv <b>DENPASS </b></div><table class=\"hapiPropertyTable\"><tbody><tr><td>Identifier</td><td>922db984f9db53e157b9b9a69ed9222997d6b9bae6d41f21e52e3ca568fdb9dd</td></tr><tr><td>Date of birth</td><td><span>14 February 1985</span></td></tr></tbody></table></div>"},"extension":[{"url":"http://hl7.org/fhir/us/core/StructureDefinition/us-core-race","extension":[{"url":"ombCategory","valueCoding":{"system":"urn:oid:2.16.840.1.113883.6.238","code":"1002-5","display":"American Indian or Alaska Native","userSelected":true}},{"url":"text","valueString":"American Indian or Alaska Native"}]},{"url":"http://hl7.org/fhir/us/core/StructureDefinition/us-core-ethnicity","extension":[{"url":"ombCategory","valueCoding":{"system":"urn:oid:2.16.840.1.113883.6.238","code":"2135-2","display":"Hispanic or Latino","userSelected":true}},{"url":"text","valueString":"Hispanic or Latino"}]}],"identifier":[{"type":{"coding":[{"system":"http://terminology.hl7.org/CodeSystem/v2-0203","code":"MR"}]},"system":"https://bonnie-fhir.healthit.gov/","value":"63487c2f0968f80122540191"}],"active":true,"name":[{"use":"usual","family":"DENPass","given":["AssessG1RelDateTime1MinB4Deliv"]}],"gender":"female","birthDate":"1998-02-14"},"request":{"method":"PUT","url":"Patient/ecf5375c-912c-483c-9c38-72d85df27f12"}},{"fullUrl":"https://madie.cms.gov/Observation/a2605788-4985-46fc-8ae3-d809c0b26310","resource":{"resourceType":"Observation","id":"a2605788-4985-46fc-8ae3-d809c0b26310","meta":{"profile":["http://hl7.org/fhir/us/qicore/StructureDefinition/qicore-observation"]},"status":"final","category":[{"coding":[{"system":"http://terminology.hl7.org/CodeSystem/observation-category","code":"exam","display":"exam","userSelected":true}]}],"code":{"coding":[{"system":"http://loinc.org","code":"11884-4"}]},"subject":{"reference":"Patient/ecf5375c-912c-483c-9c38-72d85df27f12"},"effectiveDateTime":"2026-06-08T09:15:00.000+00:00","valueQuantity":{"value":38,"system":"http://unitsofmeasure.org","code":"wk"}},"request":{"method":"PUT","url":"Observation/a2605788-4985-46fc-8ae3-d809c0b26310"}},{"fullUrl":"https://madie.cms.gov/Observation/9c0f0ef6-cfd3-474c-aab7-ab0bf4268af4","resource":{"resourceType":"Observation","id":"9c0f0ef6-cfd3-474c-aab7-ab0bf4268af4","meta":{"profile":["http://hl7.org/fhir/us/qicore/StructureDefinition/qicore-observation"]},"status":"final","category":[{"coding":[{"system":"http://terminology.hl7.org/CodeSystem/observation-category","code":"exam","display":"exam","userSelected":true}]}],"code":{"coding":[{"system":"http://loinc.org","code":"11996-6"}]},"subject":{"reference":"Patient/ecf5375c-912c-483c-9c38-72d85df27f12"},"effectiveDateTime":"2026-06-08T18:59:00.000+00:00","valueInteger":1},"request":{"method":"PUT","url":"Observation/9c0f0ef6-cfd3-474c-aab7-ab0bf4268af4"}},{"fullUrl":"https://madie.cms.gov/Observation/9f3175bd-4314-4cd2-8013-d13a33b1baa0","resource":{"resourceType":"Observation","id":"9f3175bd-4314-4cd2-8013-d13a33b1baa0","meta":{"profile":["http://hl7.org/fhir/us/qicore/StructureDefinition/qicore-observation"]},"status":"final","category":[{"coding":[{"system":"http://terminology.hl7.org/CodeSystem/observation-category","code":"exam","display":"exam","userSelected":true}]}],"code":{"coding":[{"system":"http://loinc.org","code":"93857-1"}]},"subject":{"reference":"Patient/ecf5375c-912c-483c-9c38-72d85df27f12"},"effectiveDateTime":"2026-06-08T19:00:00.000+00:00","valueDateTime":"2026-06-08T19:00:00+00:00"},"request":{"method":"PUT","url":"Observation/9f3175bd-4314-4cd2-8013-d13a33b1baa0"}},{"fullUrl":"https://madie.cms.gov/Encounter/ab70655a-724b-415b-a664-11e119dc82a9","resource":{"resourceType":"Encounter","id":"ab70655a-724b-415b-a664-11e119dc82a9","meta":{"profile":["http://hl7.org/fhir/us/qicore/StructureDefinition/qicore-encounter"]},"status":"finished","class":{"system":"http://terminology.hl7.org/CodeSystem/v3-ActCode","code":"IMP","display":"inpatient encounter"},"type":[{"coding":[{"system":"http://snomed.info/sct","code":"183452005"}]}],"subject":{"reference":"Patient/ecf5375c-912c-483c-9c38-72d85df27f12"},"period":{"start":"2026-06-08T08:00:00.000Z","end":"2026-06-10T08:15:00.000Z"},"length":{"value":2,"unit":"days"},"diagnosis":[{"condition":{"reference":"Condition/delivery-of-singleton-f83c"},"use":{"coding":[{"system":"http://snomed.info/sct","code":"169826009","display":"Delivery of Singleton"}]}},{"condition":{"reference":"Condition/e1c89a88-22e7-4e02-b7fa-4e52764db2b3"}}]},"request":{"method":"PUT","url":"Encounter/ab70655a-724b-415b-a664-11e119dc82a9"}},{"fullUrl":"https://madie.cms.gov/Procedure/c885029a-a571-46af-90e8-c338cf2c46d7","resource":{"resourceType":"Procedure","id":"c885029a-a571-46af-90e8-c338cf2c46d7","meta":{"profile":["http://hl7.org/fhir/us/qicore/StructureDefinition/qicore-procedure"]},"extension":[{"url":"http://hl7.org/fhir/us/qicore/StructureDefinition/qicore-recorded","valueDateTime":"2014-04-05T09:35:00-04:00"}],"status":"completed","code":{"coding":[{"system":"http://www.cms.gov/Medicare/Coding/ICD10","code":"10D07Z3"},{"system":"http://www.icd10data.com/icd10pcs","code":"10D07Z3","userSelected":true}]},"subject":{"reference":"Patient/ecf5375c-912c-483c-9c38-72d85df27f12"},"performedPeriod":{"start":"2026-06-08T08:10:00.000Z","end":"2026-06-08T09:14:00.000Z"}},"request":{"method":"PUT","url":"Procedure/c885029a-a571-46af-90e8-c338cf2c46d7"}},{"fullUrl":"https://madie.cms.gov/Condition/e1c89a88-22e7-4e02-b7fa-4e52764db2b3","resource":{"resourceType":"Condition","id":"e1c89a88-22e7-4e02-b7fa-4e52764db2b3","meta":{"profile":["http://hl7.org/fhir/us/qicore/StructureDefinition/qicore-condition"]},"category":[{"coding":[{"system":"http://terminology.hl7.org/CodeSystem/condition-category","code":"encounter-diagnosis","display":"Encounter Diagnosis"}]}],"code":{"coding":[{"system":"http://snomed.info/sct","version":"2022-09","code":"169826009","display":"Single live birth (finding)","userSelected":true}]},"subject":{"reference":"Patient/ecf5375c-912c-483c-9c38-72d85df27f12"},"recordedDate":"2026-10-18T08:00:00.000+00:00"},"request":{"method":"PUT","url":"Condition/e1c89a88-22e7-4e02-b7fa-4e52764db2b3"}},{"fullUrl":"https://madie.cms.gov/Coverage/1df17bf6-acc9-4224-b923-220b59c4811b","resource":{"resourceType":"Coverage","id":"1df17bf6-acc9-4224-b923-220b59c4811b","meta":{"profile":["http://hl7.org/fhir/us/qicore/StructureDefinition/qicore-coverage"]},"status":"active","beneficiary":{"reference":"Patient/ecf5375c-912c-483c-9c38-72d85df27f12"},"payor":[{"reference":"Organization/4da248b0-6e59-49b7-b80e-338aa21d299f"}]},"request":{"method":"PUT","url":"Coverage/1df17bf6-acc9-4224-b923-220b59c4811b"}},{"fullUrl":"https://madie.cms.gov/Organization/e5f79111-aa53-4568-a6e0-8d9c226009a8","resource":{"resourceType":"Organization","id":"4da248b0-6e59-49b7-b80e-338aa21d299f","meta":{"profile":["http://hl7.org/fhir/us/qicore/StructureDefinition/qicore-organization"]},"identifier":[{"use":"temp","system":"urn:oid:2.16.840.1.113883.4.4","value":"21-3259825"}],"active":true,"type":[{"coding":[{"system":"http://terminology.hl7.org/CodeSystem/organization-type","code":"pay","display":"Payer"}]}],"name":"Blue Cross Blue Shield of Texas","telecom":[{"system":"phone","value":"(+1) 972-766-6900"}],"address":[{"use":"billing","type":"postal","line":["P.O. Box 660044"],"city":"Dallas","state":"TX","postalCode":"75266-0044","country":"USA"}]},"request":{"method":"PUT","url":"Organization/4da248b0-6e59-49b7-b80e-338aa21d299f"}},{"fullUrl":"https://madie.cms.gov/Practitioner/45fba816-ab0a-4888-bf57-a874617c09db","resource":{"resourceType":"Practitioner","id":"45fba816-ab0a-4888-bf57-a874617c09db","identifier":[{"system":"http://hl7.org/fhir/sid/us-npi","value":"123456"}],"name":[{"family":"Evil","prefix":["Dr"]}]},"request":{"method":"PUT","url":"Practitioner/45fba816-ab0a-4888-bf57-a874617c09db"}},{"fullUrl":"https://madie.cms.gov/MeasureReport/68318151-6c48-43b5-81a9-5dff4b6e463a","resource":{"resourceType":"MeasureReport","id":"68318151-6c48-43b5-81a9-5dff4b6e463a","meta":{"profile":["http://hl7.org/fhir/us/cqfmeasures/StructureDefinition/test-case-cqfm"]},"contained":[{"resourceType":"Parameters","id":"f6847e7c-ec40-45dd-b895-652370d8263f-parameters","parameter":[{"name":"subject","valueString":"ecf5375c-912c-483c-9c38-72d85df27f12"}]}],"extension":[{"url":"http://hl7.org/fhir/us/cqfmeasures/StructureDefinition/cqfm-inputParameters","valueReference":{"reference":"#f6847e7c-ec40-45dd-b895-652370d8263f-parameters"}},{"url":"http://hl7.org/fhir/us/cqfmeasures/StructureDefinition/cqfm-testCaseDescription","valueMarkdown":"Tests that Assess Gravida Rel Date is 1 Minute before the Time of Delivery Rel Date.  \n"}],"modifierExtension":[{"url":"http://hl7.org/fhir/us/cqfmeasures/StructureDefinition/cqfm-isTestCase","valueBoolean":true}],"status":"complete","type":"individual","measure":"https://madie.cms.gov/Measure/CMS334FHIRPCCesareanBirth","period":{"start":"2026-01-01","end":"2026-12-31"},"group":[{"population":[{"code":{"coding":[{"system":"http://terminology.hl7.org/CodeSystem/measure-population","code":"initial-population","display":"Initial Population"}]},"count":1},{"code":{"coding":[{"system":"http://terminology.hl7.org/CodeSystem/measure-population","code":"denominator","display":"Denominator"}]},"count":1},{"code":{"coding":[{"system":"http://terminology.hl7.org/CodeSystem/measure-population","code":"denominator-exclusion","display":"Denominator Exclusion"}]},"count":0},{"code":{"coding":[{"system":"http://terminology.hl7.org/CodeSystem/measure-population","code":"numerator","display":"Numerator"}]},"count":0}]}]},"request":{"method":"PUT","url":"MeasureReport/68318151-6c48-43b5-81a9-5dff4b6e463a"}}]}