{"resourceType":"Bundle","id":"tests-bd369a0e-1c2c-4bd8-863c-27776268efb7-bundle","type":"transaction","entry":[{"fullUrl":"https://madie.cms.gov/Patient/bd369a0e-1c2c-4bd8-863c-27776268efb7","resource":{"resourceType":"Patient","id":"bd369a0e-1c2c-4bd8-863c-27776268efb7","meta":{"profile":["http://hl7.org/fhir/us/qicore/StructureDefinition/qicore-patient"]},"text":{"status":"generated","div":"<div xmlns=\"http://www.w3.org/1999/xhtml\"><div class=\"hapiHeaderText\">AssessTimeOfDelivResultB4DelivEncStart <b>DENFAIL </b></div><table class=\"hapiPropertyTable\"><tbody><tr><td>Identifier</td><td>71189d70ba3427612f2a418107466ed1652ec9a0e76c1b9c30a1691a1d91b34c</td></tr><tr><td>Date of birth</td><td><span>14 February 1985</span></td></tr></tbody></table></div>"},"extension":[{"url":"http://hl7.org/fhir/us/core/StructureDefinition/us-core-race","extension":[{"url":"ombCategory","valueCoding":{"system":"urn:oid:2.16.840.1.113883.6.238","code":"1002-5","display":"American Indian or Alaska Native","userSelected":true}},{"url":"text","valueString":"American Indian or Alaska Native"}]},{"url":"http://hl7.org/fhir/us/core/StructureDefinition/us-core-ethnicity","extension":[{"url":"ombCategory","valueCoding":{"system":"urn:oid:2.16.840.1.113883.6.238","code":"2135-2","display":"Hispanic or Latino","userSelected":true}},{"url":"text","valueString":"Hispanic or Latino"}]}],"identifier":[{"type":{"coding":[{"system":"http://terminology.hl7.org/CodeSystem/v2-0203","code":"MR"}]},"system":"https://bonnie-fhir.healthit.gov/","value":"63487c300968f801225401ca"}],"active":true,"name":[{"use":"usual","family":"DENFail","given":["AssessTimeOfDelivResultB4DelivEncStart"]}],"gender":"female","birthDate":"1998-02-14"},"request":{"method":"PUT","url":"Patient/bd369a0e-1c2c-4bd8-863c-27776268efb7"}},{"fullUrl":"https://madie.cms.gov/Observation/37642ce6-87d9-44b8-bf77-b4f4015bf652","resource":{"resourceType":"Observation","id":"37642ce6-87d9-44b8-bf77-b4f4015bf652","meta":{"profile":["http://hl7.org/fhir/us/qicore/StructureDefinition/qicore-observation"]},"status":"final","category":[{"coding":[{"system":"http://terminology.hl7.org/CodeSystem/observation-category","code":"exam","display":"exam","userSelected":true}]}],"code":{"coding":[{"system":"http://loinc.org","code":"11996-6"}]},"subject":{"reference":"Patient/bd369a0e-1c2c-4bd8-863c-27776268efb7"},"effectiveDateTime":"2026-02-09T08:00:00.000+00:00","valueInteger":1},"request":{"method":"PUT","url":"Observation/37642ce6-87d9-44b8-bf77-b4f4015bf652"}},{"fullUrl":"https://madie.cms.gov/Observation/e9224970-1b44-4961-b31b-ac41c784f795","resource":{"resourceType":"Observation","id":"e9224970-1b44-4961-b31b-ac41c784f795","meta":{"profile":["http://hl7.org/fhir/us/qicore/StructureDefinition/qicore-observation"]},"status":"final","category":[{"coding":[{"system":"http://terminology.hl7.org/CodeSystem/observation-category","code":"exam","display":"exam","userSelected":true}]}],"code":{"coding":[{"system":"http://loinc.org","code":"93857-1"}]},"subject":{"reference":"Patient/bd369a0e-1c2c-4bd8-863c-27776268efb7"},"effectiveDateTime":"2026-11-28T21:30:00.000+00:00","valueDateTime":"2026-11-28T07:59:00+00:00"},"request":{"method":"PUT","url":"Observation/e9224970-1b44-4961-b31b-ac41c784f795"}},{"fullUrl":"https://madie.cms.gov/Encounter/aae48198-c247-4e1b-a042-b2cf8da7aac8","resource":{"resourceType":"Encounter","id":"aae48198-c247-4e1b-a042-b2cf8da7aac8","meta":{"profile":["http://hl7.org/fhir/us/qicore/StructureDefinition/qicore-encounter"]},"status":"finished","class":{"system":"http://terminology.hl7.org/CodeSystem/v3-ActCode","code":"IMP","display":"inpatient encounter"},"type":[{"coding":[{"system":"http://snomed.info/sct","code":"8715000"}]}],"subject":{"reference":"Patient/bd369a0e-1c2c-4bd8-863c-27776268efb7"},"period":{"start":"2026-11-28T08:00:00.000Z","end":"2026-11-30T08:15:00.000Z"},"length":{"value":2.0,"unit":"days"},"diagnosis":[{"condition":{"reference":"Condition/delivery-of-singleton-f83c"},"use":{"coding":[{"system":"http://snomed.info/sct","code":"169826009","display":"Delivery of Singleton"}]}},{"condition":{"reference":"Condition/45ab7dae-cee6-4c77-b06d-16bb33fefdb2"}}]},"request":{"method":"PUT","url":"Encounter/aae48198-c247-4e1b-a042-b2cf8da7aac8"}},{"fullUrl":"https://madie.cms.gov/Procedure/0f79368b-356c-4c12-9c7b-dec0edc123ef","resource":{"resourceType":"Procedure","id":"0f79368b-356c-4c12-9c7b-dec0edc123ef","meta":{"profile":["http://hl7.org/fhir/us/qicore/StructureDefinition/qicore-procedure"]},"extension":[{"url":"http://hl7.org/fhir/us/qicore/StructureDefinition/qicore-recorded","valueDateTime":"2014-04-05T09:35:00-04:00"}],"status":"completed","code":{"coding":[{"system":"http://snomed.info/sct","code":"22633006"}]},"subject":{"reference":"Patient/bd369a0e-1c2c-4bd8-863c-27776268efb7"},"performedPeriod":{"start":"2026-11-28T20:00:00.000Z","end":"2026-11-28T20:15:00.000Z"}},"request":{"method":"PUT","url":"Procedure/0f79368b-356c-4c12-9c7b-dec0edc123ef"}},{"fullUrl":"https://madie.cms.gov/Condition/45ab7dae-cee6-4c77-b06d-16bb33fefdb2","resource":{"resourceType":"Condition","id":"45ab7dae-cee6-4c77-b06d-16bb33fefdb2","meta":{"profile":["http://hl7.org/fhir/us/qicore/StructureDefinition/qicore-condition"]},"category":[{"coding":[{"system":"http://terminology.hl7.org/CodeSystem/condition-category","code":"encounter-diagnosis","display":"Encounter Diagnosis"}]}],"code":{"coding":[{"system":"http://snomed.info/sct","version":"2022-09","code":"169826009","display":"Single live birth (finding)","userSelected":true}]},"subject":{"reference":"Patient/bd369a0e-1c2c-4bd8-863c-27776268efb7"},"recordedDate":"2026-10-21T08:00:00.000+00:00"},"request":{"method":"PUT","url":"Condition/45ab7dae-cee6-4c77-b06d-16bb33fefdb2"}},{"fullUrl":"https://madie.cms.gov/Coverage/81f7597e-acfd-44fa-b20e-9eb33de7de87","resource":{"resourceType":"Coverage","id":"81f7597e-acfd-44fa-b20e-9eb33de7de87","meta":{"profile":["http://hl7.org/fhir/us/qicore/StructureDefinition/qicore-coverage"]},"status":"active","beneficiary":{"reference":"Patient/bd369a0e-1c2c-4bd8-863c-27776268efb7"},"payor":[{"reference":"Organization/3e899f33-84eb-4634-a770-a5a0bd7a80e7"}]},"request":{"method":"PUT","url":"Coverage/81f7597e-acfd-44fa-b20e-9eb33de7de87"}},{"fullUrl":"https://madie.cms.gov/Organization/814e6a4e-5d62-49a7-9b15-ec197af60cf9","resource":{"resourceType":"Organization","id":"3e899f33-84eb-4634-a770-a5a0bd7a80e7","meta":{"profile":["http://hl7.org/fhir/us/qicore/StructureDefinition/qicore-organization"]},"identifier":[{"use":"temp","system":"urn:oid:2.16.840.1.113883.4.4","value":"21-3259825"}],"active":true,"type":[{"coding":[{"system":"http://terminology.hl7.org/CodeSystem/organization-type","code":"pay","display":"Payer"}]}],"name":"Blue Cross Blue Shield of Texas","telecom":[{"system":"phone","value":"(+1) 972-766-6900"}],"address":[{"use":"billing","type":"postal","line":["P.O. Box 660044"],"city":"Dallas","state":"TX","postalCode":"75266-0044","country":"USA"}]},"request":{"method":"PUT","url":"Organization/3e899f33-84eb-4634-a770-a5a0bd7a80e7"}},{"fullUrl":"https://madie.cms.gov/Practitioner/a6f9c71a-efbb-473b-ad00-e075390a109c","resource":{"resourceType":"Practitioner","id":"a6f9c71a-efbb-473b-ad00-e075390a109c","identifier":[{"system":"http://hl7.org/fhir/sid/us-npi","value":"123456"}],"name":[{"family":"Evil","prefix":["Dr"]}]},"request":{"method":"PUT","url":"Practitioner/a6f9c71a-efbb-473b-ad00-e075390a109c"}},{"fullUrl":"https://madie.cms.gov/MeasureReport/45262a80-2515-4d94-9591-86585a53f2dd","resource":{"resourceType":"MeasureReport","id":"45262a80-2515-4d94-9591-86585a53f2dd","meta":{"profile":["http://hl7.org/fhir/us/cqfmeasures/StructureDefinition/test-case-cqfm"]},"contained":[{"resourceType":"Parameters","id":"e3fb7475-d8ec-4a6b-ace1-0385d1c32f05-parameters","parameter":[{"name":"subject","valueString":"bd369a0e-1c2c-4bd8-863c-27776268efb7"}]}],"extension":[{"url":"http://hl7.org/fhir/us/cqfmeasures/StructureDefinition/cqfm-inputParameters","valueReference":{"reference":"#e3fb7475-d8ec-4a6b-ace1-0385d1c32f05-parameters"}},{"url":"http://hl7.org/fhir/us/cqfmeasures/StructureDefinition/cqfm-testCaseDescription","valueMarkdown":"Passes IP, Gravida 1(auth 42 weeks);  Proc is not Cesarean Birth. LastTimeOfDelivery result before Delivery Encounter Start Time.   \n"}],"modifierExtension":[{"url":"http://hl7.org/fhir/us/cqfmeasures/StructureDefinition/cqfm-isTestCase","valueBoolean":true}],"status":"complete","type":"individual","measure":"https://madie.cms.gov/Measure/CMS334FHIRPCCesareanBirth","period":{"start":"2026-01-01","end":"2026-12-31"},"group":[{"population":[{"code":{"coding":[{"system":"http://terminology.hl7.org/CodeSystem/measure-population","code":"initial-population","display":"Initial Population"}]},"count":1},{"code":{"coding":[{"system":"http://terminology.hl7.org/CodeSystem/measure-population","code":"denominator","display":"Denominator"}]},"count":0},{"code":{"coding":[{"system":"http://terminology.hl7.org/CodeSystem/measure-population","code":"denominator-exclusion","display":"Denominator Exclusion"}]},"count":0},{"code":{"coding":[{"system":"http://terminology.hl7.org/CodeSystem/measure-population","code":"numerator","display":"Numerator"}]},"count":0}]}]},"request":{"method":"PUT","url":"MeasureReport/45262a80-2515-4d94-9591-86585a53f2dd"}}]}