{"resourceType":"Bundle","id":"tests-55667be7-f623-43bd-889f-9ca7f28252d1-bundle","type":"transaction","entry":[{"fullUrl":"https://madie.cms.gov/Patient/55667be7-f623-43bd-889f-9ca7f28252d1","resource":{"resourceType":"Patient","id":"55667be7-f623-43bd-889f-9ca7f28252d1","meta":{"profile":["http://hl7.org/fhir/us/qicore/StructureDefinition/qicore-patient"]},"text":{"status":"generated","div":"<div xmlns=\"http://www.w3.org/1999/xhtml\"><div class=\"hapiHeaderText\">AssessPreTerm0RelDateTime42wksand1minB4DelivDateTime <b>DENFAIL </b></div><table class=\"hapiPropertyTable\"><tbody><tr><td>Identifier</td><td>422c2dba3b85e09cc57593562310cdd8d8e31fe2380a4241b6ce60d5e444f4c4</td></tr><tr><td>Date of birth</td><td><span>14 February 1985</span></td></tr></tbody></table></div>"},"extension":[{"url":"http://hl7.org/fhir/us/core/StructureDefinition/us-core-race","extension":[{"url":"ombCategory","valueCoding":{"system":"urn:oid:2.16.840.1.113883.6.238","code":"1002-5","display":"American Indian or Alaska Native","userSelected":true}},{"url":"text","valueString":"American Indian or Alaska Native"}]},{"url":"http://hl7.org/fhir/us/core/StructureDefinition/us-core-ethnicity","extension":[{"url":"ombCategory","valueCoding":{"system":"urn:oid:2.16.840.1.113883.6.238","code":"2135-2","display":"Hispanic or Latino","userSelected":true}},{"url":"text","valueString":"Hispanic or Latino"}]}],"identifier":[{"type":{"coding":[{"system":"http://terminology.hl7.org/CodeSystem/v2-0203","code":"MR"}]},"system":"https://bonnie-fhir.healthit.gov/","value":"63487c2f0968f80122540193"}],"active":true,"name":[{"use":"usual","family":"DENFail","given":["AssessPreTerm0RelDateTime42wksand1minB4DelivDateTime"]}],"gender":"female","birthDate":"1998-02-14"},"request":{"method":"PUT","url":"Patient/55667be7-f623-43bd-889f-9ca7f28252d1"}},{"fullUrl":"https://madie.cms.gov/Observation/e3ec37df-dee6-4410-8611-806f6eee7cc1","resource":{"resourceType":"Observation","id":"e3ec37df-dee6-4410-8611-806f6eee7cc1","meta":{"profile":["http://hl7.org/fhir/us/qicore/StructureDefinition/qicore-observation"]},"status":"final","category":[{"coding":[{"system":"http://terminology.hl7.org/CodeSystem/observation-category","code":"exam","display":"exam","userSelected":true}]}],"code":{"coding":[{"system":"http://loinc.org","code":"11637-6"}]},"subject":{"reference":"Patient/55667be7-f623-43bd-889f-9ca7f28252d1"},"effectiveDateTime":"2025-08-11T19:59:00.000+00:00","valueInteger":0},"request":{"method":"PUT","url":"Observation/e3ec37df-dee6-4410-8611-806f6eee7cc1"}},{"fullUrl":"https://madie.cms.gov/Observation/5ce86bc5-3bb1-4ac5-b6af-dada9b310c42","resource":{"resourceType":"Observation","id":"5ce86bc5-3bb1-4ac5-b6af-dada9b310c42","meta":{"profile":["http://hl7.org/fhir/us/qicore/StructureDefinition/qicore-observation"]},"status":"final","category":[{"coding":[{"system":"http://terminology.hl7.org/CodeSystem/observation-category","code":"exam","display":"exam","userSelected":true}]}],"code":{"coding":[{"system":"http://loinc.org","code":"11639-2"}]},"subject":{"reference":"Patient/55667be7-f623-43bd-889f-9ca7f28252d1"},"effectiveDateTime":"2025-09-19T09:00:00.000+00:00","valueInteger":0},"request":{"method":"PUT","url":"Observation/5ce86bc5-3bb1-4ac5-b6af-dada9b310c42"}},{"fullUrl":"https://madie.cms.gov/Observation/a1ae82eb-5acf-4fa9-8393-27899daf9fd2","resource":{"resourceType":"Observation","id":"a1ae82eb-5acf-4fa9-8393-27899daf9fd2","meta":{"profile":["http://hl7.org/fhir/us/qicore/StructureDefinition/qicore-observation"]},"status":"final","category":[{"coding":[{"system":"http://terminology.hl7.org/CodeSystem/observation-category","code":"exam","display":"exam","userSelected":true}]}],"code":{"coding":[{"system":"http://loinc.org","code":"11884-4"}]},"subject":{"reference":"Patient/55667be7-f623-43bd-889f-9ca7f28252d1"},"effectiveDateTime":"2026-06-08T20:00:00.000+00:00","valueQuantity":{"value":37,"system":"http://unitsofmeasure.org","code":"wk"}},"request":{"method":"PUT","url":"Observation/a1ae82eb-5acf-4fa9-8393-27899daf9fd2"}},{"fullUrl":"https://madie.cms.gov/Observation/94f4eb08-b32d-48e8-ab8e-c2283077246f","resource":{"resourceType":"Observation","id":"94f4eb08-b32d-48e8-ab8e-c2283077246f","meta":{"profile":["http://hl7.org/fhir/us/qicore/StructureDefinition/qicore-observation"]},"status":"final","category":[{"coding":[{"system":"http://terminology.hl7.org/CodeSystem/observation-category","code":"exam","display":"exam","userSelected":true}]}],"code":{"coding":[{"system":"http://loinc.org","code":"93857-1"}]},"subject":{"reference":"Patient/55667be7-f623-43bd-889f-9ca7f28252d1"},"effectiveDateTime":"2026-06-08T20:00:00.000+00:00","valueDateTime":"2026-06-08T20:00:00+00:00"},"request":{"method":"PUT","url":"Observation/94f4eb08-b32d-48e8-ab8e-c2283077246f"}},{"fullUrl":"https://madie.cms.gov/Encounter/fd0e9cb2-5fe1-4c6b-9c11-164631c4c24c","resource":{"resourceType":"Encounter","id":"fd0e9cb2-5fe1-4c6b-9c11-164631c4c24c","meta":{"profile":["http://hl7.org/fhir/us/qicore/StructureDefinition/qicore-encounter"]},"status":"finished","class":{"system":"http://terminology.hl7.org/CodeSystem/v3-ActCode","code":"IMP","display":"inpatient encounter"},"type":[{"coding":[{"system":"http://snomed.info/sct","code":"8715000"}]}],"subject":{"reference":"Patient/55667be7-f623-43bd-889f-9ca7f28252d1"},"period":{"start":"2026-06-08T08:00:00.000Z","end":"2026-06-10T08:15:00.000Z"},"length":{"value":2,"unit":"days"},"diagnosis":[{"condition":{"reference":"Condition/delivery-of-singleton-f83c"},"use":{"coding":[{"system":"http://snomed.info/sct","code":"169826009","display":"Delivery of Singleton"}]}},{"condition":{"reference":"Condition/1abb2ff4-7e83-4230-a9b1-278e5a1db315"}}]},"request":{"method":"PUT","url":"Encounter/fd0e9cb2-5fe1-4c6b-9c11-164631c4c24c"}},{"fullUrl":"https://madie.cms.gov/Procedure/3315fe9c-9c53-4a6e-ada7-be0eba88990e","resource":{"resourceType":"Procedure","id":"3315fe9c-9c53-4a6e-ada7-be0eba88990e","meta":{"profile":["http://hl7.org/fhir/us/qicore/StructureDefinition/qicore-procedure"]},"extension":[{"url":"http://hl7.org/fhir/us/qicore/StructureDefinition/qicore-recorded","valueDateTime":"2014-04-05T09:35:00-04:00"}],"status":"completed","code":{"coding":[{"system":"http://www.cms.gov/Medicare/Coding/ICD10","code":"10D00Z0"},{"system":"http://snomed.info/sct","code":"4504004"},{"system":"http://www.icd10data.com/icd10pcs","code":"10D00Z0","userSelected":true}]},"subject":{"reference":"Patient/55667be7-f623-43bd-889f-9ca7f28252d1"},"performedPeriod":{"start":"2026-06-08T20:00:00.000Z","end":"2026-06-08T20:15:00.000Z"}},"request":{"method":"PUT","url":"Procedure/3315fe9c-9c53-4a6e-ada7-be0eba88990e"}},{"fullUrl":"https://madie.cms.gov/Condition/1abb2ff4-7e83-4230-a9b1-278e5a1db315","resource":{"resourceType":"Condition","id":"1abb2ff4-7e83-4230-a9b1-278e5a1db315","meta":{"profile":["http://hl7.org/fhir/us/qicore/StructureDefinition/qicore-condition"]},"category":[{"coding":[{"system":"http://terminology.hl7.org/CodeSystem/condition-category","code":"encounter-diagnosis","display":"Encounter Diagnosis"}]}],"code":{"coding":[{"system":"http://snomed.info/sct","version":"2022-09","code":"169826009","display":"Single live birth (finding)","userSelected":true}]},"subject":{"reference":"Patient/55667be7-f623-43bd-889f-9ca7f28252d1"},"recordedDate":"2026-10-21T08:00:00.000+00:00"},"request":{"method":"PUT","url":"Condition/1abb2ff4-7e83-4230-a9b1-278e5a1db315"}},{"fullUrl":"https://madie.cms.gov/Coverage/40dd9ef8-45d3-47d7-8a77-3c1f32b9f5ca","resource":{"resourceType":"Coverage","id":"40dd9ef8-45d3-47d7-8a77-3c1f32b9f5ca","meta":{"profile":["http://hl7.org/fhir/us/qicore/StructureDefinition/qicore-coverage"]},"status":"active","beneficiary":{"reference":"Patient/55667be7-f623-43bd-889f-9ca7f28252d1"},"payor":[{"reference":"Organization/890316dc-a4ad-43b4-ba6f-9fb9e6eca282"}]},"request":{"method":"PUT","url":"Coverage/40dd9ef8-45d3-47d7-8a77-3c1f32b9f5ca"}},{"fullUrl":"https://madie.cms.gov/Organization/ad70f57a-9785-4ceb-89ef-81c52b557bad","resource":{"resourceType":"Organization","id":"890316dc-a4ad-43b4-ba6f-9fb9e6eca282","meta":{"profile":["http://hl7.org/fhir/us/qicore/StructureDefinition/qicore-organization"]},"identifier":[{"use":"temp","system":"urn:oid:2.16.840.1.113883.4.4","value":"21-3259825"}],"active":true,"type":[{"coding":[{"system":"http://terminology.hl7.org/CodeSystem/organization-type","code":"pay","display":"Payer"}]}],"name":"Blue Cross Blue Shield of Texas","telecom":[{"system":"phone","value":"(+1) 972-766-6900"}],"address":[{"use":"billing","type":"postal","line":["P.O. Box 660044"],"city":"Dallas","state":"TX","postalCode":"75266-0044","country":"USA"}]},"request":{"method":"PUT","url":"Organization/890316dc-a4ad-43b4-ba6f-9fb9e6eca282"}},{"fullUrl":"https://madie.cms.gov/Practitioner/1df5a154-486e-4732-bc69-2041cb8c36a3","resource":{"resourceType":"Practitioner","id":"1df5a154-486e-4732-bc69-2041cb8c36a3","identifier":[{"system":"http://hl7.org/fhir/sid/us-npi","value":"123456"}],"name":[{"family":"Evil","prefix":["Dr"]}]},"request":{"method":"PUT","url":"Practitioner/1df5a154-486e-4732-bc69-2041cb8c36a3"}},{"fullUrl":"https://madie.cms.gov/MeasureReport/457b4f04-a9c4-4afd-b360-3aebba4526e8","resource":{"resourceType":"MeasureReport","id":"457b4f04-a9c4-4afd-b360-3aebba4526e8","meta":{"profile":["http://hl7.org/fhir/us/cqfmeasures/StructureDefinition/test-case-cqfm"]},"contained":[{"resourceType":"Parameters","id":"964b91f3-2301-4a9e-942f-7ada1dc2d75d-parameters","parameter":[{"name":"subject","valueString":"55667be7-f623-43bd-889f-9ca7f28252d1"}]}],"extension":[{"url":"http://hl7.org/fhir/us/cqfmeasures/StructureDefinition/cqfm-inputParameters","valueReference":{"reference":"#964b91f3-2301-4a9e-942f-7ada1dc2d75d-parameters"}},{"url":"http://hl7.org/fhir/us/cqfmeasures/StructureDefinition/cqfm-testCaseDescription","valueMarkdown":"Preterm Births=0, relevant date  42weeks  and 1 min before Asse delivery date/time\n"}],"modifierExtension":[{"url":"http://hl7.org/fhir/us/cqfmeasures/StructureDefinition/cqfm-isTestCase","valueBoolean":true}],"status":"complete","type":"individual","measure":"https://madie.cms.gov/Measure/CMS334FHIRPCCesareanBirth","period":{"start":"2026-01-01","end":"2026-12-31"},"group":[{"population":[{"code":{"coding":[{"system":"http://terminology.hl7.org/CodeSystem/measure-population","code":"initial-population","display":"Initial Population"}]},"count":1},{"code":{"coding":[{"system":"http://terminology.hl7.org/CodeSystem/measure-population","code":"denominator","display":"Denominator"}]},"count":0},{"code":{"coding":[{"system":"http://terminology.hl7.org/CodeSystem/measure-population","code":"denominator-exclusion","display":"Denominator Exclusion"}]},"count":0},{"code":{"coding":[{"system":"http://terminology.hl7.org/CodeSystem/measure-population","code":"numerator","display":"Numerator"}]},"count":0}]}]},"request":{"method":"PUT","url":"MeasureReport/457b4f04-a9c4-4afd-b360-3aebba4526e8"}}]}