{"resourceType":"Bundle","id":"tests-82f21ead-f571-4c37-9f50-805db63f44c6-bundle","type":"transaction","entry":[{"fullUrl":"https://madie.cms.gov/Patient/82f21ead-f571-4c37-9f50-805db63f44c6","resource":{"resourceType":"Patient","id":"82f21ead-f571-4c37-9f50-805db63f44c6","meta":{"profile":["http://hl7.org/fhir/us/qicore/StructureDefinition/qicore-patient"]},"text":{"status":"generated","div":"<div xmlns=\"http://www.w3.org/1999/xhtml\"><div class=\"hapiHeaderText\">EncDxPlacentaPrevia <b>DENEXPASS </b></div><table class=\"hapiPropertyTable\"><tbody><tr><td>Identifier</td><td>26ae2095ae359d33c45002ef417f38a5e4f6a61da3ea75d0332f68a4cb93137e</td></tr><tr><td>Date of birth</td><td><span>14 February 1985</span></td></tr></tbody></table></div>"},"extension":[{"url":"http://hl7.org/fhir/us/core/StructureDefinition/us-core-race","extension":[{"url":"ombCategory","valueCoding":{"system":"urn:oid:2.16.840.1.113883.6.238","code":"1002-5","display":"American Indian or Alaska Native","userSelected":true}},{"url":"text","valueString":"American Indian or Alaska Native"}]},{"url":"http://hl7.org/fhir/us/core/StructureDefinition/us-core-ethnicity","extension":[{"url":"ombCategory","valueCoding":{"system":"urn:oid:2.16.840.1.113883.6.238","code":"2135-2","display":"Hispanic or Latino","userSelected":true}},{"url":"text","valueString":"Hispanic or Latino"}]}],"identifier":[{"type":{"coding":[{"system":"http://terminology.hl7.org/CodeSystem/v2-0203","code":"MR"}]},"system":"https://bonnie-fhir.healthit.gov/","value":"63487c2e0968f8012254018b"}],"active":true,"name":[{"use":"usual","family":"DenPass","given":["DxCodeOf37Weeks"]}],"gender":"female","birthDate":"1998-02-14"},"request":{"method":"PUT","url":"Patient/82f21ead-f571-4c37-9f50-805db63f44c6"}},{"fullUrl":"https://madie.cms.gov/Observation/53ef12c3-2a36-41e4-842c-3f2d59279c43","resource":{"resourceType":"Observation","id":"53ef12c3-2a36-41e4-842c-3f2d59279c43","meta":{"profile":["http://hl7.org/fhir/us/qicore/StructureDefinition/qicore-observation"]},"status":"final","category":[{"coding":[{"system":"http://terminology.hl7.org/CodeSystem/observation-category","code":"exam","display":"exam","userSelected":true}]}],"code":{"coding":[{"system":"http://loinc.org","code":"11996-6"}]},"subject":{"reference":"Patient/82f21ead-f571-4c37-9f50-805db63f44c6"},"effectiveDateTime":"2026-06-08T08:00:00.000+00:00","valueInteger":1},"request":{"method":"PUT","url":"Observation/53ef12c3-2a36-41e4-842c-3f2d59279c43"}},{"fullUrl":"https://madie.cms.gov/Observation/b2641367-eab4-45c8-911e-7652a2371822","resource":{"resourceType":"Observation","id":"b2641367-eab4-45c8-911e-7652a2371822","meta":{"profile":["http://hl7.org/fhir/us/qicore/StructureDefinition/qicore-observation"]},"status":"final","category":[{"coding":[{"system":"http://terminology.hl7.org/CodeSystem/observation-category","code":"exam","display":"exam","userSelected":true}]}],"code":{"coding":[{"system":"http://loinc.org","code":"93857-1"}]},"subject":{"reference":"Patient/82f21ead-f571-4c37-9f50-805db63f44c6"},"effectiveDateTime":"2026-06-08T20:00:00.000+00:00","valueDateTime":"2026-06-08T20:00:00+00:00"},"request":{"method":"PUT","url":"Observation/b2641367-eab4-45c8-911e-7652a2371822"}},{"fullUrl":"https://madie.cms.gov/Encounter/0026fbdc-2c9d-467c-b7b9-4235f4d739a4","resource":{"resourceType":"Encounter","id":"0026fbdc-2c9d-467c-b7b9-4235f4d739a4","meta":{"profile":["http://hl7.org/fhir/us/qicore/StructureDefinition/qicore-encounter"]},"status":"finished","class":{"system":"http://terminology.hl7.org/CodeSystem/v3-ActCode","code":"IMP","display":"inpatient encounter"},"type":[{"coding":[{"system":"http://snomed.info/sct","code":"8715000"}]}],"subject":{"reference":"Patient/82f21ead-f571-4c37-9f50-805db63f44c6"},"period":{"start":"2026-06-08T08:00:00.000Z","end":"2026-06-10T08:15:00.000Z"},"diagnosis":[{"condition":{"reference":"Condition/8a36203f-6dee-483b-b85b-2371ce5ee02f"}},{"condition":{"reference":"Condition/56af1127-b064-4307-a29e-29eb620bb7a9"}}]},"request":{"method":"PUT","url":"Encounter/0026fbdc-2c9d-467c-b7b9-4235f4d739a4"}},{"fullUrl":"https://madie.cms.gov/Procedure/303d1be2-1235-48b2-9f1a-9f6e4852a2b8","resource":{"resourceType":"Procedure","id":"303d1be2-1235-48b2-9f1a-9f6e4852a2b8","meta":{"profile":["http://hl7.org/fhir/us/qicore/StructureDefinition/qicore-procedure"]},"extension":[{"url":"http://hl7.org/fhir/us/qicore/StructureDefinition/qicore-recorded","valueDateTime":"2014-04-05T09:35:00-04:00"}],"status":"completed","code":{"coding":[{"system":"http://snomed.info/sct","code":"4504004"}]},"subject":{"reference":"Patient/82f21ead-f571-4c37-9f50-805db63f44c6"},"performedPeriod":{"start":"2026-06-08T20:00:00.000Z","end":"2026-06-18T20:00:00.000Z"}},"request":{"method":"PUT","url":"Procedure/303d1be2-1235-48b2-9f1a-9f6e4852a2b8"}},{"fullUrl":"https://madie.cms.gov/Condition/8a36203f-6dee-483b-b85b-2371ce5ee02f","resource":{"resourceType":"Condition","id":"8a36203f-6dee-483b-b85b-2371ce5ee02f","meta":{"profile":["http://hl7.org/fhir/us/qicore/StructureDefinition/qicore-condition"]},"category":[{"coding":[{"system":"http://terminology.hl7.org/CodeSystem/condition-category","code":"encounter-diagnosis","display":"Encounter Diagnosis"}]}],"code":{"coding":[{"system":"http://snomed.info/sct","version":"2022-09","code":"169826009","display":"Single live birth (finding)","userSelected":true}]},"subject":{"reference":"Patient/82f21ead-f571-4c37-9f50-805db63f44c6"},"recordedDate":"2026-10-17T08:00:00.000+00:00"},"request":{"method":"PUT","url":"Condition/8a36203f-6dee-483b-b85b-2371ce5ee02f"}},{"fullUrl":"https://madie.cms.gov/Condition/56af1127-b064-4307-a29e-29eb620bb7a9","resource":{"resourceType":"Condition","id":"56af1127-b064-4307-a29e-29eb620bb7a9","meta":{"profile":["http://hl7.org/fhir/us/qicore/StructureDefinition/qicore-condition"]},"category":[{"coding":[{"system":"http://terminology.hl7.org/CodeSystem/condition-category","code":"encounter-diagnosis","display":"Encounter Diagnosis"}]}],"code":{"coding":[{"system":"http://snomed.info/sct","version":"2022-09","code":"43697006","display":"Gestation period, 37 weeks (finding)","userSelected":true}]},"subject":{"reference":"Patient/82f21ead-f571-4c37-9f50-805db63f44c6"},"recordedDate":"2026-10-17T08:00:00.000+00:00"},"request":{"method":"PUT","url":"Condition/56af1127-b064-4307-a29e-29eb620bb7a9"}},{"fullUrl":"https://madie.cms.gov/Coverage/043db73a-5677-433f-a8ee-b99aa32b47b3","resource":{"resourceType":"Coverage","id":"043db73a-5677-433f-a8ee-b99aa32b47b3","meta":{"profile":["http://hl7.org/fhir/us/qicore/StructureDefinition/qicore-coverage"]},"status":"active","beneficiary":{"reference":"Patient/82f21ead-f571-4c37-9f50-805db63f44c6"},"payor":[{"reference":"Organization/3778262e-e084-4bb5-9a47-1a144735f786"}]},"request":{"method":"PUT","url":"Coverage/043db73a-5677-433f-a8ee-b99aa32b47b3"}},{"fullUrl":"https://madie.cms.gov/Organization/521dc9ab-6458-4906-9267-f5d1293c0eaf","resource":{"resourceType":"Organization","id":"3778262e-e084-4bb5-9a47-1a144735f786","meta":{"profile":["http://hl7.org/fhir/us/qicore/StructureDefinition/qicore-organization"]},"identifier":[{"use":"temp","system":"urn:oid:2.16.840.1.113883.4.4","value":"21-3259825"}],"active":true,"type":[{"coding":[{"system":"http://terminology.hl7.org/CodeSystem/organization-type","code":"pay","display":"Payer"}]}],"name":"Blue Cross Blue Shield of Texas","telecom":[{"system":"phone","value":"(+1) 972-766-6900"}],"address":[{"use":"billing","type":"postal","line":["P.O. Box 660044"],"city":"Dallas","state":"TX","postalCode":"75266-0044","country":"USA"}]},"request":{"method":"PUT","url":"Organization/3778262e-e084-4bb5-9a47-1a144735f786"}},{"fullUrl":"https://madie.cms.gov/Practitioner/b745a104-5c5b-4d85-afd2-3bd28fc0610b","resource":{"resourceType":"Practitioner","id":"b745a104-5c5b-4d85-afd2-3bd28fc0610b","identifier":[{"system":"http://hl7.org/fhir/sid/us-npi","value":"123456"}],"name":[{"family":"Evil","prefix":["Dr"]}]},"request":{"method":"PUT","url":"Practitioner/b745a104-5c5b-4d85-afd2-3bd28fc0610b"}},{"fullUrl":"https://madie.cms.gov/MeasureReport/b7f6e307-36cd-431d-8360-c846e1543825","resource":{"resourceType":"MeasureReport","id":"b7f6e307-36cd-431d-8360-c846e1543825","meta":{"profile":["http://hl7.org/fhir/us/cqfmeasures/StructureDefinition/test-case-cqfm"]},"contained":[{"resourceType":"Parameters","id":"e59f1985-0873-46be-b2c4-3c3a8c2ece3f-parameters","parameter":[{"name":"subject","valueString":"82f21ead-f571-4c37-9f50-805db63f44c6"}]}],"extension":[{"url":"http://hl7.org/fhir/us/cqfmeasures/StructureDefinition/cqfm-inputParameters","valueReference":{"reference":"#e59f1985-0873-46be-b2c4-3c3a8c2ece3f-parameters"}},{"url":"http://hl7.org/fhir/us/cqfmeasures/StructureDefinition/cqfm-testCaseDescription","valueMarkdown":"CGA and EGA are not present.  Diagnosis code of 37 weeks will pass Denom."}],"modifierExtension":[{"url":"http://hl7.org/fhir/us/cqfmeasures/StructureDefinition/cqfm-isTestCase","valueBoolean":true}],"status":"complete","type":"individual","measure":"https://madie.cms.gov/Measure/CMS334FHIRPCCesareanBirth","period":{"start":"2026-01-01","end":"2026-12-31"},"group":[{"population":[{"code":{"coding":[{"system":"http://terminology.hl7.org/CodeSystem/measure-population","code":"initial-population","display":"Initial Population"}]},"count":1},{"code":{"coding":[{"system":"http://terminology.hl7.org/CodeSystem/measure-population","code":"denominator","display":"Denominator"}]},"count":1},{"code":{"coding":[{"system":"http://terminology.hl7.org/CodeSystem/measure-population","code":"denominator-exclusion","display":"Denominator Exclusion"}]},"count":0},{"code":{"coding":[{"system":"http://terminology.hl7.org/CodeSystem/measure-population","code":"numerator","display":"Numerator"}]},"count":0}]}]},"request":{"method":"PUT","url":"MeasureReport/b7f6e307-36cd-431d-8360-c846e1543825"}}]}