{"resourceType":"Bundle","id":"tests-df8636f3-8f53-4835-b81c-ef707f527d50-bundle","type":"transaction","entry":[{"fullUrl":"https://madie.cms.gov/Patient/df8636f3-8f53-4835-b81c-ef707f527d50","resource":{"resourceType":"Patient","id":"df8636f3-8f53-4835-b81c-ef707f527d50","meta":{"profile":["http://hl7.org/fhir/us/qicore/StructureDefinition/qicore-patient"]},"text":{"status":"generated","div":"<div xmlns=\"http://www.w3.org/1999/xhtml\"><div class=\"hapiHeaderText\">AssessPerfNotAbnPres <b>DENEXFAIL </b></div><table class=\"hapiPropertyTable\"><tbody><tr><td>Identifier</td><td>db09244543fe550232b604cb7d87decbeb851047882e641e3fe736fdce398a0a</td></tr><tr><td>Date of birth</td><td><span>14 February 1985</span></td></tr></tbody></table></div>"},"extension":[{"url":"http://hl7.org/fhir/us/core/StructureDefinition/us-core-race","extension":[{"url":"ombCategory","valueCoding":{"system":"urn:oid:2.16.840.1.113883.6.238","code":"1002-5","display":"American Indian or Alaska Native","userSelected":true}},{"url":"text","valueString":"American Indian or Alaska Native"}]},{"url":"http://hl7.org/fhir/us/core/StructureDefinition/us-core-ethnicity","extension":[{"url":"ombCategory","valueCoding":{"system":"urn:oid:2.16.840.1.113883.6.238","code":"2135-2","display":"Hispanic or Latino","userSelected":true}},{"url":"text","valueString":"Hispanic or Latino"}]}],"identifier":[{"type":{"coding":[{"system":"http://terminology.hl7.org/CodeSystem/v2-0203","code":"MR"}]},"system":"https://bonnie-fhir.healthit.gov/","value":"63487c300968f801225401c0"}],"active":true,"name":[{"use":"usual","family":"DENEXFail","given":["AssessPerfNotAbnPres"]}],"gender":"female","birthDate":"1998-02-14"},"request":{"method":"PUT","url":"Patient/df8636f3-8f53-4835-b81c-ef707f527d50"}},{"fullUrl":"https://madie.cms.gov/Observation/ec1989a0-182f-47ef-af63-c6eb4d98bfb2","resource":{"resourceType":"Observation","id":"ec1989a0-182f-47ef-af63-c6eb4d98bfb2","meta":{"profile":["http://hl7.org/fhir/us/qicore/StructureDefinition/qicore-observation"]},"status":"final","category":[{"coding":[{"system":"http://terminology.hl7.org/CodeSystem/observation-category","code":"exam","display":"exam","userSelected":true}]}],"code":{"coding":[{"system":"http://loinc.org","code":"11996-6"}]},"subject":{"reference":"Patient/df8636f3-8f53-4835-b81c-ef707f527d50"},"effectiveDateTime":"2026-06-08T08:00:00.000+00:00","valueInteger":1},"request":{"method":"PUT","url":"Observation/ec1989a0-182f-47ef-af63-c6eb4d98bfb2"}},{"fullUrl":"https://madie.cms.gov/Observation/3943bf5c-6c39-4474-bb1f-1db1c5ea3c1b","resource":{"resourceType":"Observation","id":"3943bf5c-6c39-4474-bb1f-1db1c5ea3c1b","meta":{"profile":["http://hl7.org/fhir/us/qicore/StructureDefinition/qicore-observation"]},"status":"final","category":[{"coding":[{"system":"http://terminology.hl7.org/CodeSystem/observation-category","code":"exam","display":"exam","userSelected":true}]}],"code":{"coding":[{"system":"http://loinc.org","code":"11884-4"}]},"subject":{"reference":"Patient/df8636f3-8f53-4835-b81c-ef707f527d50"},"effectiveDateTime":"2026-06-08T08:00:00.000+00:00","valueQuantity":{"value":43,"system":"http://unitsofmeasure.org","code":"wk"}},"request":{"method":"PUT","url":"Observation/3943bf5c-6c39-4474-bb1f-1db1c5ea3c1b"}},{"fullUrl":"https://madie.cms.gov/Observation/cf7f7c91-b3fc-4126-a6ee-7832b856ade2","resource":{"resourceType":"Observation","id":"cf7f7c91-b3fc-4126-a6ee-7832b856ade2","meta":{"profile":["http://hl7.org/fhir/us/qicore/StructureDefinition/qicore-observation"]},"status":"final","category":[{"coding":[{"system":"http://terminology.hl7.org/CodeSystem/observation-category","code":"exam","display":"exam","userSelected":true}]}],"code":{"coding":[{"system":"http://loinc.org","code":"93857-1"}]},"subject":{"reference":"Patient/df8636f3-8f53-4835-b81c-ef707f527d50"},"effectiveDateTime":"2026-06-08T20:00:00.000+00:00","valueDateTime":"2026-06-08T20:00:00+00:00"},"request":{"method":"PUT","url":"Observation/cf7f7c91-b3fc-4126-a6ee-7832b856ade2"}},{"fullUrl":"https://madie.cms.gov/Observation/4e3a52fb-c749-42eb-895f-f224d61a0ef5","resource":{"resourceType":"Observation","id":"4e3a52fb-c749-42eb-895f-f224d61a0ef5","meta":{"profile":["http://hl7.org/fhir/us/qicore/StructureDefinition/qicore-observation"]},"status":"final","category":[{"coding":[{"system":"http://terminology.hl7.org/CodeSystem/observation-category","code":"exam","display":"exam","userSelected":true}]}],"code":{"coding":[{"system":"http://snomed.info/sct","code":"9999999"}]},"subject":{"reference":"Patient/df8636f3-8f53-4835-b81c-ef707f527d50"},"effectiveDateTime":"2026-06-08T08:00:00.000+00:00"},"request":{"method":"PUT","url":"Observation/4e3a52fb-c749-42eb-895f-f224d61a0ef5"}},{"fullUrl":"https://madie.cms.gov/Encounter/ff279edb-1f7f-4ed8-86c3-b012e0b1d777","resource":{"resourceType":"Encounter","id":"ff279edb-1f7f-4ed8-86c3-b012e0b1d777","meta":{"profile":["http://hl7.org/fhir/us/qicore/StructureDefinition/qicore-encounter"]},"status":"finished","class":{"system":"http://terminology.hl7.org/CodeSystem/v3-ActCode","code":"IMP","display":"inpatient encounter"},"type":[{"coding":[{"system":"http://snomed.info/sct","code":"8715000"}]}],"subject":{"reference":"Patient/df8636f3-8f53-4835-b81c-ef707f527d50"},"period":{"start":"2026-06-08T08:00:00.000Z","end":"2026-06-10T08:15:00.000Z"},"diagnosis":[{"condition":{"reference":"Condition/32bac93a-9e27-476d-b019-e30255c17a7f"}}]},"request":{"method":"PUT","url":"Encounter/ff279edb-1f7f-4ed8-86c3-b012e0b1d777"}},{"fullUrl":"https://madie.cms.gov/Procedure/326af94b-c77d-4432-902e-b4081f940ec8","resource":{"resourceType":"Procedure","id":"326af94b-c77d-4432-902e-b4081f940ec8","meta":{"profile":["http://hl7.org/fhir/us/qicore/StructureDefinition/qicore-procedure"]},"extension":[{"url":"http://hl7.org/fhir/us/qicore/StructureDefinition/qicore-recorded","valueDateTime":"2014-04-05T09:35:00-04:00"}],"status":"completed","code":{"coding":[{"system":"http://www.cms.gov/Medicare/Coding/ICD10","code":"10D00Z0"},{"system":"http://snomed.info/sct","code":"4504004"}]},"subject":{"reference":"Patient/df8636f3-8f53-4835-b81c-ef707f527d50"},"performedPeriod":{"start":"2026-06-08T20:00:00.000Z","end":"2026-06-18T20:00:00.000Z"}},"request":{"method":"PUT","url":"Procedure/326af94b-c77d-4432-902e-b4081f940ec8"}},{"fullUrl":"https://madie.cms.gov/Condition/32bac93a-9e27-476d-b019-e30255c17a7f","resource":{"resourceType":"Condition","id":"32bac93a-9e27-476d-b019-e30255c17a7f","meta":{"profile":["http://hl7.org/fhir/us/qicore/StructureDefinition/qicore-condition"]},"category":[{"coding":[{"system":"http://terminology.hl7.org/CodeSystem/condition-category","code":"encounter-diagnosis","display":"Encounter Diagnosis"}]}],"code":{"coding":[{"system":"http://snomed.info/sct","version":"2022-09","code":"169826009","display":"Single live birth (finding)","userSelected":true}]},"subject":{"reference":"Patient/df8636f3-8f53-4835-b81c-ef707f527d50"},"recordedDate":"2026-10-17T08:00:00.000+00:00"},"request":{"method":"PUT","url":"Condition/32bac93a-9e27-476d-b019-e30255c17a7f"}},{"fullUrl":"https://madie.cms.gov/Coverage/a5e75095-48bb-4cf7-b0b4-99fc313c861b","resource":{"resourceType":"Coverage","id":"a5e75095-48bb-4cf7-b0b4-99fc313c861b","meta":{"profile":["http://hl7.org/fhir/us/qicore/StructureDefinition/qicore-coverage"]},"status":"active","beneficiary":{"reference":"Patient/df8636f3-8f53-4835-b81c-ef707f527d50"},"payor":[{"reference":"Organization/607fdef9-3983-4cef-ab1a-95434d29b463"}]},"request":{"method":"PUT","url":"Coverage/a5e75095-48bb-4cf7-b0b4-99fc313c861b"}},{"fullUrl":"https://madie.cms.gov/Organization/885335c7-ddf8-4de7-941b-8acd26c4a21a","resource":{"resourceType":"Organization","id":"607fdef9-3983-4cef-ab1a-95434d29b463","meta":{"profile":["http://hl7.org/fhir/us/qicore/StructureDefinition/qicore-organization"]},"identifier":[{"use":"temp","system":"urn:oid:2.16.840.1.113883.4.4","value":"21-3259825"}],"active":true,"type":[{"coding":[{"system":"http://terminology.hl7.org/CodeSystem/organization-type","code":"pay","display":"Payer"}]}],"name":"Blue Cross Blue Shield of Texas","telecom":[{"system":"phone","value":"(+1) 972-766-6900"}],"address":[{"use":"billing","type":"postal","line":["P.O. Box 660044"],"city":"Dallas","state":"TX","postalCode":"75266-0044","country":"USA"}]},"request":{"method":"PUT","url":"Organization/607fdef9-3983-4cef-ab1a-95434d29b463"}},{"fullUrl":"https://madie.cms.gov/Practitioner/4d81133a-b65b-41ce-a9f4-cf05d32b5ce8","resource":{"resourceType":"Practitioner","id":"4d81133a-b65b-41ce-a9f4-cf05d32b5ce8","identifier":[{"system":"http://hl7.org/fhir/sid/us-npi","value":"123456"}],"name":[{"family":"Evil","prefix":["Dr"]}]},"request":{"method":"PUT","url":"Practitioner/4d81133a-b65b-41ce-a9f4-cf05d32b5ce8"}},{"fullUrl":"https://madie.cms.gov/MeasureReport/77f9571d-be25-432f-b82a-aa6769632b26","resource":{"resourceType":"MeasureReport","id":"77f9571d-be25-432f-b82a-aa6769632b26","meta":{"profile":["http://hl7.org/fhir/us/cqfmeasures/StructureDefinition/test-case-cqfm"]},"contained":[{"resourceType":"Parameters","id":"c2516b7d-1dea-4b71-8c58-53bead89a215-parameters","parameter":[{"name":"subject","valueString":"df8636f3-8f53-4835-b81c-ef707f527d50"}]}],"extension":[{"url":"http://hl7.org/fhir/us/cqfmeasures/StructureDefinition/cqfm-inputParameters","valueReference":{"reference":"#c2516b7d-1dea-4b71-8c58-53bead89a215-parameters"}},{"url":"http://hl7.org/fhir/us/cqfmeasures/StructureDefinition/cqfm-testCaseDescription","valueMarkdown":"EGA 43 weeks; Assessment performed but NOT Abnormal presentation , gravida 1, \n"}],"modifierExtension":[{"url":"http://hl7.org/fhir/us/cqfmeasures/StructureDefinition/cqfm-isTestCase","valueBoolean":true}],"status":"complete","type":"individual","measure":"https://madie.cms.gov/Measure/CMS334FHIRPCCesareanBirth","period":{"start":"2026-01-01","end":"2026-12-31"},"group":[{"population":[{"code":{"coding":[{"system":"http://terminology.hl7.org/CodeSystem/measure-population","code":"initial-population","display":"Initial Population"}]},"count":1},{"code":{"coding":[{"system":"http://terminology.hl7.org/CodeSystem/measure-population","code":"denominator","display":"Denominator"}]},"count":1},{"code":{"coding":[{"system":"http://terminology.hl7.org/CodeSystem/measure-population","code":"denominator-exclusion","display":"Denominator Exclusion"}]},"count":0},{"code":{"coding":[{"system":"http://terminology.hl7.org/CodeSystem/measure-population","code":"numerator","display":"Numerator"}]},"count":0}]}]},"request":{"method":"PUT","url":"MeasureReport/77f9571d-be25-432f-b82a-aa6769632b26"}}]}