{"resourceType":"Bundle","id":"tests-acd8399d-1cc5-423e-95f5-27969e479297-bundle","type":"transaction","entry":[{"fullUrl":"https://madie.cms.gov/Patient/acd8399d-1cc5-423e-95f5-27969e479297","resource":{"resourceType":"Patient","id":"acd8399d-1cc5-423e-95f5-27969e479297","meta":{"profile":["http://hl7.org/fhir/us/qicore/StructureDefinition/qicore-patient"]},"text":{"status":"generated","div":"<div xmlns=\"http://www.w3.org/1999/xhtml\"><div class=\"hapiHeaderText\">BadBirthDate <b>IPFAIL </b></div><table class=\"hapiPropertyTable\"><tbody><tr><td>Identifier</td><td>d130de5f4e42b38bd935fc8ebcd660c0e5f442917fd322d307794dfacd0563d2</td></tr><tr><td>Date of birth</td><td><span>14 February 1899</span></td></tr></tbody></table></div>"},"extension":[{"url":"http://hl7.org/fhir/us/core/StructureDefinition/us-core-race","extension":[{"url":"ombCategory","valueCoding":{"system":"urn:oid:2.16.840.1.113883.6.238","code":"1002-5","display":"American Indian or Alaska Native","userSelected":true}},{"url":"text","valueString":"American Indian or Alaska Native"}]},{"url":"http://hl7.org/fhir/us/core/StructureDefinition/us-core-ethnicity","extension":[{"url":"ombCategory","valueCoding":{"system":"urn:oid:2.16.840.1.113883.6.238","code":"2135-2","display":"Hispanic or Latino","userSelected":true}},{"url":"text","valueString":"Hispanic or Latino"}]}],"identifier":[{"type":{"coding":[{"system":"http://terminology.hl7.org/CodeSystem/v2-0203","code":"MR"}]},"system":"https://bonnie-fhir.healthit.gov/","value":"63487c300968f801225401c2"}],"active":true,"name":[{"use":"usual","family":"IPFail","given":["BadBirthDate"]}],"gender":"female","birthDate":"1901-02-14"},"request":{"method":"PUT","url":"Patient/acd8399d-1cc5-423e-95f5-27969e479297"}},{"fullUrl":"https://madie.cms.gov/Encounter/b1d1e732-4dbb-4e84-9ee8-9fbcb07e69e2","resource":{"resourceType":"Encounter","id":"b1d1e732-4dbb-4e84-9ee8-9fbcb07e69e2","meta":{"profile":["http://hl7.org/fhir/us/qicore/StructureDefinition/qicore-encounter"]},"status":"finished","class":{"system":"http://terminology.hl7.org/CodeSystem/v3-ActCode","code":"IMP","display":"inpatient encounter"},"type":[{"coding":[{"system":"http://snomed.info/sct","code":"8715000"}]}],"subject":{"reference":"Patient/acd8399d-1cc5-423e-95f5-27969e479297"},"period":{"start":"2026-11-28T08:00:00.000Z","end":"2026-11-30T08:15:00.000Z"},"diagnosis":[{"condition":{"reference":"Condition/Condition-2"},"use":{"coding":[{"system":"http://snomed.info/sct","code":"169826009","display":"Delivery of Singleton"}]}}]},"request":{"method":"PUT","url":"Encounter/b1d1e732-4dbb-4e84-9ee8-9fbcb07e69e2"}},{"fullUrl":"https://madie.cms.gov/Procedure/c35e7b95-68af-4c85-aa67-92039b0981bd","resource":{"resourceType":"Procedure","id":"c35e7b95-68af-4c85-aa67-92039b0981bd","meta":{"profile":["http://hl7.org/fhir/us/qicore/StructureDefinition/qicore-procedure"]},"extension":[{"url":"http://hl7.org/fhir/us/qicore/StructureDefinition/qicore-recorded","valueDateTime":"2014-04-05T09:35:00-04:00"}],"status":"completed","code":{"coding":[{"system":"http://www.cms.gov/Medicare/Coding/ICD10","code":"10D00Z0"},{"system":"http://www.icd10data.com/icd10pcs","code":"10D00Z0","userSelected":true}]},"subject":{"reference":"Patient/acd8399d-1cc5-423e-95f5-27969e479297"},"performedPeriod":{"start":"2026-11-28T20:00:00.000Z","end":"2026-11-28T20:15:00.000Z"}},"request":{"method":"PUT","url":"Procedure/c35e7b95-68af-4c85-aa67-92039b0981bd"}},{"fullUrl":"https://madie.cms.gov/Coverage/664a782a-e2c6-4620-9155-9e54d4731d2c","resource":{"resourceType":"Coverage","id":"664a782a-e2c6-4620-9155-9e54d4731d2c","meta":{"profile":["http://hl7.org/fhir/us/qicore/StructureDefinition/qicore-coverage"]},"status":"active","beneficiary":{"reference":"Patient/acd8399d-1cc5-423e-95f5-27969e479297"},"payor":[{"reference":"Organization/f7da4368-fb6d-4d73-a75b-f78024cbb18d"}]},"request":{"method":"PUT","url":"Coverage/664a782a-e2c6-4620-9155-9e54d4731d2c"}},{"fullUrl":"https://madie.cms.gov/Organization/bbab2b31-c6c7-4358-af9e-6be39e24e51e","resource":{"resourceType":"Organization","id":"f7da4368-fb6d-4d73-a75b-f78024cbb18d","meta":{"profile":["http://hl7.org/fhir/us/qicore/StructureDefinition/qicore-organization"]},"identifier":[{"use":"temp","system":"urn:oid:2.16.840.1.113883.4.4","value":"21-3259825"}],"active":true,"type":[{"coding":[{"system":"http://terminology.hl7.org/CodeSystem/organization-type","code":"pay","display":"Payer"}]}],"name":"Blue Cross Blue Shield of Texas","telecom":[{"system":"phone","value":"(+1) 972-766-6900"}],"address":[{"use":"billing","type":"postal","line":["P.O. Box 660044"],"city":"Dallas","state":"TX","postalCode":"75266-0044","country":"USA"}]},"request":{"method":"PUT","url":"Organization/f7da4368-fb6d-4d73-a75b-f78024cbb18d"}},{"fullUrl":"https://madie.cms.gov/Practitioner/4507a875-45f1-4dca-82f8-16ed3d77b50e","resource":{"resourceType":"Practitioner","id":"4507a875-45f1-4dca-82f8-16ed3d77b50e","identifier":[{"system":"http://hl7.org/fhir/sid/us-npi","value":"123456"}],"name":[{"family":"Evil","prefix":["Dr"]}]},"request":{"method":"PUT","url":"Practitioner/4507a875-45f1-4dca-82f8-16ed3d77b50e"}},{"fullUrl":"https://madie.cms.gov/MeasureReport/f290d708-d385-4fbd-99ad-7c26458f68f7","resource":{"resourceType":"MeasureReport","id":"f290d708-d385-4fbd-99ad-7c26458f68f7","meta":{"profile":["http://hl7.org/fhir/us/cqfmeasures/StructureDefinition/test-case-cqfm"]},"contained":[{"resourceType":"Parameters","id":"7b575004-dfe6-459a-99d2-56c2f793f029-parameters","parameter":[{"name":"subject","valueString":"acd8399d-1cc5-423e-95f5-27969e479297"}]}],"extension":[{"url":"http://hl7.org/fhir/us/cqfmeasures/StructureDefinition/cqfm-inputParameters","valueReference":{"reference":"#7b575004-dfe6-459a-99d2-56c2f793f029-parameters"}},{"url":"http://hl7.org/fhir/us/cqfmeasures/StructureDefinition/cqfm-testCaseDescription","valueMarkdown":"Birth date is bad - year before 1900, should fail IPP\n"}],"modifierExtension":[{"url":"http://hl7.org/fhir/us/cqfmeasures/StructureDefinition/cqfm-isTestCase","valueBoolean":true}],"status":"complete","type":"individual","measure":"https://madie.cms.gov/Measure/CMS334FHIRPCCesareanBirth","period":{"start":"2026-01-01","end":"2026-12-31"},"group":[{"population":[{"code":{"coding":[{"system":"http://terminology.hl7.org/CodeSystem/measure-population","code":"initial-population","display":"Initial Population"}]},"count":0},{"code":{"coding":[{"system":"http://terminology.hl7.org/CodeSystem/measure-population","code":"denominator","display":"Denominator"}]},"count":0},{"code":{"coding":[{"system":"http://terminology.hl7.org/CodeSystem/measure-population","code":"denominator-exclusion","display":"Denominator Exclusion"}]},"count":0},{"code":{"coding":[{"system":"http://terminology.hl7.org/CodeSystem/measure-population","code":"numerator","display":"Numerator"}]},"count":0}]}]},"request":{"method":"PUT","url":"MeasureReport/f290d708-d385-4fbd-99ad-7c26458f68f7"}}]}