{"resourceType":"Bundle","id":"tests-8d2b169f-2590-4dc3-ade9-20ee0aa17eea-bundle","type":"transaction","entry":[{"fullUrl":"https://madie.cms.gov/Patient/8d2b169f-2590-4dc3-ade9-20ee0aa17eea","resource":{"resourceType":"Patient","id":"8d2b169f-2590-4dc3-ade9-20ee0aa17eea","meta":{"profile":["http://hl7.org/fhir/us/qicore/StructureDefinition/qicore-patient"]},"text":{"status":"generated","div":"<div xmlns=\"http://www.w3.org/1999/xhtml\"><div class=\"hapiHeaderText\">ProcDelivStartAfterEncInpEnd <b>IPFAIL </b></div><table class=\"hapiPropertyTable\"><tbody><tr><td>Identifier</td><td>8feb75fb0b87d407a78ff5992b319da07b86b88c054236dab2f11601028d7a21</td></tr><tr><td>Date of birth</td><td><span>14 February 1985</span></td></tr></tbody></table></div>"},"extension":[{"url":"http://hl7.org/fhir/us/core/StructureDefinition/us-core-race","extension":[{"url":"ombCategory","valueCoding":{"system":"urn:oid:2.16.840.1.113883.6.238","code":"1002-5","display":"American Indian or Alaska Native","userSelected":true}},{"url":"text","valueString":"American Indian or Alaska Native"}]},{"url":"http://hl7.org/fhir/us/core/StructureDefinition/us-core-ethnicity","extension":[{"url":"ombCategory","valueCoding":{"system":"urn:oid:2.16.840.1.113883.6.238","code":"2135-2","display":"Hispanic or Latino","userSelected":true}},{"url":"text","valueString":"Hispanic or Latino"}]}],"identifier":[{"type":{"coding":[{"system":"http://terminology.hl7.org/CodeSystem/v2-0203","code":"MR"}]},"system":"https://bonnie-fhir.healthit.gov/","value":"63487c2d0968f8012254014c"}],"active":true,"name":[{"use":"usual","family":"IPFail","given":["ProcDelivStartsDayAfterEncInpEnd"]}],"gender":"female","birthDate":"1986-02-14"},"request":{"method":"PUT","url":"Patient/8d2b169f-2590-4dc3-ade9-20ee0aa17eea"}},{"fullUrl":"https://madie.cms.gov/Encounter/7d9e7c4c-51b9-4b7a-9032-d65539c3769b","resource":{"resourceType":"Encounter","id":"7d9e7c4c-51b9-4b7a-9032-d65539c3769b","meta":{"profile":["http://hl7.org/fhir/us/qicore/StructureDefinition/qicore-encounter"]},"status":"finished","class":{"system":"http://terminology.hl7.org/CodeSystem/v3-ActCode","code":"IMP","display":"inpatient encounter"},"type":[{"coding":[{"system":"http://snomed.info/sct","code":"8715000"}]}],"subject":{"reference":"Patient/8d2b169f-2590-4dc3-ade9-20ee0aa17eea"},"period":{"start":"2026-11-28T08:00:00.000Z","end":"2026-11-30T08:15:00.000Z"},"length":{"value":2.0,"unit":"days"},"diagnosis":[{"condition":{"reference":"Condition/Condition-2"},"use":{"coding":[{"system":"http://snomed.info/sct","code":"169826009","display":"Delivery of Singleton"}]}}]},"request":{"method":"PUT","url":"Encounter/7d9e7c4c-51b9-4b7a-9032-d65539c3769b"}},{"fullUrl":"https://madie.cms.gov/Procedure/12287c89-fe14-4d10-b024-87a54c6bbbd5","resource":{"resourceType":"Procedure","id":"12287c89-fe14-4d10-b024-87a54c6bbbd5","meta":{"profile":["http://hl7.org/fhir/us/qicore/StructureDefinition/qicore-procedure"]},"extension":[{"url":"http://hl7.org/fhir/us/qicore/StructureDefinition/qicore-recorded","valueDateTime":"2014-04-05T09:35:00-04:00"}],"status":"completed","code":{"coding":[{"system":"http://www.cms.gov/Medicare/Coding/ICD10","code":"10D00Z0","userSelected":true}]},"subject":{"reference":"Patient/8d2b169f-2590-4dc3-ade9-20ee0aa17eea"},"performedDateTime":"2026-12-01T00:01:00.000+00:00"},"request":{"method":"PUT","url":"Procedure/12287c89-fe14-4d10-b024-87a54c6bbbd5"}},{"fullUrl":"https://madie.cms.gov/Coverage/726553cf-277f-4870-a98e-7a2d90565483","resource":{"resourceType":"Coverage","id":"726553cf-277f-4870-a98e-7a2d90565483","meta":{"profile":["http://hl7.org/fhir/us/qicore/StructureDefinition/qicore-coverage"]},"status":"active","beneficiary":{"reference":"Patient/8d2b169f-2590-4dc3-ade9-20ee0aa17eea"},"payor":[{"reference":"Organization/db141f66-a1cc-407b-9e95-adac27adee14"}]},"request":{"method":"PUT","url":"Coverage/726553cf-277f-4870-a98e-7a2d90565483"}},{"fullUrl":"https://madie.cms.gov/Organization/e5efa142-c2c8-4b49-b596-b14a43780498","resource":{"resourceType":"Organization","id":"db141f66-a1cc-407b-9e95-adac27adee14","meta":{"profile":["http://hl7.org/fhir/us/qicore/StructureDefinition/qicore-organization"]},"identifier":[{"use":"temp","system":"urn:oid:2.16.840.1.113883.4.4","value":"21-3259825"}],"active":true,"type":[{"coding":[{"system":"http://terminology.hl7.org/CodeSystem/organization-type","code":"pay","display":"Payer"}]}],"name":"Blue Cross Blue Shield of Texas","telecom":[{"system":"phone","value":"(+1) 972-766-6900"}],"address":[{"use":"billing","type":"postal","line":["P.O. Box 660044"],"city":"Dallas","state":"TX","postalCode":"75266-0044","country":"USA"}]},"request":{"method":"PUT","url":"Organization/db141f66-a1cc-407b-9e95-adac27adee14"}},{"fullUrl":"https://madie.cms.gov/Practitioner/579de1d3-5af5-4c51-9ef9-3c9a3d05b38f","resource":{"resourceType":"Practitioner","id":"579de1d3-5af5-4c51-9ef9-3c9a3d05b38f","identifier":[{"system":"http://hl7.org/fhir/sid/us-npi","value":"123456"}],"name":[{"family":"Evil","prefix":["Dr"]}]},"request":{"method":"PUT","url":"Practitioner/579de1d3-5af5-4c51-9ef9-3c9a3d05b38f"}},{"fullUrl":"https://madie.cms.gov/MeasureReport/5442aeb5-24ad-41c2-a638-31c3fac92111","resource":{"resourceType":"MeasureReport","id":"5442aeb5-24ad-41c2-a638-31c3fac92111","meta":{"profile":["http://hl7.org/fhir/us/cqfmeasures/StructureDefinition/test-case-cqfm"]},"contained":[{"resourceType":"Parameters","id":"a1e8f235-a426-421f-8894-3dbb409317cd-parameters","parameter":[{"name":"subject","valueString":"8d2b169f-2590-4dc3-ade9-20ee0aa17eea"}]}],"extension":[{"url":"http://hl7.org/fhir/us/cqfmeasures/StructureDefinition/cqfm-inputParameters","valueReference":{"reference":"#a1e8f235-a426-421f-8894-3dbb409317cd-parameters"}},{"url":"http://hl7.org/fhir/us/cqfmeasures/StructureDefinition/cqfm-testCaseDescription","valueMarkdown":"\"Fail IPP, ProcDelivStartAfter IP  end\n DEN, NUM. Parity result 0 (auth at 42 weeks) EGA 40 weeks;   Tests \"\"DeliveryProcedures.relevantPeriod starts during QualifyingEncounters.relevantPeriod\"\".\"\n"}],"modifierExtension":[{"url":"http://hl7.org/fhir/us/cqfmeasures/StructureDefinition/cqfm-isTestCase","valueBoolean":true}],"status":"complete","type":"individual","measure":"https://madie.cms.gov/Measure/CMS334FHIRPCCesareanBirth","period":{"start":"2026-01-01","end":"2026-12-31"},"group":[{"population":[{"code":{"coding":[{"system":"http://terminology.hl7.org/CodeSystem/measure-population","code":"initial-population","display":"Initial Population"}]},"count":0},{"code":{"coding":[{"system":"http://terminology.hl7.org/CodeSystem/measure-population","code":"denominator","display":"Denominator"}]},"count":0},{"code":{"coding":[{"system":"http://terminology.hl7.org/CodeSystem/measure-population","code":"denominator-exclusion","display":"Denominator Exclusion"}]},"count":0},{"code":{"coding":[{"system":"http://terminology.hl7.org/CodeSystem/measure-population","code":"numerator","display":"Numerator"}]},"count":0}]}]},"request":{"method":"PUT","url":"MeasureReport/5442aeb5-24ad-41c2-a638-31c3fac92111"}}]}