{"resourceType":"Bundle","id":"tests-c7cb1c01-711f-4c40-8242-5828e7ed7807-bundle","type":"transaction","entry":[{"fullUrl":"https://madie.cms.gov/Patient/c7cb1c01-711f-4c40-8242-5828e7ed7807","resource":{"resourceType":"Patient","id":"c7cb1c01-711f-4c40-8242-5828e7ed7807","meta":{"profile":["http://hl7.org/fhir/us/qicore/StructureDefinition/qicore-patient"]},"text":{"status":"generated","div":"<div xmlns=\"http://www.w3.org/1999/xhtml\"><div class=\"hapiHeaderText\">CalcEGA36Weeks6Days <b>DENFAIL </b></div><table class=\"hapiPropertyTable\"><tbody><tr><td>Identifier</td><td>c6b51506d3a7092894a3f06af44f7ab397fd257a35f97f16644057feff48ec70</td></tr><tr><td>Date of birth</td><td><span>14 February 1985</span></td></tr></tbody></table></div>"},"extension":[{"url":"http://hl7.org/fhir/us/core/StructureDefinition/us-core-race","extension":[{"url":"ombCategory","valueCoding":{"system":"urn:oid:2.16.840.1.113883.6.238","code":"1002-5","display":"American Indian or Alaska Native","userSelected":true}},{"url":"text","valueString":"American Indian or Alaska Native"}]},{"url":"http://hl7.org/fhir/us/core/StructureDefinition/us-core-ethnicity","extension":[{"url":"ombCategory","valueCoding":{"system":"urn:oid:2.16.840.1.113883.6.238","code":"2135-2","display":"Hispanic or Latino","userSelected":true}},{"url":"text","valueString":"Hispanic or Latino"}]}],"identifier":[{"type":{"coding":[{"system":"http://terminology.hl7.org/CodeSystem/v2-0203","code":"MR"}]},"system":"https://bonnie-fhir.healthit.gov/","value":"63487c2f0968f8012254019f"}],"active":true,"name":[{"use":"usual","family":"DENFail","given":["CalcEGA36Weeks6Days"]}],"gender":"female","birthDate":"1998-02-14"},"request":{"method":"PUT","url":"Patient/c7cb1c01-711f-4c40-8242-5828e7ed7807"}},{"fullUrl":"https://madie.cms.gov/Observation/bd81619e-fadb-4006-bea4-94ebdcbb9038","resource":{"resourceType":"Observation","id":"bd81619e-fadb-4006-bea4-94ebdcbb9038","meta":{"profile":["http://hl7.org/fhir/us/qicore/StructureDefinition/qicore-observation"]},"status":"final","category":[{"coding":[{"system":"http://terminology.hl7.org/CodeSystem/observation-category","code":"exam","display":"exam","userSelected":true}]}],"code":{"coding":[{"system":"http://loinc.org","code":"11996-6"}]},"subject":{"reference":"Patient/c7cb1c01-711f-4c40-8242-5828e7ed7807"},"effectiveDateTime":"2025-08-19T19:00:00.000+00:00","valueInteger":1},"request":{"method":"PUT","url":"Observation/bd81619e-fadb-4006-bea4-94ebdcbb9038"}},{"fullUrl":"https://madie.cms.gov/Observation/0b47be97-995b-4328-80aa-594a8a6ac670","resource":{"resourceType":"Observation","id":"0b47be97-995b-4328-80aa-594a8a6ac670","meta":{"profile":["http://hl7.org/fhir/us/qicore/StructureDefinition/qicore-observation"]},"status":"final","category":[{"coding":[{"system":"http://terminology.hl7.org/CodeSystem/observation-category","code":"exam","display":"exam","userSelected":true}]}],"code":{"coding":[{"system":"http://loinc.org","code":"93857-1"}]},"subject":{"reference":"Patient/c7cb1c01-711f-4c40-8242-5828e7ed7807"},"effectiveDateTime":"2026-01-15T19:00:00.000+00:00","valueDateTime":"2026-01-15T19:00:00+00:00"},"request":{"method":"PUT","url":"Observation/0b47be97-995b-4328-80aa-594a8a6ac670"}},{"fullUrl":"https://madie.cms.gov/Observation/94665a6e-ac35-4aa6-aa18-9c5e62a2e444","resource":{"resourceType":"Observation","id":"94665a6e-ac35-4aa6-aa18-9c5e62a2e444","meta":{"profile":["http://hl7.org/fhir/us/qicore/StructureDefinition/qicore-observation"]},"status":"final","category":[{"coding":[{"system":"http://terminology.hl7.org/CodeSystem/observation-category","code":"exam","display":"exam","userSelected":true}]}],"code":{"coding":[{"system":"http://loinc.org","code":"11778-8"}]},"subject":{"reference":"Patient/c7cb1c01-711f-4c40-8242-5828e7ed7807"},"effectiveDateTime":"2026-01-15T19:00:00.000+00:00","valueDateTime":"2026-02-06T08:00:00+00:00"},"request":{"method":"PUT","url":"Observation/94665a6e-ac35-4aa6-aa18-9c5e62a2e444"}},{"fullUrl":"https://madie.cms.gov/Encounter/a76aa5c0-591e-42c9-8b89-b7f4c463077b","resource":{"resourceType":"Encounter","id":"a76aa5c0-591e-42c9-8b89-b7f4c463077b","meta":{"profile":["http://hl7.org/fhir/us/qicore/StructureDefinition/qicore-encounter"]},"status":"finished","class":{"system":"http://terminology.hl7.org/CodeSystem/v3-ActCode","code":"IMP","display":"inpatient encounter"},"type":[{"coding":[{"system":"http://snomed.info/sct","code":"183452005"}]}],"subject":{"reference":"Patient/c7cb1c01-711f-4c40-8242-5828e7ed7807"},"period":{"start":"2026-01-15T08:00:00.000Z","end":"2026-01-20T08:15:00.000Z"},"length":{"value":2.0,"unit":"days"},"diagnosis":[{"condition":{"reference":"Condition/delivery-of-singleton-f83c"},"use":{"coding":[{"system":"http://snomed.info/sct","code":"169826009","display":"Delivery of Singleton"}]}},{"condition":{"reference":"Condition/2c26a934-0746-42f9-ad36-3ef4b53944aa"}}]},"request":{"method":"PUT","url":"Encounter/a76aa5c0-591e-42c9-8b89-b7f4c463077b"}},{"fullUrl":"https://madie.cms.gov/Procedure/3c749fd8-62f3-40f0-9d6d-6316b056eb05","resource":{"resourceType":"Procedure","id":"3c749fd8-62f3-40f0-9d6d-6316b056eb05","meta":{"profile":["http://hl7.org/fhir/us/qicore/StructureDefinition/qicore-procedure"]},"extension":[{"url":"http://hl7.org/fhir/us/qicore/StructureDefinition/qicore-recorded","valueDateTime":"2014-04-05T09:35:00-04:00"}],"status":"completed","code":{"coding":[{"system":"http://www.cms.gov/Medicare/Coding/ICD10","code":"10D07Z3"},{"system":"http://www.icd10data.com/icd10pcs","code":"10D07Z3","userSelected":true}]},"subject":{"reference":"Patient/c7cb1c01-711f-4c40-8242-5828e7ed7807"},"performedPeriod":{"start":"2026-01-15T08:10:00.000Z","end":"2026-01-15T09:14:00.000Z"}},"request":{"method":"PUT","url":"Procedure/3c749fd8-62f3-40f0-9d6d-6316b056eb05"}},{"fullUrl":"https://madie.cms.gov/Condition/2c26a934-0746-42f9-ad36-3ef4b53944aa","resource":{"resourceType":"Condition","id":"2c26a934-0746-42f9-ad36-3ef4b53944aa","meta":{"profile":["http://hl7.org/fhir/us/qicore/StructureDefinition/qicore-condition"]},"category":[{"coding":[{"system":"http://terminology.hl7.org/CodeSystem/condition-category","code":"encounter-diagnosis","display":"Encounter Diagnosis"}]}],"code":{"coding":[{"system":"http://snomed.info/sct","version":"2022-09","code":"169826009","display":"Single live birth (finding)","userSelected":true}]},"subject":{"reference":"Patient/c7cb1c01-711f-4c40-8242-5828e7ed7807"},"recordedDate":"2026-10-21T08:00:00.000+00:00"},"request":{"method":"PUT","url":"Condition/2c26a934-0746-42f9-ad36-3ef4b53944aa"}},{"fullUrl":"https://madie.cms.gov/Coverage/874d62bc-bb15-41ed-8fc7-f6a89abb4c63","resource":{"resourceType":"Coverage","id":"874d62bc-bb15-41ed-8fc7-f6a89abb4c63","meta":{"profile":["http://hl7.org/fhir/us/qicore/StructureDefinition/qicore-coverage"]},"status":"active","beneficiary":{"reference":"Patient/c7cb1c01-711f-4c40-8242-5828e7ed7807"},"payor":[{"reference":"Organization/aeb2c6be-6577-4bba-a6b6-6eab95111f1b"}]},"request":{"method":"PUT","url":"Coverage/874d62bc-bb15-41ed-8fc7-f6a89abb4c63"}},{"fullUrl":"https://madie.cms.gov/Organization/d8000c9b-bc29-4a38-8212-829b30776af3","resource":{"resourceType":"Organization","id":"aeb2c6be-6577-4bba-a6b6-6eab95111f1b","meta":{"profile":["http://hl7.org/fhir/us/qicore/StructureDefinition/qicore-organization"]},"identifier":[{"use":"temp","system":"urn:oid:2.16.840.1.113883.4.4","value":"21-3259825"}],"active":true,"type":[{"coding":[{"system":"http://terminology.hl7.org/CodeSystem/organization-type","code":"pay","display":"Payer"}]}],"name":"Blue Cross Blue Shield of Texas","telecom":[{"system":"phone","value":"(+1) 972-766-6900"}],"address":[{"use":"billing","type":"postal","line":["P.O. Box 660044"],"city":"Dallas","state":"TX","postalCode":"75266-0044","country":"USA"}]},"request":{"method":"PUT","url":"Organization/aeb2c6be-6577-4bba-a6b6-6eab95111f1b"}},{"fullUrl":"https://madie.cms.gov/Practitioner/ce8d8974-fff0-4104-9d81-de23e56fe8ee","resource":{"resourceType":"Practitioner","id":"ce8d8974-fff0-4104-9d81-de23e56fe8ee","identifier":[{"system":"http://hl7.org/fhir/sid/us-npi","value":"123456"}],"name":[{"family":"Evil","prefix":["Dr"]}]},"request":{"method":"PUT","url":"Practitioner/ce8d8974-fff0-4104-9d81-de23e56fe8ee"}},{"fullUrl":"https://madie.cms.gov/MeasureReport/6ee540a8-2f17-4631-bdd2-1ec1e316e2d0","resource":{"resourceType":"MeasureReport","id":"6ee540a8-2f17-4631-bdd2-1ec1e316e2d0","meta":{"profile":["http://hl7.org/fhir/us/cqfmeasures/StructureDefinition/test-case-cqfm"]},"contained":[{"resourceType":"Parameters","id":"3cbadeec-60f0-4ef3-8f68-12e0b7e27c92-parameters","parameter":[{"name":"subject","valueString":"c7cb1c01-711f-4c40-8242-5828e7ed7807"}]}],"extension":[{"url":"http://hl7.org/fhir/us/cqfmeasures/StructureDefinition/cqfm-inputParameters","valueReference":{"reference":"#3cbadeec-60f0-4ef3-8f68-12e0b7e27c92-parameters"}},{"url":"http://hl7.org/fhir/us/cqfmeasures/StructureDefinition/cqfm-testCaseDescription","valueMarkdown":"Calculated EGA is 36 Weeks 6 Days\n"}],"modifierExtension":[{"url":"http://hl7.org/fhir/us/cqfmeasures/StructureDefinition/cqfm-isTestCase","valueBoolean":true}],"status":"complete","type":"individual","measure":"https://madie.cms.gov/Measure/CMS334FHIRPCCesareanBirth","period":{"start":"2026-01-01","end":"2026-12-31"},"group":[{"population":[{"code":{"coding":[{"system":"http://terminology.hl7.org/CodeSystem/measure-population","code":"initial-population","display":"Initial Population"}]},"count":1},{"code":{"coding":[{"system":"http://terminology.hl7.org/CodeSystem/measure-population","code":"denominator","display":"Denominator"}]},"count":0},{"code":{"coding":[{"system":"http://terminology.hl7.org/CodeSystem/measure-population","code":"denominator-exclusion","display":"Denominator Exclusion"}]},"count":0},{"code":{"coding":[{"system":"http://terminology.hl7.org/CodeSystem/measure-population","code":"numerator","display":"Numerator"}]},"count":0}]}]},"request":{"method":"PUT","url":"MeasureReport/6ee540a8-2f17-4631-bdd2-1ec1e316e2d0"}}]}