{"resourceType":"Bundle","id":"tests-996a87a2-020a-49e6-bc06-79ecc49cfa73-bundle","type":"transaction","entry":[{"fullUrl":"https://madie.cms.gov/Patient/996a87a2-020a-49e6-bc06-79ecc49cfa73","resource":{"resourceType":"Patient","id":"996a87a2-020a-49e6-bc06-79ecc49cfa73","meta":{"profile":["http://hl7.org/fhir/us/qicore/StructureDefinition/qicore-patient"]},"text":{"status":"generated","div":"<div xmlns=\"http://www.w3.org/1999/xhtml\"><div class=\"hapiHeaderText\">AssessPreTerm0RelDate42wksB4DelivDate <b>DENPASS </b></div><table class=\"hapiPropertyTable\"><tbody><tr><td>Identifier</td><td>ae2c858214ff9b1ffdc193923955b0f25c757408279ae2f0e7ea89ca980dbad8</td></tr><tr><td>Date of birth</td><td><span>14 February 1985</span></td></tr></tbody></table></div>"},"extension":[{"url":"http://hl7.org/fhir/us/core/StructureDefinition/us-core-race","extension":[{"url":"ombCategory","valueCoding":{"system":"urn:oid:2.16.840.1.113883.6.238","code":"1002-5","display":"American Indian or Alaska Native","userSelected":true}},{"url":"text","valueString":"American Indian or Alaska Native"}]},{"url":"http://hl7.org/fhir/us/core/StructureDefinition/us-core-ethnicity","extension":[{"url":"ombCategory","valueCoding":{"system":"urn:oid:2.16.840.1.113883.6.238","code":"2135-2","display":"Hispanic or Latino","userSelected":true}},{"url":"text","valueString":"Hispanic or Latino"}]}],"identifier":[{"type":{"coding":[{"system":"http://terminology.hl7.org/CodeSystem/v2-0203","code":"MR"}]},"system":"https://bonnie-fhir.healthit.gov/","value":"63487c2f0968f8012254018f"}],"active":true,"name":[{"use":"usual","family":"DENPass","given":["AssessPreTerm0RelPerStartTime42wks1MinB4DelivDateTime"]}],"gender":"female","birthDate":"1998-02-14"},"request":{"method":"PUT","url":"Patient/996a87a2-020a-49e6-bc06-79ecc49cfa73"}},{"fullUrl":"https://madie.cms.gov/Observation/4d3d5c02-e39f-4398-be7a-a1e7555d8829","resource":{"resourceType":"Observation","id":"4d3d5c02-e39f-4398-be7a-a1e7555d8829","meta":{"profile":["http://hl7.org/fhir/us/qicore/StructureDefinition/qicore-observation"]},"status":"final","category":[{"coding":[{"system":"http://terminology.hl7.org/CodeSystem/observation-category","code":"exam","display":"exam","userSelected":true}]}],"code":{"coding":[{"system":"http://loinc.org","code":"11637-6"}]},"subject":{"reference":"Patient/996a87a2-020a-49e6-bc06-79ecc49cfa73"},"effectivePeriod":{"start":"2025-08-14T19:59:00.000+00:00","end":"2025-08-19T20:00:00.000+00:00"},"valueInteger":0},"request":{"method":"PUT","url":"Observation/4d3d5c02-e39f-4398-be7a-a1e7555d8829"}},{"fullUrl":"https://madie.cms.gov/Observation/e8243514-f47b-4057-ade9-8c380dcd0250","resource":{"resourceType":"Observation","id":"e8243514-f47b-4057-ade9-8c380dcd0250","meta":{"profile":["http://hl7.org/fhir/us/qicore/StructureDefinition/qicore-observation"]},"status":"final","category":[{"coding":[{"system":"http://terminology.hl7.org/CodeSystem/observation-category","code":"exam","display":"exam","userSelected":true}]}],"code":{"coding":[{"system":"http://loinc.org","code":"11639-2"}]},"subject":{"reference":"Patient/996a87a2-020a-49e6-bc06-79ecc49cfa73"},"effectiveDateTime":"2025-09-19T09:00:00.000+00:00","valueInteger":0},"request":{"method":"PUT","url":"Observation/e8243514-f47b-4057-ade9-8c380dcd0250"}},{"fullUrl":"https://madie.cms.gov/Observation/0f26d298-a7cf-42b7-8767-126254a4c4dc","resource":{"resourceType":"Observation","id":"0f26d298-a7cf-42b7-8767-126254a4c4dc","meta":{"profile":["http://hl7.org/fhir/us/qicore/StructureDefinition/qicore-observation"]},"status":"final","category":[{"coding":[{"system":"http://terminology.hl7.org/CodeSystem/observation-category","code":"exam","display":"exam","userSelected":true}]}],"code":{"coding":[{"system":"http://loinc.org","code":"11884-4"}]},"subject":{"reference":"Patient/996a87a2-020a-49e6-bc06-79ecc49cfa73"},"effectiveDateTime":"2026-06-08T20:00:00.000+00:00","valueQuantity":{"value":37,"system":"http://unitsofmeasure.org","code":"wk"}},"request":{"method":"PUT","url":"Observation/0f26d298-a7cf-42b7-8767-126254a4c4dc"}},{"fullUrl":"https://madie.cms.gov/Observation/027ac1bd-8705-4cf3-b7f9-034b55522733","resource":{"resourceType":"Observation","id":"027ac1bd-8705-4cf3-b7f9-034b55522733","meta":{"profile":["http://hl7.org/fhir/us/qicore/StructureDefinition/qicore-observation"]},"status":"final","category":[{"coding":[{"system":"http://terminology.hl7.org/CodeSystem/observation-category","code":"exam","display":"exam","userSelected":true}]}],"code":{"coding":[{"system":"http://loinc.org","code":"93857-1"}]},"subject":{"reference":"Patient/996a87a2-020a-49e6-bc06-79ecc49cfa73"},"effectiveDateTime":"2026-06-08T20:00:00.000+00:00","valueDateTime":"2026-06-08T20:00:00+00:00"},"request":{"method":"PUT","url":"Observation/027ac1bd-8705-4cf3-b7f9-034b55522733"}},{"fullUrl":"https://madie.cms.gov/Encounter/b45f113c-46ef-4b86-89b8-c28784a7a26b","resource":{"resourceType":"Encounter","id":"b45f113c-46ef-4b86-89b8-c28784a7a26b","meta":{"profile":["http://hl7.org/fhir/us/qicore/StructureDefinition/qicore-encounter"]},"status":"finished","class":{"system":"http://terminology.hl7.org/CodeSystem/v3-ActCode","code":"IMP","display":"inpatient encounter"},"type":[{"coding":[{"system":"http://snomed.info/sct","code":"8715000"}]}],"subject":{"reference":"Patient/996a87a2-020a-49e6-bc06-79ecc49cfa73"},"period":{"start":"2026-06-08T08:00:00.000Z","end":"2026-06-10T08:15:00.000Z"},"length":{"value":2,"unit":"days"},"diagnosis":[{"condition":{"reference":"Condition/delivery-of-singleton-f83c"},"use":{"coding":[{"system":"http://snomed.info/sct","code":"169826009","display":"Delivery of Singleton"}]}},{"condition":{"reference":"Condition/f2361e50-0e39-4c90-ab4c-42cb68811ea8"}}]},"request":{"method":"PUT","url":"Encounter/b45f113c-46ef-4b86-89b8-c28784a7a26b"}},{"fullUrl":"https://madie.cms.gov/Procedure/a2214b5e-97e7-4e6a-a6f9-52a4c5902789","resource":{"resourceType":"Procedure","id":"a2214b5e-97e7-4e6a-a6f9-52a4c5902789","meta":{"profile":["http://hl7.org/fhir/us/qicore/StructureDefinition/qicore-procedure"]},"extension":[{"url":"http://hl7.org/fhir/us/qicore/StructureDefinition/qicore-recorded","valueDateTime":"2014-04-05T09:35:00-04:00"}],"status":"completed","code":{"coding":[{"system":"http://www.cms.gov/Medicare/Coding/ICD10","code":"10D00Z0"},{"system":"http://snomed.info/sct","code":"4504004"},{"system":"http://www.icd10data.com/icd10pcs","code":"10D00Z1","userSelected":true}]},"subject":{"reference":"Patient/996a87a2-020a-49e6-bc06-79ecc49cfa73"},"performedPeriod":{"start":"2026-06-08T20:00:00.000Z","end":"2026-06-08T20:15:00.000Z"}},"request":{"method":"PUT","url":"Procedure/a2214b5e-97e7-4e6a-a6f9-52a4c5902789"}},{"fullUrl":"https://madie.cms.gov/Condition/f2361e50-0e39-4c90-ab4c-42cb68811ea8","resource":{"resourceType":"Condition","id":"f2361e50-0e39-4c90-ab4c-42cb68811ea8","meta":{"profile":["http://hl7.org/fhir/us/qicore/StructureDefinition/qicore-condition"]},"category":[{"coding":[{"system":"http://terminology.hl7.org/CodeSystem/condition-category","code":"encounter-diagnosis","display":"Encounter Diagnosis"}]}],"code":{"coding":[{"system":"http://snomed.info/sct","version":"2022-09","code":"169826009","display":"Single live birth (finding)","userSelected":true}]},"subject":{"reference":"Patient/996a87a2-020a-49e6-bc06-79ecc49cfa73"},"recordedDate":"2026-10-20T08:00:00.000+00:00"},"request":{"method":"PUT","url":"Condition/f2361e50-0e39-4c90-ab4c-42cb68811ea8"}},{"fullUrl":"https://madie.cms.gov/Coverage/4adffb05-cb70-4b6c-8dd8-0fdbe3beb649","resource":{"resourceType":"Coverage","id":"4adffb05-cb70-4b6c-8dd8-0fdbe3beb649","meta":{"profile":["http://hl7.org/fhir/us/qicore/StructureDefinition/qicore-coverage"]},"status":"active","beneficiary":{"reference":"Patient/996a87a2-020a-49e6-bc06-79ecc49cfa73"},"payor":[{"reference":"Organization/18ca435c-cae6-4c34-8033-af717477f9fc"}]},"request":{"method":"PUT","url":"Coverage/4adffb05-cb70-4b6c-8dd8-0fdbe3beb649"}},{"fullUrl":"https://madie.cms.gov/Organization/a5af92b8-5914-4d61-b9f2-f75487ce265c","resource":{"resourceType":"Organization","id":"18ca435c-cae6-4c34-8033-af717477f9fc","meta":{"profile":["http://hl7.org/fhir/us/qicore/StructureDefinition/qicore-organization"]},"identifier":[{"use":"temp","system":"urn:oid:2.16.840.1.113883.4.4","value":"21-3259825"}],"active":true,"type":[{"coding":[{"system":"http://terminology.hl7.org/CodeSystem/organization-type","code":"pay","display":"Payer"}]}],"name":"Blue Cross Blue Shield of Texas","telecom":[{"system":"phone","value":"(+1) 972-766-6900"}],"address":[{"use":"billing","type":"postal","line":["P.O. Box 660044"],"city":"Dallas","state":"TX","postalCode":"75266-0044","country":"USA"}]},"request":{"method":"PUT","url":"Organization/18ca435c-cae6-4c34-8033-af717477f9fc"}},{"fullUrl":"https://madie.cms.gov/Practitioner/abe577ab-abd0-411d-b2e2-c70ea36f56dd","resource":{"resourceType":"Practitioner","id":"abe577ab-abd0-411d-b2e2-c70ea36f56dd","identifier":[{"system":"http://hl7.org/fhir/sid/us-npi","value":"123456"}],"name":[{"family":"Evil","prefix":["Dr"]}]},"request":{"method":"PUT","url":"Practitioner/abe577ab-abd0-411d-b2e2-c70ea36f56dd"}},{"fullUrl":"https://madie.cms.gov/MeasureReport/1d9a48d6-2b52-4bbc-adf6-364e19c51b31","resource":{"resourceType":"MeasureReport","id":"1d9a48d6-2b52-4bbc-adf6-364e19c51b31","meta":{"profile":["http://hl7.org/fhir/us/cqfmeasures/StructureDefinition/test-case-cqfm"]},"contained":[{"resourceType":"Parameters","id":"96293b50-f053-4831-ab8a-81047399bc82-parameters","parameter":[{"name":"subject","valueString":"996a87a2-020a-49e6-bc06-79ecc49cfa73"}]}],"extension":[{"url":"http://hl7.org/fhir/us/cqfmeasures/StructureDefinition/cqfm-inputParameters","valueReference":{"reference":"#96293b50-f053-4831-ab8a-81047399bc82-parameters"}},{"url":"http://hl7.org/fhir/us/cqfmeasures/StructureDefinition/cqfm-testCaseDescription","valueMarkdown":"Preterm = 0, Relative Period Start Time is 42 weeks 1 Minute before Delivery Date/Time.  Denom will fail."}],"modifierExtension":[{"url":"http://hl7.org/fhir/us/cqfmeasures/StructureDefinition/cqfm-isTestCase","valueBoolean":true}],"status":"complete","type":"individual","measure":"https://madie.cms.gov/Measure/CMS334FHIRPCCesareanBirth","period":{"start":"2026-01-01","end":"2026-12-31"},"group":[{"population":[{"code":{"coding":[{"system":"http://terminology.hl7.org/CodeSystem/measure-population","code":"initial-population","display":"Initial Population"}]},"count":1},{"code":{"coding":[{"system":"http://terminology.hl7.org/CodeSystem/measure-population","code":"denominator","display":"Denominator"}]},"count":0},{"code":{"coding":[{"system":"http://terminology.hl7.org/CodeSystem/measure-population","code":"denominator-exclusion","display":"Denominator Exclusion"}]},"count":0},{"code":{"coding":[{"system":"http://terminology.hl7.org/CodeSystem/measure-population","code":"numerator","display":"Numerator"}]},"count":0}]}]},"request":{"method":"PUT","url":"MeasureReport/1d9a48d6-2b52-4bbc-adf6-364e19c51b31"}}]}