{"resourceType":"Bundle","id":"tests-d5827ad0-6e0a-4e2c-b2f5-c8200ddd5f1f-bundle","type":"transaction","entry":[{"fullUrl":"https://madie.cms.gov/Patient/d5827ad0-6e0a-4e2c-b2f5-c8200ddd5f1f","resource":{"resourceType":"Patient","id":"d5827ad0-6e0a-4e2c-b2f5-c8200ddd5f1f","meta":{"profile":["http://hl7.org/fhir/us/qicore/StructureDefinition/qicore-patient"]},"text":{"status":"generated","div":"<div xmlns=\"http://www.w3.org/1999/xhtml\"><div class=\"hapiHeaderText\">AssessP0RelDtTimeGTTimeOfDeliv <b>DENFAIL </b></div><table class=\"hapiPropertyTable\"><tbody><tr><td>Identifier</td><td>e81d53306e1d072e364f4cb1fe55e687c8eb216973693a9d8d3b7a70bc8067a7</td></tr><tr><td>Date of birth</td><td><span>14 February 1985</span></td></tr></tbody></table></div>"},"extension":[{"url":"http://hl7.org/fhir/us/core/StructureDefinition/us-core-race","extension":[{"url":"ombCategory","valueCoding":{"system":"urn:oid:2.16.840.1.113883.6.238","code":"1002-5","display":"American Indian or Alaska Native","userSelected":true}},{"url":"text","valueString":"American Indian or Alaska Native"}]},{"url":"http://hl7.org/fhir/us/core/StructureDefinition/us-core-ethnicity","extension":[{"url":"ombCategory","valueCoding":{"system":"urn:oid:2.16.840.1.113883.6.238","code":"2135-2","display":"Hispanic or Latino","userSelected":true}},{"url":"text","valueString":"Hispanic or Latino"}]}],"identifier":[{"type":{"coding":[{"system":"http://terminology.hl7.org/CodeSystem/v2-0203","code":"MR"}]},"system":"https://bonnie-fhir.healthit.gov/","value":"63487c2e0968f80122540169"}],"active":true,"name":[{"use":"usual","family":"DENFail","given":["AssessP0RelDtTimeGTTimeOfDeliv"]}],"gender":"female","birthDate":"1998-02-14"},"request":{"method":"PUT","url":"Patient/d5827ad0-6e0a-4e2c-b2f5-c8200ddd5f1f"}},{"fullUrl":"https://madie.cms.gov/Observation/d6a1f9a3-a728-4331-93b4-0f989592511a","resource":{"resourceType":"Observation","id":"d6a1f9a3-a728-4331-93b4-0f989592511a","meta":{"profile":["http://hl7.org/fhir/us/qicore/StructureDefinition/qicore-observation"]},"status":"final","category":[{"coding":[{"system":"http://terminology.hl7.org/CodeSystem/observation-category","code":"exam","display":"exam","userSelected":true}]}],"code":{"coding":[{"system":"http://loinc.org","code":"11884-4"}]},"subject":{"reference":"Patient/d5827ad0-6e0a-4e2c-b2f5-c8200ddd5f1f"},"issued":"2026-06-08T20:00:00.000+00:00","valueQuantity":{"value":37,"system":"http://unitsofmeasure.org","code":"wk"}},"request":{"method":"PUT","url":"Observation/d6a1f9a3-a728-4331-93b4-0f989592511a"}},{"fullUrl":"https://madie.cms.gov/Observation/aca72609-c857-4617-b4a2-34a2c3c75798","resource":{"resourceType":"Observation","id":"aca72609-c857-4617-b4a2-34a2c3c75798","meta":{"profile":["http://hl7.org/fhir/us/qicore/StructureDefinition/qicore-observation"]},"status":"final","category":[{"coding":[{"system":"http://terminology.hl7.org/CodeSystem/observation-category","code":"exam","display":"exam","userSelected":true}]}],"code":{"coding":[{"system":"http://loinc.org","code":"11977-6"}]},"subject":{"reference":"Patient/d5827ad0-6e0a-4e2c-b2f5-c8200ddd5f1f"},"effectiveDateTime":"2026-06-08T20:01:00.000+00:00","valueInteger":0},"request":{"method":"PUT","url":"Observation/aca72609-c857-4617-b4a2-34a2c3c75798"}},{"fullUrl":"https://madie.cms.gov/Observation/719d3bd4-42a9-40dd-8133-786c51003dfe","resource":{"resourceType":"Observation","id":"719d3bd4-42a9-40dd-8133-786c51003dfe","meta":{"profile":["http://hl7.org/fhir/us/qicore/StructureDefinition/qicore-observation"]},"status":"final","category":[{"coding":[{"system":"http://terminology.hl7.org/CodeSystem/observation-category","code":"exam","display":"exam","userSelected":true}]}],"code":{"coding":[{"system":"http://loinc.org","code":"93857-1"}]},"subject":{"reference":"Patient/d5827ad0-6e0a-4e2c-b2f5-c8200ddd5f1f"},"effectiveDateTime":"2026-06-08T20:00:00.000+00:00","valueDateTime":"2026-06-08T20:00:00+00:00"},"request":{"method":"PUT","url":"Observation/719d3bd4-42a9-40dd-8133-786c51003dfe"}},{"fullUrl":"https://madie.cms.gov/Encounter/0cd9fd77-65ee-48cd-ad58-6f25c02e2815","resource":{"resourceType":"Encounter","id":"0cd9fd77-65ee-48cd-ad58-6f25c02e2815","meta":{"profile":["http://hl7.org/fhir/us/qicore/StructureDefinition/qicore-encounter"]},"status":"finished","class":{"system":"http://terminology.hl7.org/CodeSystem/v3-ActCode","code":"IMP","display":"inpatient encounter"},"type":[{"coding":[{"system":"http://snomed.info/sct","code":"8715000"}]}],"subject":{"reference":"Patient/d5827ad0-6e0a-4e2c-b2f5-c8200ddd5f1f"},"period":{"start":"2026-06-08T08:00:00.000Z","end":"2026-06-10T08:15:00.000Z"},"length":{"value":2,"unit":"days"},"diagnosis":[{"condition":{"reference":"Condition/delivery-of-singleton-f83c"},"use":{"coding":[{"system":"http://snomed.info/sct","code":"169826009","display":"Delivery of Singleton"}]}},{"condition":{"reference":"Condition/c4a3c829-0cee-489d-be1d-29b6029aba58"}}]},"request":{"method":"PUT","url":"Encounter/0cd9fd77-65ee-48cd-ad58-6f25c02e2815"}},{"fullUrl":"https://madie.cms.gov/Procedure/c1a26f5b-3104-4721-9aa2-7a428ec75c9f","resource":{"resourceType":"Procedure","id":"c1a26f5b-3104-4721-9aa2-7a428ec75c9f","meta":{"profile":["http://hl7.org/fhir/us/qicore/StructureDefinition/qicore-procedure"]},"extension":[{"url":"http://hl7.org/fhir/us/qicore/StructureDefinition/qicore-recorded","valueDateTime":"2014-04-05T09:35:00-04:00"}],"status":"completed","code":{"coding":[{"system":"http://www.cms.gov/Medicare/Coding/ICD10","code":"10D00Z0"},{"system":"http://snomed.info/sct","code":"4504004"},{"system":"http://www.icd10data.com/icd10pcs","code":"10D00Z0","userSelected":true}]},"subject":{"reference":"Patient/d5827ad0-6e0a-4e2c-b2f5-c8200ddd5f1f"},"performedPeriod":{"start":"2026-06-08T20:00:00.000Z","end":"2026-06-08T20:15:00.000Z"}},"request":{"method":"PUT","url":"Procedure/c1a26f5b-3104-4721-9aa2-7a428ec75c9f"}},{"fullUrl":"https://madie.cms.gov/Condition/c4a3c829-0cee-489d-be1d-29b6029aba58","resource":{"resourceType":"Condition","id":"c4a3c829-0cee-489d-be1d-29b6029aba58","meta":{"profile":["http://hl7.org/fhir/us/qicore/StructureDefinition/qicore-condition"]},"category":[{"coding":[{"system":"http://terminology.hl7.org/CodeSystem/condition-category","code":"encounter-diagnosis","display":"Encounter Diagnosis"}]}],"code":{"coding":[{"system":"http://snomed.info/sct","version":"2022-09","code":"169826009","display":"Single live birth (finding)","userSelected":true}]},"subject":{"reference":"Patient/d5827ad0-6e0a-4e2c-b2f5-c8200ddd5f1f"},"recordedDate":"2026-10-21T08:00:00.000+00:00"},"request":{"method":"PUT","url":"Condition/c4a3c829-0cee-489d-be1d-29b6029aba58"}},{"fullUrl":"https://madie.cms.gov/Coverage/3737b6d3-c95b-4044-9426-bf93df6b1681","resource":{"resourceType":"Coverage","id":"3737b6d3-c95b-4044-9426-bf93df6b1681","meta":{"profile":["http://hl7.org/fhir/us/qicore/StructureDefinition/qicore-coverage"]},"status":"active","beneficiary":{"reference":"Patient/d5827ad0-6e0a-4e2c-b2f5-c8200ddd5f1f"},"payor":[{"reference":"Organization/4da248b0-6e59-49b7-b80e-338aa21d299f"}]},"request":{"method":"PUT","url":"Coverage/3737b6d3-c95b-4044-9426-bf93df6b1681"}},{"fullUrl":"https://madie.cms.gov/Organization/f482f04d-9617-467f-a528-827e843cb55f","resource":{"resourceType":"Organization","id":"4da248b0-6e59-49b7-b80e-338aa21d299f","meta":{"profile":["http://hl7.org/fhir/us/qicore/StructureDefinition/qicore-organization"]},"identifier":[{"use":"temp","system":"urn:oid:2.16.840.1.113883.4.4","value":"21-3259825"}],"active":true,"type":[{"coding":[{"system":"http://terminology.hl7.org/CodeSystem/organization-type","code":"pay","display":"Payer"}]}],"name":"Blue Cross Blue Shield of Texas","telecom":[{"system":"phone","value":"(+1) 972-766-6900"}],"address":[{"use":"billing","type":"postal","line":["P.O. Box 660044"],"city":"Dallas","state":"TX","postalCode":"75266-0044","country":"USA"}]},"request":{"method":"PUT","url":"Organization/4da248b0-6e59-49b7-b80e-338aa21d299f"}},{"fullUrl":"https://madie.cms.gov/Practitioner/9c083431-5680-4cea-a985-78f1c9cf1e65","resource":{"resourceType":"Practitioner","id":"9c083431-5680-4cea-a985-78f1c9cf1e65","identifier":[{"system":"http://hl7.org/fhir/sid/us-npi","value":"123456"}],"name":[{"family":"Evil","prefix":["Dr"]}]},"request":{"method":"PUT","url":"Practitioner/9c083431-5680-4cea-a985-78f1c9cf1e65"}},{"fullUrl":"https://madie.cms.gov/MeasureReport/74a1ccc1-2b9d-43af-a828-329c6f8d18b4","resource":{"resourceType":"MeasureReport","id":"74a1ccc1-2b9d-43af-a828-329c6f8d18b4","meta":{"profile":["http://hl7.org/fhir/us/cqfmeasures/StructureDefinition/test-case-cqfm"]},"contained":[{"resourceType":"Parameters","id":"72e9dc23-88bc-4086-86e4-1e1728e229e2-parameters","parameter":[{"name":"subject","valueString":"d5827ad0-6e0a-4e2c-b2f5-c8200ddd5f1f"}]}],"extension":[{"url":"http://hl7.org/fhir/us/cqfmeasures/StructureDefinition/cqfm-inputParameters","valueReference":{"reference":"#72e9dc23-88bc-4086-86e4-1e1728e229e2-parameters"}},{"url":"http://hl7.org/fhir/us/cqfmeasures/StructureDefinition/cqfm-testCaseDescription","valueMarkdown":"Parity=0, relevant date/time after delivery date and time\n"}],"modifierExtension":[{"url":"http://hl7.org/fhir/us/cqfmeasures/StructureDefinition/cqfm-isTestCase","valueBoolean":true}],"status":"complete","type":"individual","measure":"https://madie.cms.gov/Measure/CMS334FHIRPCCesareanBirth","period":{"start":"2026-01-01","end":"2026-12-31"},"group":[{"population":[{"code":{"coding":[{"system":"http://terminology.hl7.org/CodeSystem/measure-population","code":"initial-population","display":"Initial Population"}]},"count":1},{"code":{"coding":[{"system":"http://terminology.hl7.org/CodeSystem/measure-population","code":"denominator","display":"Denominator"}]},"count":0},{"code":{"coding":[{"system":"http://terminology.hl7.org/CodeSystem/measure-population","code":"denominator-exclusion","display":"Denominator Exclusion"}]},"count":0},{"code":{"coding":[{"system":"http://terminology.hl7.org/CodeSystem/measure-population","code":"numerator","display":"Numerator"}]},"count":0}]}]},"request":{"method":"PUT","url":"MeasureReport/74a1ccc1-2b9d-43af-a828-329c6f8d18b4"}}]}