{"resourceType":"Bundle","id":"tests-014b44f2-2119-4009-8ef2-4b6a62d6dd7a-bundle","type":"transaction","entry":[{"fullUrl":"https://madie.cms.gov/Patient/014b44f2-2119-4009-8ef2-4b6a62d6dd7a","resource":{"resourceType":"Patient","id":"014b44f2-2119-4009-8ef2-4b6a62d6dd7a","meta":{"profile":["http://hl7.org/fhir/us/qicore/StructureDefinition/qicore-patient"]},"text":{"status":"generated","div":"<div xmlns=\"http://www.w3.org/1999/xhtml\"><div class=\"hapiHeaderText\">AssessEDDRelDtTimeAfterTimeOfDeliv <b>DENFAIL </b></div><table class=\"hapiPropertyTable\"><tbody><tr><td>Identifier</td><td>b00b06f67015bda652373741cca10f65466d828e3a674df9528f73ec417ce0bb</td></tr><tr><td>Date of birth</td><td><span>14 February 1985</span></td></tr></tbody></table></div>"},"extension":[{"url":"http://hl7.org/fhir/us/core/StructureDefinition/us-core-race","extension":[{"url":"ombCategory","valueCoding":{"system":"urn:oid:2.16.840.1.113883.6.238","code":"1002-5","display":"American Indian or Alaska Native","userSelected":true}},{"url":"text","valueString":"American Indian or Alaska Native"}]},{"url":"http://hl7.org/fhir/us/core/StructureDefinition/us-core-ethnicity","extension":[{"url":"ombCategory","valueCoding":{"system":"urn:oid:2.16.840.1.113883.6.238","code":"2135-2","display":"Hispanic or Latino","userSelected":true}},{"url":"text","valueString":"Hispanic or Latino"}]}],"identifier":[{"type":{"coding":[{"system":"http://terminology.hl7.org/CodeSystem/v2-0203","code":"MR"}]},"system":"https://bonnie-fhir.healthit.gov/","value":"63487c2f0968f801225401ae"}],"active":true,"name":[{"use":"usual","family":"DENFail","given":["AssessEDDRelDtTimeAfterTimeOfDeliv"]}],"gender":"female","birthDate":"1998-02-14"},"request":{"method":"PUT","url":"Patient/014b44f2-2119-4009-8ef2-4b6a62d6dd7a"}},{"fullUrl":"https://madie.cms.gov/Observation/f8ee9a1d-093b-470e-9079-af5a378edc40","resource":{"resourceType":"Observation","id":"f8ee9a1d-093b-470e-9079-af5a378edc40","meta":{"profile":["http://hl7.org/fhir/us/qicore/StructureDefinition/qicore-observation"]},"status":"final","category":[{"coding":[{"system":"http://terminology.hl7.org/CodeSystem/observation-category","code":"exam","display":"exam","userSelected":true}]}],"code":{"coding":[{"system":"http://loinc.org","code":"93857-1"}]},"subject":{"reference":"Patient/014b44f2-2119-4009-8ef2-4b6a62d6dd7a"},"effectiveDateTime":"2026-01-15T08:00:00.000+00:00","valueDateTime":"2026-01-15T08:00:00+00:00"},"request":{"method":"PUT","url":"Observation/f8ee9a1d-093b-470e-9079-af5a378edc40"}},{"fullUrl":"https://madie.cms.gov/Observation/b28de9ae-d2bb-474f-a8bf-c4dd2f5c62eb","resource":{"resourceType":"Observation","id":"b28de9ae-d2bb-474f-a8bf-c4dd2f5c62eb","meta":{"profile":["http://hl7.org/fhir/us/qicore/StructureDefinition/qicore-observation"]},"status":"final","category":[{"coding":[{"system":"http://terminology.hl7.org/CodeSystem/observation-category","code":"exam","display":"exam","userSelected":true}]}],"code":{"coding":[{"system":"http://loinc.org","code":"11778-8"}]},"subject":{"reference":"Patient/014b44f2-2119-4009-8ef2-4b6a62d6dd7a"},"effectiveDateTime":"2026-01-15T08:01:00.000+00:00","valueDateTime":"2026-02-04T08:00:00+00:00"},"request":{"method":"PUT","url":"Observation/b28de9ae-d2bb-474f-a8bf-c4dd2f5c62eb"}},{"fullUrl":"https://madie.cms.gov/Observation/d3b08f89-edd1-48ad-8734-74b76346292e","resource":{"resourceType":"Observation","id":"d3b08f89-edd1-48ad-8734-74b76346292e","meta":{"profile":["http://hl7.org/fhir/us/qicore/StructureDefinition/qicore-observation"]},"status":"final","category":[{"coding":[{"system":"http://terminology.hl7.org/CodeSystem/observation-category","code":"exam","display":"exam","userSelected":true}]}],"code":{"coding":[{"system":"http://loinc.org","code":"11996-6"}]},"subject":{"reference":"Patient/014b44f2-2119-4009-8ef2-4b6a62d6dd7a"},"effectiveDateTime":"2026-01-15T07:59:00.000+00:00","valueInteger":1},"request":{"method":"PUT","url":"Observation/d3b08f89-edd1-48ad-8734-74b76346292e"}},{"fullUrl":"https://madie.cms.gov/Encounter/32272ed5-08a7-4041-8dba-4f0fb5aea9c6","resource":{"resourceType":"Encounter","id":"32272ed5-08a7-4041-8dba-4f0fb5aea9c6","meta":{"profile":["http://hl7.org/fhir/us/qicore/StructureDefinition/qicore-encounter"]},"status":"finished","class":{"system":"http://terminology.hl7.org/CodeSystem/v3-ActCode","code":"IMP","display":"inpatient encounter"},"type":[{"coding":[{"system":"http://snomed.info/sct","code":"183452005"}]}],"subject":{"reference":"Patient/014b44f2-2119-4009-8ef2-4b6a62d6dd7a"},"period":{"start":"2026-01-15T08:00:00.000Z","end":"2026-01-20T08:15:00.000Z"},"diagnosis":[{"condition":{"reference":"Condition/delivery-of-singleton-f83c"},"use":{"coding":[{"system":"http://snomed.info/sct","code":"169826009","display":"Delivery of Singleton"}]}},{"condition":{"reference":"Condition/cc1141a4-ab30-4c76-9114-16af888792b0"}}]},"request":{"method":"PUT","url":"Encounter/32272ed5-08a7-4041-8dba-4f0fb5aea9c6"}},{"fullUrl":"https://madie.cms.gov/Procedure/ea89e730-0465-41c6-aad4-391cc3da4729","resource":{"resourceType":"Procedure","id":"ea89e730-0465-41c6-aad4-391cc3da4729","meta":{"profile":["http://hl7.org/fhir/us/qicore/StructureDefinition/qicore-procedure"]},"extension":[{"url":"http://hl7.org/fhir/us/qicore/StructureDefinition/qicore-recorded","valueDateTime":"2014-04-05T09:35:00-04:00"}],"status":"completed","code":{"coding":[{"system":"http://www.cms.gov/Medicare/Coding/ICD10","code":"10D07Z3"},{"system":"http://www.icd10data.com/icd10pcs","code":"10D07Z3","userSelected":true}]},"subject":{"reference":"Patient/014b44f2-2119-4009-8ef2-4b6a62d6dd7a"},"performedPeriod":{"start":"2026-01-15T08:10:00.000Z","end":"2026-01-15T09:14:00.000Z"}},"request":{"method":"PUT","url":"Procedure/ea89e730-0465-41c6-aad4-391cc3da4729"}},{"fullUrl":"https://madie.cms.gov/Condition/cc1141a4-ab30-4c76-9114-16af888792b0","resource":{"resourceType":"Condition","id":"cc1141a4-ab30-4c76-9114-16af888792b0","meta":{"profile":["http://hl7.org/fhir/us/qicore/StructureDefinition/qicore-condition"]},"category":[{"coding":[{"system":"http://terminology.hl7.org/CodeSystem/condition-category","code":"encounter-diagnosis","display":"Encounter Diagnosis"}]}],"code":{"coding":[{"system":"http://snomed.info/sct","version":"2022-09","code":"169826009","display":"Single live birth (finding)","userSelected":true}]},"subject":{"reference":"Patient/014b44f2-2119-4009-8ef2-4b6a62d6dd7a"},"recordedDate":"2026-10-21T08:00:00.000+00:00"},"request":{"method":"PUT","url":"Condition/cc1141a4-ab30-4c76-9114-16af888792b0"}},{"fullUrl":"https://madie.cms.gov/Coverage/d90115ff-98c5-4629-952e-75b96062ab13","resource":{"resourceType":"Coverage","id":"d90115ff-98c5-4629-952e-75b96062ab13","meta":{"profile":["http://hl7.org/fhir/us/qicore/StructureDefinition/qicore-coverage"]},"status":"active","beneficiary":{"reference":"Patient/014b44f2-2119-4009-8ef2-4b6a62d6dd7a"},"payor":[{"reference":"Organization/607fdef9-3983-4cef-ab1a-95434d29b463"}]},"request":{"method":"PUT","url":"Coverage/d90115ff-98c5-4629-952e-75b96062ab13"}},{"fullUrl":"https://madie.cms.gov/Organization/97a506b7-6c36-41b8-961d-d0efc1758b3d","resource":{"resourceType":"Organization","id":"607fdef9-3983-4cef-ab1a-95434d29b463","meta":{"profile":["http://hl7.org/fhir/us/qicore/StructureDefinition/qicore-organization"]},"identifier":[{"use":"temp","system":"urn:oid:2.16.840.1.113883.4.4","value":"21-3259825"}],"active":true,"type":[{"coding":[{"system":"http://terminology.hl7.org/CodeSystem/organization-type","code":"pay","display":"Payer"}]}],"name":"Blue Cross Blue Shield of Texas","telecom":[{"system":"phone","value":"(+1) 972-766-6900"}],"address":[{"use":"billing","type":"postal","line":["P.O. Box 660044"],"city":"Dallas","state":"TX","postalCode":"75266-0044","country":"USA"}]},"request":{"method":"PUT","url":"Organization/607fdef9-3983-4cef-ab1a-95434d29b463"}},{"fullUrl":"https://madie.cms.gov/Practitioner/fd536dd5-5dac-47c9-963d-4cb6df6e9f37","resource":{"resourceType":"Practitioner","id":"fd536dd5-5dac-47c9-963d-4cb6df6e9f37","identifier":[{"system":"http://hl7.org/fhir/sid/us-npi","value":"123456"}],"name":[{"family":"Evil","prefix":["Dr"]}]},"request":{"method":"PUT","url":"Practitioner/fd536dd5-5dac-47c9-963d-4cb6df6e9f37"}},{"fullUrl":"https://madie.cms.gov/MeasureReport/93722ef7-3b13-4309-8c1e-72ce0a702884","resource":{"resourceType":"MeasureReport","id":"93722ef7-3b13-4309-8c1e-72ce0a702884","meta":{"profile":["http://hl7.org/fhir/us/cqfmeasures/StructureDefinition/test-case-cqfm"]},"contained":[{"resourceType":"Parameters","id":"7de7c12d-120f-4ee8-9ad7-52ce0f7d7885-parameters","parameter":[{"name":"subject","valueString":"014b44f2-2119-4009-8ef2-4b6a62d6dd7a"}]}],"extension":[{"url":"http://hl7.org/fhir/us/cqfmeasures/StructureDefinition/cqfm-inputParameters","valueReference":{"reference":"#7de7c12d-120f-4ee8-9ad7-52ce0f7d7885-parameters"}},{"url":"http://hl7.org/fhir/us/cqfmeasures/StructureDefinition/cqfm-testCaseDescription","valueMarkdown":"Passes: IP, Fails DENOM, Pt is 27 years of age,  encounter dx delivery of singleton, gravida=1authored less than 42 weeks prior to delivery, Delivery date Estimated Relevant DateTime AFTER the Time of Delivery\n"}],"modifierExtension":[{"url":"http://hl7.org/fhir/us/cqfmeasures/StructureDefinition/cqfm-isTestCase","valueBoolean":true}],"status":"complete","type":"individual","measure":"https://madie.cms.gov/Measure/CMS334FHIRPCCesareanBirth","period":{"start":"2026-01-01","end":"2026-12-31"},"group":[{"population":[{"code":{"coding":[{"system":"http://terminology.hl7.org/CodeSystem/measure-population","code":"initial-population","display":"Initial Population"}]},"count":1},{"code":{"coding":[{"system":"http://terminology.hl7.org/CodeSystem/measure-population","code":"denominator","display":"Denominator"}]},"count":0},{"code":{"coding":[{"system":"http://terminology.hl7.org/CodeSystem/measure-population","code":"denominator-exclusion","display":"Denominator Exclusion"}]},"count":0},{"code":{"coding":[{"system":"http://terminology.hl7.org/CodeSystem/measure-population","code":"numerator","display":"Numerator"}]},"count":0}]}]},"request":{"method":"PUT","url":"MeasureReport/93722ef7-3b13-4309-8c1e-72ce0a702884"}}]}