{"resourceType":"Bundle","id":"tests-6b0bd714-e832-4b86-85ba-7a860e8cc4f0-bundle","type":"transaction","entry":[{"fullUrl":"https://madie.cms.gov/Patient/6b0bd714-e832-4b86-85ba-7a860e8cc4f0","resource":{"resourceType":"Patient","id":"6b0bd714-e832-4b86-85ba-7a860e8cc4f0","meta":{"profile":["http://hl7.org/fhir/us/qicore/StructureDefinition/qicore-patient"]},"text":{"status":"generated","div":"<div xmlns=\"http://www.w3.org/1999/xhtml\"><div class=\"hapiHeaderText\">AssessGResultIsNull <b>DENFAIL </b></div><table class=\"hapiPropertyTable\"><tbody><tr><td>Identifier</td><td>1708e167118eb3c6ba503e3f4dd6b33e8139c84285201cfc9988c13f48ee7f27</td></tr><tr><td>Date of birth</td><td><span>14 February 1985</span></td></tr></tbody></table></div>"},"extension":[{"url":"http://hl7.org/fhir/us/core/StructureDefinition/us-core-race","extension":[{"url":"ombCategory","valueCoding":{"system":"urn:oid:2.16.840.1.113883.6.238","code":"1002-5","display":"American Indian or Alaska Native","userSelected":true}},{"url":"text","valueString":"American Indian or Alaska Native"}]},{"url":"http://hl7.org/fhir/us/core/StructureDefinition/us-core-ethnicity","extension":[{"url":"ombCategory","valueCoding":{"system":"urn:oid:2.16.840.1.113883.6.238","code":"2135-2","display":"Hispanic or Latino","userSelected":true}},{"url":"text","valueString":"Hispanic or Latino"}]}],"identifier":[{"type":{"coding":[{"system":"http://terminology.hl7.org/CodeSystem/v2-0203","code":"MR"}]},"system":"https://bonnie-fhir.healthit.gov/","value":"63487c300968f801225401cb"}],"active":true,"name":[{"use":"usual","family":"DENFail","given":["AssessGResultIsNull"]}],"gender":"female","birthDate":"1998-02-14"},"request":{"method":"PUT","url":"Patient/6b0bd714-e832-4b86-85ba-7a860e8cc4f0"}},{"fullUrl":"https://madie.cms.gov/Observation/532c5ad7-7b81-410e-8ca2-4483b4599c04","resource":{"resourceType":"Observation","id":"532c5ad7-7b81-410e-8ca2-4483b4599c04","meta":{"profile":["http://hl7.org/fhir/us/qicore/StructureDefinition/qicore-observation"]},"status":"final","category":[{"coding":[{"system":"http://terminology.hl7.org/CodeSystem/observation-category","code":"exam","display":"exam","userSelected":true}]}],"code":{"coding":[{"system":"http://loinc.org","code":"11884-4"}]},"subject":{"reference":"Patient/6b0bd714-e832-4b86-85ba-7a860e8cc4f0"},"effectiveDateTime":"2026-06-08T09:15:00.000+00:00","valueQuantity":{"value":38,"system":"http://unitsofmeasure.org","code":"wk"}},"request":{"method":"PUT","url":"Observation/532c5ad7-7b81-410e-8ca2-4483b4599c04"}},{"fullUrl":"https://madie.cms.gov/Observation/a463d628-f1f4-4bb1-9249-49261e4d98d9","resource":{"resourceType":"Observation","id":"a463d628-f1f4-4bb1-9249-49261e4d98d9","meta":{"profile":["http://hl7.org/fhir/us/qicore/StructureDefinition/qicore-observation"]},"status":"final","category":[{"coding":[{"system":"http://terminology.hl7.org/CodeSystem/observation-category","code":"exam","display":"exam","userSelected":true}]}],"code":{"coding":[{"system":"http://loinc.org","code":"11996-6"}]},"subject":{"reference":"Patient/6b0bd714-e832-4b86-85ba-7a860e8cc4f0"},"effectiveDateTime":"2026-06-08T19:00:00.000+00:00"},"request":{"method":"PUT","url":"Observation/a463d628-f1f4-4bb1-9249-49261e4d98d9"}},{"fullUrl":"https://madie.cms.gov/Observation/bd7b0b39-7316-45b4-8364-2e33feb6cce0","resource":{"resourceType":"Observation","id":"bd7b0b39-7316-45b4-8364-2e33feb6cce0","meta":{"profile":["http://hl7.org/fhir/us/qicore/StructureDefinition/qicore-observation"]},"status":"final","category":[{"coding":[{"system":"http://terminology.hl7.org/CodeSystem/observation-category","code":"exam","display":"exam","userSelected":true}]}],"code":{"coding":[{"system":"http://loinc.org","code":"93857-1"}]},"subject":{"reference":"Patient/6b0bd714-e832-4b86-85ba-7a860e8cc4f0"},"effectiveDateTime":"2026-06-08T20:00:00.000+00:00","valueDateTime":"2026-06-08T20:00:00+00:00"},"request":{"method":"PUT","url":"Observation/bd7b0b39-7316-45b4-8364-2e33feb6cce0"}},{"fullUrl":"https://madie.cms.gov/Encounter/508467c0-0588-4c49-8862-a6836b2324ed","resource":{"resourceType":"Encounter","id":"508467c0-0588-4c49-8862-a6836b2324ed","meta":{"profile":["http://hl7.org/fhir/us/qicore/StructureDefinition/qicore-encounter"]},"status":"finished","class":{"system":"http://terminology.hl7.org/CodeSystem/v3-ActCode","code":"IMP","display":"inpatient encounter"},"type":[{"coding":[{"system":"http://snomed.info/sct","code":"183452005"}]}],"subject":{"reference":"Patient/6b0bd714-e832-4b86-85ba-7a860e8cc4f0"},"period":{"start":"2026-06-08T08:00:00.000Z","end":"2026-06-10T08:15:00.000Z"},"length":{"value":2,"unit":"days"},"diagnosis":[{"condition":{"reference":"Condition/delivery-of-singleton-f83c"},"use":{"coding":[{"system":"http://snomed.info/sct","code":"169826009","display":"Delivery of Singleton"}]}},{"condition":{"reference":"Condition/980c5dc5-4492-4706-856b-89e6828bd535"}}]},"request":{"method":"PUT","url":"Encounter/508467c0-0588-4c49-8862-a6836b2324ed"}},{"fullUrl":"https://madie.cms.gov/Procedure/2d0b7757-91b8-425d-b4a1-429d509960b2","resource":{"resourceType":"Procedure","id":"2d0b7757-91b8-425d-b4a1-429d509960b2","meta":{"profile":["http://hl7.org/fhir/us/qicore/StructureDefinition/qicore-procedure"]},"extension":[{"url":"http://hl7.org/fhir/us/qicore/StructureDefinition/qicore-recorded","valueDateTime":"2014-04-05T09:35:00-04:00"}],"status":"completed","code":{"coding":[{"system":"http://www.cms.gov/Medicare/Coding/ICD10","code":"10D07Z3"},{"system":"http://www.icd10data.com/icd10pcs","code":"10D07Z3","userSelected":true}]},"subject":{"reference":"Patient/6b0bd714-e832-4b86-85ba-7a860e8cc4f0"},"performedPeriod":{"start":"2026-06-08T08:10:00.000Z","end":"2026-06-08T09:14:00.000Z"}},"request":{"method":"PUT","url":"Procedure/2d0b7757-91b8-425d-b4a1-429d509960b2"}},{"fullUrl":"https://madie.cms.gov/Condition/980c5dc5-4492-4706-856b-89e6828bd535","resource":{"resourceType":"Condition","id":"980c5dc5-4492-4706-856b-89e6828bd535","meta":{"profile":["http://hl7.org/fhir/us/qicore/StructureDefinition/qicore-condition"]},"category":[{"coding":[{"system":"http://terminology.hl7.org/CodeSystem/condition-category","code":"encounter-diagnosis","display":"Encounter Diagnosis"}]}],"code":{"coding":[{"system":"http://snomed.info/sct","version":"2022-09","code":"169826009","display":"Single live birth (finding)","userSelected":true}]},"subject":{"reference":"Patient/6b0bd714-e832-4b86-85ba-7a860e8cc4f0"},"recordedDate":"2026-10-21T08:00:00.000+00:00"},"request":{"method":"PUT","url":"Condition/980c5dc5-4492-4706-856b-89e6828bd535"}},{"fullUrl":"https://madie.cms.gov/Coverage/a31664de-f300-49c2-9c39-4d64b927e8b6","resource":{"resourceType":"Coverage","id":"a31664de-f300-49c2-9c39-4d64b927e8b6","meta":{"profile":["http://hl7.org/fhir/us/qicore/StructureDefinition/qicore-coverage"]},"status":"active","beneficiary":{"reference":"Patient/6b0bd714-e832-4b86-85ba-7a860e8cc4f0"},"payor":[{"reference":"Organization/3778262e-e084-4bb5-9a47-1a144735f786"}]},"request":{"method":"PUT","url":"Coverage/a31664de-f300-49c2-9c39-4d64b927e8b6"}},{"fullUrl":"https://madie.cms.gov/Organization/3a9f7355-3755-4ec3-91b0-596e8f44e1ab","resource":{"resourceType":"Organization","id":"3778262e-e084-4bb5-9a47-1a144735f786","meta":{"profile":["http://hl7.org/fhir/us/qicore/StructureDefinition/qicore-organization"]},"identifier":[{"use":"temp","system":"urn:oid:2.16.840.1.113883.4.4","value":"21-3259825"}],"active":true,"type":[{"coding":[{"system":"http://terminology.hl7.org/CodeSystem/organization-type","code":"pay","display":"Payer"}]}],"name":"Blue Cross Blue Shield of Texas","telecom":[{"system":"phone","value":"(+1) 972-766-6900"}],"address":[{"use":"billing","type":"postal","line":["P.O. Box 660044"],"city":"Dallas","state":"TX","postalCode":"75266-0044","country":"USA"}]},"request":{"method":"PUT","url":"Organization/3778262e-e084-4bb5-9a47-1a144735f786"}},{"fullUrl":"https://madie.cms.gov/Practitioner/8bbbfcff-473b-4467-a54b-916f6b11b5c6","resource":{"resourceType":"Practitioner","id":"8bbbfcff-473b-4467-a54b-916f6b11b5c6","identifier":[{"system":"http://hl7.org/fhir/sid/us-npi","value":"123456"}],"name":[{"family":"Evil","prefix":["Dr"]}]},"request":{"method":"PUT","url":"Practitioner/8bbbfcff-473b-4467-a54b-916f6b11b5c6"}},{"fullUrl":"https://madie.cms.gov/MeasureReport/1dddd2a6-5435-4b1e-8822-c4a118f6a0cd","resource":{"resourceType":"MeasureReport","id":"1dddd2a6-5435-4b1e-8822-c4a118f6a0cd","meta":{"profile":["http://hl7.org/fhir/us/cqfmeasures/StructureDefinition/test-case-cqfm"]},"contained":[{"resourceType":"Parameters","id":"c32bb6a6-0060-4b0f-9120-e5a1f104c729-parameters","parameter":[{"name":"subject","valueString":"6b0bd714-e832-4b86-85ba-7a860e8cc4f0"}]}],"extension":[{"url":"http://hl7.org/fhir/us/cqfmeasures/StructureDefinition/cqfm-inputParameters","valueReference":{"reference":"#c32bb6a6-0060-4b0f-9120-e5a1f104c729-parameters"}},{"url":"http://hl7.org/fhir/us/cqfmeasures/StructureDefinition/cqfm-testCaseDescription","valueMarkdown":" Pt is 27 years of age,  encounter dx delivery of singleton, gravida rel date/time 42 weeks or less before time of delivery.  This fails because  gravida Result is Null\n"}],"modifierExtension":[{"url":"http://hl7.org/fhir/us/cqfmeasures/StructureDefinition/cqfm-isTestCase","valueBoolean":true}],"status":"complete","type":"individual","measure":"https://madie.cms.gov/Measure/CMS334FHIRPCCesareanBirth","period":{"start":"2026-01-01","end":"2026-12-31"},"group":[{"population":[{"code":{"coding":[{"system":"http://terminology.hl7.org/CodeSystem/measure-population","code":"initial-population","display":"Initial Population"}]},"count":1},{"code":{"coding":[{"system":"http://terminology.hl7.org/CodeSystem/measure-population","code":"denominator","display":"Denominator"}]},"count":0},{"code":{"coding":[{"system":"http://terminology.hl7.org/CodeSystem/measure-population","code":"denominator-exclusion","display":"Denominator Exclusion"}]},"count":0},{"code":{"coding":[{"system":"http://terminology.hl7.org/CodeSystem/measure-population","code":"numerator","display":"Numerator"}]},"count":0}]}]},"request":{"method":"PUT","url":"MeasureReport/1dddd2a6-5435-4b1e-8822-c4a118f6a0cd"}}]}