{"resourceType":"Bundle","id":"tests-839d14a7-b370-4b12-b324-60a7a810b77c-bundle","type":"transaction","entry":[{"fullUrl":"https://madie.cms.gov/Patient/839d14a7-b370-4b12-b324-60a7a810b77c","resource":{"resourceType":"Patient","id":"839d14a7-b370-4b12-b324-60a7a810b77c","meta":{"profile":["http://hl7.org/fhir/us/qicore/StructureDefinition/qicore-patient"]},"text":{"status":"generated","div":"<div xmlns=\"http://www.w3.org/1999/xhtml\"><div class=\"hapiHeaderText\">AssessTerm0RelDtTimeB4TimeOfDelivDtTime <b>DENPASS </b></div><table class=\"hapiPropertyTable\"><tbody><tr><td>Identifier</td><td>98b486907e2f425b582fc615d2904634e2f052873def7e64eba3846957a32ac0</td></tr><tr><td>Date of birth</td><td><span>14 February 1985</span></td></tr></tbody></table></div>"},"extension":[{"url":"http://hl7.org/fhir/us/core/StructureDefinition/us-core-race","extension":[{"url":"ombCategory","valueCoding":{"system":"urn:oid:2.16.840.1.113883.6.238","code":"1002-5","display":"American Indian or Alaska Native","userSelected":true}},{"url":"text","valueString":"American Indian or Alaska Native"}]},{"url":"http://hl7.org/fhir/us/core/StructureDefinition/us-core-ethnicity","extension":[{"url":"ombCategory","valueCoding":{"system":"urn:oid:2.16.840.1.113883.6.238","code":"2135-2","display":"Hispanic or Latino","userSelected":true}},{"url":"text","valueString":"Hispanic or Latino"}]}],"identifier":[{"type":{"coding":[{"system":"http://terminology.hl7.org/CodeSystem/v2-0203","code":"MR"}]},"system":"https://bonnie-fhir.healthit.gov/","value":"63487c2d0968f80122540160"}],"active":true,"name":[{"use":"usual","family":"DENPass","given":["AssessTerm0RelDtTimeB4TimeOfDelivDtTime"]}],"gender":"female","birthDate":"1998-02-14"},"request":{"method":"PUT","url":"Patient/839d14a7-b370-4b12-b324-60a7a810b77c"}},{"fullUrl":"https://madie.cms.gov/Observation/d2179aa6-6662-4638-a4f4-996a41abc2fc","resource":{"resourceType":"Observation","id":"d2179aa6-6662-4638-a4f4-996a41abc2fc","meta":{"profile":["http://hl7.org/fhir/us/qicore/StructureDefinition/qicore-observation"]},"status":"final","category":[{"coding":[{"system":"http://terminology.hl7.org/CodeSystem/observation-category","code":"exam","display":"exam","userSelected":true}]}],"code":{"coding":[{"system":"http://loinc.org","code":"11637-6"}]},"subject":{"reference":"Patient/839d14a7-b370-4b12-b324-60a7a810b77c"},"effectiveDateTime":"2025-09-19T09:00:00.000+00:00","valueInteger":0},"request":{"method":"PUT","url":"Observation/d2179aa6-6662-4638-a4f4-996a41abc2fc"}},{"fullUrl":"https://madie.cms.gov/Observation/569905a4-054e-42f2-88e2-b5208efe1b6c","resource":{"resourceType":"Observation","id":"569905a4-054e-42f2-88e2-b5208efe1b6c","meta":{"profile":["http://hl7.org/fhir/us/qicore/StructureDefinition/qicore-observation"]},"status":"final","category":[{"coding":[{"system":"http://terminology.hl7.org/CodeSystem/observation-category","code":"exam","display":"exam","userSelected":true}]}],"code":{"coding":[{"system":"http://loinc.org","code":"11639-2"}]},"subject":{"reference":"Patient/839d14a7-b370-4b12-b324-60a7a810b77c"},"effectiveDateTime":"2026-06-08T17:00:00.000+00:00","valueInteger":0},"request":{"method":"PUT","url":"Observation/569905a4-054e-42f2-88e2-b5208efe1b6c"}},{"fullUrl":"https://madie.cms.gov/Observation/3ad9eb94-81b1-45a7-a9b4-8dbc71e28ede","resource":{"resourceType":"Observation","id":"3ad9eb94-81b1-45a7-a9b4-8dbc71e28ede","meta":{"profile":["http://hl7.org/fhir/us/qicore/StructureDefinition/qicore-observation"]},"status":"final","category":[{"coding":[{"system":"http://terminology.hl7.org/CodeSystem/observation-category","code":"exam","display":"exam","userSelected":true}]}],"code":{"coding":[{"system":"http://loinc.org","code":"11884-4"}]},"subject":{"reference":"Patient/839d14a7-b370-4b12-b324-60a7a810b77c"},"effectiveDateTime":"2026-06-08T20:00:00.000+00:00","valueQuantity":{"value":37,"system":"http://unitsofmeasure.org","code":"wk"}},"request":{"method":"PUT","url":"Observation/3ad9eb94-81b1-45a7-a9b4-8dbc71e28ede"}},{"fullUrl":"https://madie.cms.gov/Observation/f0ee4499-33a9-4b71-ba06-e81b160e966a","resource":{"resourceType":"Observation","id":"f0ee4499-33a9-4b71-ba06-e81b160e966a","meta":{"profile":["http://hl7.org/fhir/us/qicore/StructureDefinition/qicore-observation"]},"status":"final","category":[{"coding":[{"system":"http://terminology.hl7.org/CodeSystem/observation-category","code":"exam","display":"exam","userSelected":true}]}],"code":{"coding":[{"system":"http://loinc.org","code":"93857-1"}]},"subject":{"reference":"Patient/839d14a7-b370-4b12-b324-60a7a810b77c"},"effectiveDateTime":"2026-06-08T20:00:00.000+00:00","valueDateTime":"2026-06-08T20:00:00+00:00"},"request":{"method":"PUT","url":"Observation/f0ee4499-33a9-4b71-ba06-e81b160e966a"}},{"fullUrl":"https://madie.cms.gov/Encounter/42cdba3b-d3e6-4747-830f-766c7b12b453","resource":{"resourceType":"Encounter","id":"42cdba3b-d3e6-4747-830f-766c7b12b453","meta":{"profile":["http://hl7.org/fhir/us/qicore/StructureDefinition/qicore-encounter"]},"status":"finished","class":{"system":"http://terminology.hl7.org/CodeSystem/v3-ActCode","code":"IMP","display":"inpatient encounter"},"type":[{"coding":[{"system":"http://snomed.info/sct","code":"8715000"}]}],"subject":{"reference":"Patient/839d14a7-b370-4b12-b324-60a7a810b77c"},"period":{"start":"2026-06-08T08:00:00.000Z","end":"2026-06-10T08:15:00.000Z"},"length":{"value":2,"unit":"days"},"diagnosis":[{"condition":{"reference":"Condition/delivery-of-singleton-f83c"},"use":{"coding":[{"system":"http://snomed.info/sct","code":"169826009","display":"Delivery of Singleton"}]}},{"condition":{"reference":"Condition/4dda5c58-16e9-48b1-8427-a5c1014861ac"}}]},"request":{"method":"PUT","url":"Encounter/42cdba3b-d3e6-4747-830f-766c7b12b453"}},{"fullUrl":"https://madie.cms.gov/Coverage/7e720903-2b27-4384-b6d5-8bb8750794ee","resource":{"resourceType":"Coverage","id":"7e720903-2b27-4384-b6d5-8bb8750794ee","status":"active","beneficiary":{"reference":"Patient/839d14a7-b370-4b12-b324-60a7a810b77c"},"period":{"start":"1986-02-14T08:00:00.000Z"},"payor":[{"reference":"Organization/3e899f33-84eb-4634-a770-a5a0bd7a80e7"}]},"request":{"method":"PUT","url":"Coverage/7e720903-2b27-4384-b6d5-8bb8750794ee"}},{"fullUrl":"https://madie.cms.gov/Procedure/7ab8f6ad-5da8-45f6-acbb-27051854e611","resource":{"resourceType":"Procedure","id":"7ab8f6ad-5da8-45f6-acbb-27051854e611","meta":{"profile":["http://hl7.org/fhir/us/qicore/StructureDefinition/qicore-procedure"]},"extension":[{"url":"http://hl7.org/fhir/us/qicore/StructureDefinition/qicore-recorded","valueDateTime":"2014-04-05T09:35:00-04:00"}],"status":"completed","code":{"coding":[{"system":"http://www.cms.gov/Medicare/Coding/ICD10","code":"10D00Z0"},{"system":"http://snomed.info/sct","code":"4504004"},{"system":"http://www.icd10data.com/icd10pcs","code":"10D00Z1","userSelected":true}]},"subject":{"reference":"Patient/839d14a7-b370-4b12-b324-60a7a810b77c"},"performedPeriod":{"start":"2026-06-08T20:00:00.000Z","end":"2026-06-08T20:15:00.000Z"}},"request":{"method":"PUT","url":"Procedure/7ab8f6ad-5da8-45f6-acbb-27051854e611"}},{"fullUrl":"https://madie.cms.gov/Condition/4dda5c58-16e9-48b1-8427-a5c1014861ac","resource":{"resourceType":"Condition","id":"4dda5c58-16e9-48b1-8427-a5c1014861ac","meta":{"profile":["http://hl7.org/fhir/us/qicore/StructureDefinition/qicore-condition"]},"category":[{"coding":[{"system":"http://terminology.hl7.org/CodeSystem/condition-category","code":"encounter-diagnosis","display":"Encounter Diagnosis"}]}],"code":{"coding":[{"system":"http://snomed.info/sct","version":"2022-09","code":"169826009","display":"Single live birth (finding)","userSelected":true}]},"subject":{"reference":"Patient/839d14a7-b370-4b12-b324-60a7a810b77c"},"recordedDate":"2026-10-20T08:00:00.000+00:00"},"request":{"method":"PUT","url":"Condition/4dda5c58-16e9-48b1-8427-a5c1014861ac"}},{"fullUrl":"https://madie.cms.gov/Organization/c314981c-23a4-44c2-891f-c54b46339c3b","resource":{"resourceType":"Organization","id":"3e899f33-84eb-4634-a770-a5a0bd7a80e7","meta":{"profile":["http://hl7.org/fhir/us/qicore/StructureDefinition/qicore-organization"]},"identifier":[{"use":"temp","system":"urn:oid:2.16.840.1.113883.4.4","value":"21-3259825"}],"active":true,"type":[{"coding":[{"system":"http://terminology.hl7.org/CodeSystem/organization-type","code":"pay","display":"Payer"}]}],"name":"Blue Cross Blue Shield of Texas","telecom":[{"system":"phone","value":"(+1) 972-766-6900"}],"address":[{"use":"billing","type":"postal","line":["P.O. Box 660044"],"city":"Dallas","state":"TX","postalCode":"75266-0044","country":"USA"}]},"request":{"method":"PUT","url":"Organization/3e899f33-84eb-4634-a770-a5a0bd7a80e7"}},{"fullUrl":"https://madie.cms.gov/Practitioner/a38143f8-4bdc-4dbc-8479-13ebcc1c2bd2","resource":{"resourceType":"Practitioner","id":"a38143f8-4bdc-4dbc-8479-13ebcc1c2bd2","identifier":[{"system":"http://hl7.org/fhir/sid/us-npi","value":"123456"}],"name":[{"family":"Evil","prefix":["Dr"]}]},"request":{"method":"PUT","url":"Practitioner/a38143f8-4bdc-4dbc-8479-13ebcc1c2bd2"}},{"fullUrl":"https://madie.cms.gov/MeasureReport/2c2df988-9bff-4284-942e-f6af797d83d6","resource":{"resourceType":"MeasureReport","id":"2c2df988-9bff-4284-942e-f6af797d83d6","meta":{"profile":["http://hl7.org/fhir/us/cqfmeasures/StructureDefinition/test-case-cqfm"]},"contained":[{"resourceType":"Parameters","id":"818b89bc-52a1-4870-bdf2-4fd44db67dd5-parameters","parameter":[{"name":"subject","valueString":"839d14a7-b370-4b12-b324-60a7a810b77c"}]}],"extension":[{"url":"http://hl7.org/fhir/us/cqfmeasures/StructureDefinition/cqfm-inputParameters","valueReference":{"reference":"#818b89bc-52a1-4870-bdf2-4fd44db67dd5-parameters"}},{"url":"http://hl7.org/fhir/us/cqfmeasures/StructureDefinition/cqfm-testCaseDescription","valueMarkdown":"\"Preterm Births=0, rel date/time < 42weeks prior to delivery\nTerm Newborn=0, rel date/time same date and before delivery time\"\n"}],"modifierExtension":[{"url":"http://hl7.org/fhir/us/cqfmeasures/StructureDefinition/cqfm-isTestCase","valueBoolean":true}],"status":"complete","type":"individual","measure":"https://madie.cms.gov/Measure/CMS334FHIRPCCesareanBirth","period":{"start":"2026-01-01","end":"2026-12-31"},"group":[{"population":[{"code":{"coding":[{"system":"http://terminology.hl7.org/CodeSystem/measure-population","code":"initial-population","display":"Initial Population"}]},"count":1},{"code":{"coding":[{"system":"http://terminology.hl7.org/CodeSystem/measure-population","code":"denominator","display":"Denominator"}]},"count":1},{"code":{"coding":[{"system":"http://terminology.hl7.org/CodeSystem/measure-population","code":"denominator-exclusion","display":"Denominator Exclusion"}]},"count":0},{"code":{"coding":[{"system":"http://terminology.hl7.org/CodeSystem/measure-population","code":"numerator","display":"Numerator"}]},"count":1}]}]},"request":{"method":"PUT","url":"MeasureReport/2c2df988-9bff-4284-942e-f6af797d83d6"}}]}