{"resourceType":"Bundle","id":"tests-f448b52e-d9bf-4989-88c9-20b8a8d9907e-bundle","type":"transaction","entry":[{"fullUrl":"https://madie.cms.gov/Patient/f448b52e-d9bf-4989-88c9-20b8a8d9907e","resource":{"resourceType":"Patient","id":"f448b52e-d9bf-4989-88c9-20b8a8d9907e","meta":{"profile":["http://hl7.org/fhir/us/qicore/StructureDefinition/qicore-patient"]},"text":{"status":"generated","div":"<div xmlns=\"http://www.w3.org/1999/xhtml\"><div class=\"hapiHeaderText\">AssessP0RelDtTimeEQTimeOfDeliv <b>DENFAIL </b></div><table class=\"hapiPropertyTable\"><tbody><tr><td>Identifier</td><td>3ea719415f2f0fb521730d958474147ea3705811d2881f35f880c69e959fdbb1</td></tr><tr><td>Date of birth</td><td><span>14 February 1985</span></td></tr></tbody></table></div>"},"extension":[{"url":"http://hl7.org/fhir/us/core/StructureDefinition/us-core-race","extension":[{"url":"ombCategory","valueCoding":{"system":"urn:oid:2.16.840.1.113883.6.238","code":"1002-5","display":"American Indian or Alaska Native","userSelected":true}},{"url":"text","valueString":"American Indian or Alaska Native"}]},{"url":"http://hl7.org/fhir/us/core/StructureDefinition/us-core-ethnicity","extension":[{"url":"ombCategory","valueCoding":{"system":"urn:oid:2.16.840.1.113883.6.238","code":"2135-2","display":"Hispanic or Latino","userSelected":true}},{"url":"text","valueString":"Hispanic or Latino"}]}],"identifier":[{"type":{"coding":[{"system":"http://terminology.hl7.org/CodeSystem/v2-0203","code":"MR"}]},"system":"https://bonnie-fhir.healthit.gov/","value":"63487c2e0968f80122540167"}],"active":true,"name":[{"use":"usual","family":"DENFail","given":["AssessP0RelDtTimeEQTimeOfDeliv"]}],"gender":"female","birthDate":"1998-02-14"},"request":{"method":"PUT","url":"Patient/f448b52e-d9bf-4989-88c9-20b8a8d9907e"}},{"fullUrl":"https://madie.cms.gov/Observation/eef03c26-42cd-4e1d-8916-d1f3f43acd6e","resource":{"resourceType":"Observation","id":"eef03c26-42cd-4e1d-8916-d1f3f43acd6e","meta":{"profile":["http://hl7.org/fhir/us/qicore/StructureDefinition/qicore-observation"]},"status":"final","category":[{"coding":[{"system":"http://terminology.hl7.org/CodeSystem/observation-category","code":"exam","display":"exam","userSelected":true}]}],"code":{"coding":[{"system":"http://loinc.org","code":"11977-6"}]},"subject":{"reference":"Patient/f448b52e-d9bf-4989-88c9-20b8a8d9907e"},"effectiveDateTime":"2026-06-08T20:00:00.000+00:00","valueInteger":0},"request":{"method":"PUT","url":"Observation/eef03c26-42cd-4e1d-8916-d1f3f43acd6e"}},{"fullUrl":"https://madie.cms.gov/Observation/406c1c5b-f450-46e6-814c-dd41dcb65b84","resource":{"resourceType":"Observation","id":"406c1c5b-f450-46e6-814c-dd41dcb65b84","meta":{"profile":["http://hl7.org/fhir/us/qicore/StructureDefinition/qicore-observation"]},"status":"final","category":[{"coding":[{"system":"http://terminology.hl7.org/CodeSystem/observation-category","code":"exam","display":"exam","userSelected":true}]}],"code":{"coding":[{"system":"http://loinc.org","code":"11884-4"}]},"subject":{"reference":"Patient/f448b52e-d9bf-4989-88c9-20b8a8d9907e"},"effectiveDateTime":"2026-06-08T20:00:00.000+00:00","valueQuantity":{"value":37,"system":"http://unitsofmeasure.org","code":"wk"}},"request":{"method":"PUT","url":"Observation/406c1c5b-f450-46e6-814c-dd41dcb65b84"}},{"fullUrl":"https://madie.cms.gov/Observation/85938283-bb06-47ff-8bff-9b0fdbab796b","resource":{"resourceType":"Observation","id":"85938283-bb06-47ff-8bff-9b0fdbab796b","meta":{"profile":["http://hl7.org/fhir/us/qicore/StructureDefinition/qicore-observation"]},"status":"final","category":[{"coding":[{"system":"http://terminology.hl7.org/CodeSystem/observation-category","code":"exam","display":"exam","userSelected":true}]}],"code":{"coding":[{"system":"http://loinc.org","code":"93857-1"}]},"subject":{"reference":"Patient/f448b52e-d9bf-4989-88c9-20b8a8d9907e"},"effectiveDateTime":"2026-06-08T20:00:00.000+00:00","valueDateTime":"2026-06-08T20:00:00+00:00"},"request":{"method":"PUT","url":"Observation/85938283-bb06-47ff-8bff-9b0fdbab796b"}},{"fullUrl":"https://madie.cms.gov/Encounter/22eaf362-e3eb-4eab-b8ed-499f59de7167","resource":{"resourceType":"Encounter","id":"22eaf362-e3eb-4eab-b8ed-499f59de7167","meta":{"profile":["http://hl7.org/fhir/us/qicore/StructureDefinition/qicore-encounter"]},"status":"finished","class":{"system":"http://terminology.hl7.org/CodeSystem/v3-ActCode","code":"IMP","display":"inpatient encounter"},"type":[{"coding":[{"system":"http://snomed.info/sct","code":"8715000"}]}],"subject":{"reference":"Patient/f448b52e-d9bf-4989-88c9-20b8a8d9907e"},"period":{"start":"2026-06-08T08:00:00.000Z","end":"2026-06-10T08:15:00.000Z"},"length":{"value":2,"unit":"days"},"diagnosis":[{"condition":{"reference":"Condition/delivery-of-singleton-f83c"},"use":{"coding":[{"system":"http://snomed.info/sct","code":"169826009","display":"Delivery of Singleton"}]}},{"condition":{"reference":"Condition/b41b7200-5c36-42ad-befe-7d8faf28b86e"}}]},"request":{"method":"PUT","url":"Encounter/22eaf362-e3eb-4eab-b8ed-499f59de7167"}},{"fullUrl":"https://madie.cms.gov/Procedure/61fa4aba-cc3f-49bf-98ea-ee816034cf9f","resource":{"resourceType":"Procedure","id":"61fa4aba-cc3f-49bf-98ea-ee816034cf9f","meta":{"profile":["http://hl7.org/fhir/us/qicore/StructureDefinition/qicore-procedure"]},"extension":[{"url":"http://hl7.org/fhir/us/qicore/StructureDefinition/qicore-recorded","valueDateTime":"2014-04-05T09:35:00-04:00"}],"status":"completed","code":{"coding":[{"system":"http://www.cms.gov/Medicare/Coding/ICD10","code":"10D00Z0"},{"system":"http://snomed.info/sct","code":"4504004"},{"system":"http://www.icd10data.com/icd10pcs","code":"10D00Z0","userSelected":true}]},"subject":{"reference":"Patient/f448b52e-d9bf-4989-88c9-20b8a8d9907e"},"performedPeriod":{"start":"2026-06-08T20:00:00.000Z","end":"2026-06-08T20:15:00.000Z"}},"request":{"method":"PUT","url":"Procedure/61fa4aba-cc3f-49bf-98ea-ee816034cf9f"}},{"fullUrl":"https://madie.cms.gov/Condition/b41b7200-5c36-42ad-befe-7d8faf28b86e","resource":{"resourceType":"Condition","id":"b41b7200-5c36-42ad-befe-7d8faf28b86e","meta":{"profile":["http://hl7.org/fhir/us/qicore/StructureDefinition/qicore-condition"]},"category":[{"coding":[{"system":"http://terminology.hl7.org/CodeSystem/condition-category","code":"encounter-diagnosis","display":"Encounter Diagnosis"}]}],"code":{"coding":[{"system":"http://snomed.info/sct","version":"2022-09","code":"169826009","display":"Single live birth (finding)","userSelected":true}]},"subject":{"reference":"Patient/f448b52e-d9bf-4989-88c9-20b8a8d9907e"},"recordedDate":"2026-10-21T08:00:00.000+00:00"},"request":{"method":"PUT","url":"Condition/b41b7200-5c36-42ad-befe-7d8faf28b86e"}},{"fullUrl":"https://madie.cms.gov/Coverage/9355e16b-571d-4299-a4d7-d3c14a398d52","resource":{"resourceType":"Coverage","id":"9355e16b-571d-4299-a4d7-d3c14a398d52","meta":{"profile":["http://hl7.org/fhir/us/qicore/StructureDefinition/qicore-coverage"]},"status":"active","beneficiary":{"reference":"Patient/f448b52e-d9bf-4989-88c9-20b8a8d9907e"},"payor":[{"reference":"Organization/890316dc-a4ad-43b4-ba6f-9fb9e6eca282"}]},"request":{"method":"PUT","url":"Coverage/9355e16b-571d-4299-a4d7-d3c14a398d52"}},{"fullUrl":"https://madie.cms.gov/Organization/578a9f0c-2008-4113-909c-f36c4a9660a9","resource":{"resourceType":"Organization","id":"890316dc-a4ad-43b4-ba6f-9fb9e6eca282","meta":{"profile":["http://hl7.org/fhir/us/qicore/StructureDefinition/qicore-organization"]},"identifier":[{"use":"temp","system":"urn:oid:2.16.840.1.113883.4.4","value":"21-3259825"}],"active":true,"type":[{"coding":[{"system":"http://terminology.hl7.org/CodeSystem/organization-type","code":"pay","display":"Payer"}]}],"name":"Blue Cross Blue Shield of Texas","telecom":[{"system":"phone","value":"(+1) 972-766-6900"}],"address":[{"use":"billing","type":"postal","line":["P.O. Box 660044"],"city":"Dallas","state":"TX","postalCode":"75266-0044","country":"USA"}]},"request":{"method":"PUT","url":"Organization/890316dc-a4ad-43b4-ba6f-9fb9e6eca282"}},{"fullUrl":"https://madie.cms.gov/Practitioner/4e77f136-779e-4cfa-881a-482842b35c7d","resource":{"resourceType":"Practitioner","id":"4e77f136-779e-4cfa-881a-482842b35c7d","identifier":[{"system":"http://hl7.org/fhir/sid/us-npi","value":"123456"}],"name":[{"family":"Evil","prefix":["Dr"]}]},"request":{"method":"PUT","url":"Practitioner/4e77f136-779e-4cfa-881a-482842b35c7d"}},{"fullUrl":"https://madie.cms.gov/MeasureReport/612a1847-4741-4c84-bf74-d9fff7b0660e","resource":{"resourceType":"MeasureReport","id":"612a1847-4741-4c84-bf74-d9fff7b0660e","meta":{"profile":["http://hl7.org/fhir/us/cqfmeasures/StructureDefinition/test-case-cqfm"]},"contained":[{"resourceType":"Parameters","id":"513fd066-c88e-48e0-b439-22d8c395b6de-parameters","parameter":[{"name":"subject","valueString":"f448b52e-d9bf-4989-88c9-20b8a8d9907e"}]}],"extension":[{"url":"http://hl7.org/fhir/us/cqfmeasures/StructureDefinition/cqfm-inputParameters","valueReference":{"reference":"#513fd066-c88e-48e0-b439-22d8c395b6de-parameters"}},{"url":"http://hl7.org/fhir/us/cqfmeasures/StructureDefinition/cqfm-testCaseDescription","valueMarkdown":"Parity=0, relative date/time same date and time as delivery date/time.\n"}],"modifierExtension":[{"url":"http://hl7.org/fhir/us/cqfmeasures/StructureDefinition/cqfm-isTestCase","valueBoolean":true}],"status":"complete","type":"individual","measure":"https://madie.cms.gov/Measure/CMS334FHIRPCCesareanBirth","period":{"start":"2026-01-01","end":"2026-12-31"},"group":[{"population":[{"code":{"coding":[{"system":"http://terminology.hl7.org/CodeSystem/measure-population","code":"initial-population","display":"Initial Population"}]},"count":1},{"code":{"coding":[{"system":"http://terminology.hl7.org/CodeSystem/measure-population","code":"denominator","display":"Denominator"}]},"count":0},{"code":{"coding":[{"system":"http://terminology.hl7.org/CodeSystem/measure-population","code":"denominator-exclusion","display":"Denominator Exclusion"}]},"count":0},{"code":{"coding":[{"system":"http://terminology.hl7.org/CodeSystem/measure-population","code":"numerator","display":"Numerator"}]},"count":0}]}]},"request":{"method":"PUT","url":"MeasureReport/612a1847-4741-4c84-bf74-d9fff7b0660e"}}]}