{"resourceType":"Bundle","id":"tests-655df7e2-45d9-4dab-b218-863126c06ec7-bundle","type":"transaction","entry":[{"fullUrl":"https://madie.cms.gov/Patient/655df7e2-45d9-4dab-b218-863126c06ec7","resource":{"resourceType":"Patient","id":"655df7e2-45d9-4dab-b218-863126c06ec7","meta":{"profile":["http://hl7.org/fhir/us/qicore/StructureDefinition/qicore-patient"]},"text":{"status":"generated","div":"<div xmlns=\"http://www.w3.org/1999/xhtml\"><div class=\"hapiHeaderText\">AgeEQ8 <b>IPPASS </b></div><table class=\"hapiPropertyTable\"><tbody><tr><td>Identifier</td><td>d130de5f4e42b38bd935fc8ebcd660c0e5f442917fd322d307794dfacd0563d2</td></tr><tr><td>Date of birth</td><td><span>14 February 2004</span></td></tr></tbody></table></div>"},"extension":[{"url":"http://hl7.org/fhir/us/core/StructureDefinition/us-core-race","extension":[{"url":"ombCategory","valueCoding":{"system":"urn:oid:2.16.840.1.113883.6.238","code":"1002-5","display":"American Indian or Alaska Native","userSelected":true}},{"url":"text","valueString":"American Indian or Alaska Native"}]},{"url":"http://hl7.org/fhir/us/core/StructureDefinition/us-core-ethnicity","extension":[{"url":"ombCategory","valueCoding":{"system":"urn:oid:2.16.840.1.113883.6.238","code":"2135-2","display":"Hispanic or Latino","userSelected":true}},{"url":"text","valueString":"Hispanic or Latino"}]}],"identifier":[{"type":{"coding":[{"system":"http://terminology.hl7.org/CodeSystem/v2-0203","code":"MR"}]},"system":"https://bonnie-fhir.healthit.gov/","value":"63487c2d0968f80122540149"}],"active":true,"name":[{"use":"usual","family":"IPPass","given":["AgeEQ8"]}],"gender":"female","birthDate":"1941-02-14"},"request":{"method":"PUT","url":"Patient/655df7e2-45d9-4dab-b218-863126c06ec7"}},{"fullUrl":"https://madie.cms.gov/Encounter/d2e5d97b-a30a-47a4-a500-a206d3e5bb56","resource":{"resourceType":"Encounter","id":"d2e5d97b-a30a-47a4-a500-a206d3e5bb56","meta":{"profile":["http://hl7.org/fhir/us/qicore/StructureDefinition/qicore-encounter"]},"status":"finished","class":{"system":"http://terminology.hl7.org/CodeSystem/v3-ActCode","code":"IMP","display":"inpatient encounter"},"type":[{"coding":[{"system":"http://snomed.info/sct","code":"8715000"}]}],"subject":{"reference":"Patient/655df7e2-45d9-4dab-b218-863126c06ec7"},"period":{"start":"2026-11-28T08:00:00.000Z","end":"2026-11-30T08:15:00.000Z"},"diagnosis":[{"condition":{"reference":"Condition/Condition-2"},"use":{"coding":[{"system":"http://snomed.info/sct","code":"169826009","display":"Delivery of Singleton"}]}}]},"request":{"method":"PUT","url":"Encounter/d2e5d97b-a30a-47a4-a500-a206d3e5bb56"}},{"fullUrl":"https://madie.cms.gov/Procedure/d66ad49a-eb55-445b-b925-6a5dd3ad0d12","resource":{"resourceType":"Procedure","id":"d66ad49a-eb55-445b-b925-6a5dd3ad0d12","meta":{"profile":["http://hl7.org/fhir/us/qicore/StructureDefinition/qicore-procedure"]},"extension":[{"url":"http://hl7.org/fhir/us/qicore/StructureDefinition/qicore-recorded","valueDateTime":"2014-04-05T09:35:00-04:00"}],"status":"completed","code":{"coding":[{"system":"http://snomed.info/sct","version":"2022-09","code":"10745001","display":"Delivery of transverse presentation (procedure)","userSelected":true}]},"subject":{"reference":"Patient/655df7e2-45d9-4dab-b218-863126c06ec7"},"performedDateTime":"2026-11-28T20:00:00.000+00:00"},"request":{"method":"PUT","url":"Procedure/d66ad49a-eb55-445b-b925-6a5dd3ad0d12"}},{"fullUrl":"https://madie.cms.gov/Coverage/23f031a4-fe20-492d-8d89-9e61e92c3c2e","resource":{"resourceType":"Coverage","id":"23f031a4-fe20-492d-8d89-9e61e92c3c2e","status":"active","type":{"coding":[{"system":"http://www.nlm.nih.gov/research/umls/sop","version":"9.2","code":"1","display":"MEDICARE","userSelected":true}]},"beneficiary":{"reference":"Patient/655df7e2-45d9-4dab-b218-863126c06ec7"},"period":{"start":"2026-11-28T08:00:00.000Z","end":"2026-11-30T08:15:00.000Z"},"payor":[{"reference":"Organization/f4907415-83c5-4eae-ab0b-cb63a840880d"}]},"request":{"method":"PUT","url":"Coverage/23f031a4-fe20-492d-8d89-9e61e92c3c2e"}},{"fullUrl":"https://madie.cms.gov/Organization/014e0775-9b6e-42d0-ac1c-8aebdf176f1b","resource":{"resourceType":"Organization","id":"f4907415-83c5-4eae-ab0b-cb63a840880d","meta":{"profile":["http://hl7.org/fhir/us/qicore/StructureDefinition/qicore-organization"]},"identifier":[{"use":"temp","system":"urn:oid:2.16.840.1.113883.4.4","value":"21-3259825"}],"active":true,"type":[{"coding":[{"system":"http://terminology.hl7.org/CodeSystem/organization-type","code":"pay","display":"Payer"}]}],"name":"Blue Cross Blue Shield of Texas","telecom":[{"system":"phone","value":"(+1) 972-766-6900"}],"address":[{"use":"billing","type":"postal","line":["P.O. Box 660044"],"city":"Dallas","state":"TX","postalCode":"75266-0044","country":"USA"}]},"request":{"method":"PUT","url":"Organization/f4907415-83c5-4eae-ab0b-cb63a840880d"}},{"fullUrl":"https://madie.cms.gov/Practitioner/2016ed0c-6d9a-46fc-9836-2ff4816887c6","resource":{"resourceType":"Practitioner","id":"2016ed0c-6d9a-46fc-9836-2ff4816887c6","identifier":[{"system":"http://hl7.org/fhir/sid/us-npi","value":"123456"}],"name":[{"family":"Evil","prefix":["Dr"]}]},"request":{"method":"PUT","url":"Practitioner/2016ed0c-6d9a-46fc-9836-2ff4816887c6"}},{"fullUrl":"https://madie.cms.gov/MeasureReport/a1c0411f-7e86-4659-a0bb-7439e1f8ea5a","resource":{"resourceType":"MeasureReport","id":"a1c0411f-7e86-4659-a0bb-7439e1f8ea5a","meta":{"profile":["http://hl7.org/fhir/us/cqfmeasures/StructureDefinition/test-case-cqfm"]},"contained":[{"resourceType":"Parameters","id":"5c8c5a9f-81b7-4b16-ba70-ff2b08af967b-parameters","parameter":[{"name":"subject","valueString":"655df7e2-45d9-4dab-b218-863126c06ec7"}]}],"extension":[{"url":"http://hl7.org/fhir/us/cqfmeasures/StructureDefinition/cqfm-inputParameters","valueReference":{"reference":"#5c8c5a9f-81b7-4b16-ba70-ff2b08af967b-parameters"}},{"url":"http://hl7.org/fhir/us/cqfmeasures/StructureDefinition/cqfm-testCaseDescription","valueMarkdown":"Pt >65 years of age .  This  is an intentional fail \n"}],"modifierExtension":[{"url":"http://hl7.org/fhir/us/cqfmeasures/StructureDefinition/cqfm-isTestCase","valueBoolean":true}],"status":"complete","type":"individual","measure":"https://madie.cms.gov/Measure/CMS334FHIRPCCesareanBirth","period":{"start":"2026-01-01","end":"2026-12-31"},"group":[{"population":[{"code":{"coding":[{"system":"http://terminology.hl7.org/CodeSystem/measure-population","code":"initial-population","display":"Initial Population"}]},"count":0},{"code":{"coding":[{"system":"http://terminology.hl7.org/CodeSystem/measure-population","code":"denominator","display":"Denominator"}]},"count":0},{"code":{"coding":[{"system":"http://terminology.hl7.org/CodeSystem/measure-population","code":"denominator-exclusion","display":"Denominator Exclusion"}]},"count":0},{"code":{"coding":[{"system":"http://terminology.hl7.org/CodeSystem/measure-population","code":"numerator","display":"Numerator"}]},"count":0}]}]},"request":{"method":"PUT","url":"MeasureReport/a1c0411f-7e86-4659-a0bb-7439e1f8ea5a"}}]}