{"resourceType":"Bundle","id":"tests-301cbb39-bf89-40f4-9539-4e1b9eb5e5be-bundle","type":"transaction","entry":[{"fullUrl":"https://madie.cms.gov/Patient/301cbb39-bf89-40f4-9539-4e1b9eb5e5be","resource":{"resourceType":"Patient","id":"301cbb39-bf89-40f4-9539-4e1b9eb5e5be","meta":{"profile":["http://hl7.org/fhir/us/qicore/StructureDefinition/qicore-patient"]},"text":{"status":"generated","div":"<div xmlns=\"http://www.w3.org/1999/xhtml\"><div class=\"hapiHeaderText\">AssessTimeOfDelivRelvDateTimeB4DelivEnc <b>DENFAIL </b></div><table class=\"hapiPropertyTable\"><tbody><tr><td>Identifier</td><td>47c319cd31456047c4f1e1acf1a65c9a687762be9778e0d4061ef15c003314c8</td></tr><tr><td>Date of birth</td><td><span>14 February 1985</span></td></tr></tbody></table></div>"},"extension":[{"url":"http://hl7.org/fhir/us/core/StructureDefinition/us-core-race","extension":[{"url":"ombCategory","valueCoding":{"system":"urn:oid:2.16.840.1.113883.6.238","code":"1002-5","display":"American Indian or Alaska Native","userSelected":true}},{"url":"text","valueString":"American Indian or Alaska Native"}]},{"url":"http://hl7.org/fhir/us/core/StructureDefinition/us-core-ethnicity","extension":[{"url":"ombCategory","valueCoding":{"system":"urn:oid:2.16.840.1.113883.6.238","code":"2135-2","display":"Hispanic or Latino","userSelected":true}},{"url":"text","valueString":"Hispanic or Latino"}]}],"identifier":[{"type":{"coding":[{"system":"http://terminology.hl7.org/CodeSystem/v2-0203","code":"MR"}]},"system":"https://bonnie-fhir.healthit.gov/","value":"63487c2e0968f80122540170"}],"active":true,"name":[{"use":"usual","family":"DENFail","given":["AssessTimeOfDelivRelvDateTimeB4DelivEnc  "]}],"gender":"female","birthDate":"1998-02-14"},"request":{"method":"PUT","url":"Patient/301cbb39-bf89-40f4-9539-4e1b9eb5e5be"}},{"fullUrl":"https://madie.cms.gov/Observation/1a8c8c1a-75a6-49de-8709-65e700cfec0c","resource":{"resourceType":"Observation","id":"1a8c8c1a-75a6-49de-8709-65e700cfec0c","meta":{"profile":["http://hl7.org/fhir/us/qicore/StructureDefinition/qicore-observation"]},"status":"final","category":[{"coding":[{"system":"http://terminology.hl7.org/CodeSystem/observation-category","code":"exam","display":"exam","userSelected":true}]}],"code":{"coding":[{"system":"http://loinc.org","code":"11996-6"}]},"subject":{"reference":"Patient/301cbb39-bf89-40f4-9539-4e1b9eb5e5be"},"effectiveDateTime":"2026-06-08T08:00:00.000+00:00","valueInteger":1},"request":{"method":"PUT","url":"Observation/1a8c8c1a-75a6-49de-8709-65e700cfec0c"}},{"fullUrl":"https://madie.cms.gov/Observation/07dd5719-ae61-4bf1-93bc-513f85d7e748","resource":{"resourceType":"Observation","id":"07dd5719-ae61-4bf1-93bc-513f85d7e748","meta":{"profile":["http://hl7.org/fhir/us/qicore/StructureDefinition/qicore-observation"]},"status":"final","category":[{"coding":[{"system":"http://terminology.hl7.org/CodeSystem/observation-category","code":"exam","display":"exam","userSelected":true}]}],"code":{"coding":[{"system":"http://loinc.org","code":"11884-4"}]},"subject":{"reference":"Patient/301cbb39-bf89-40f4-9539-4e1b9eb5e5be"},"effectiveDateTime":"2026-06-08T09:15:00.000+00:00","valueQuantity":{"value":38,"system":"http://unitsofmeasure.org","code":"wk"}},"request":{"method":"PUT","url":"Observation/07dd5719-ae61-4bf1-93bc-513f85d7e748"}},{"fullUrl":"https://madie.cms.gov/Observation/f7b9fa0a-dbdd-4c77-a224-b475535090f0","resource":{"resourceType":"Observation","id":"f7b9fa0a-dbdd-4c77-a224-b475535090f0","meta":{"profile":["http://hl7.org/fhir/us/qicore/StructureDefinition/qicore-observation"]},"status":"final","category":[{"coding":[{"system":"http://terminology.hl7.org/CodeSystem/observation-category","code":"exam","display":"exam","userSelected":true}]}],"code":{"coding":[{"system":"http://loinc.org","code":"93857-1"}]},"subject":{"reference":"Patient/301cbb39-bf89-40f4-9539-4e1b9eb5e5be"},"effectiveDateTime":"2026-06-05T09:15:00.000+00:00","valueDateTime":"2026-06-05T09:15:00+00:00"},"request":{"method":"PUT","url":"Observation/f7b9fa0a-dbdd-4c77-a224-b475535090f0"}},{"fullUrl":"https://madie.cms.gov/Encounter/c9974491-529a-4cd6-985e-9fdf9218f2b3","resource":{"resourceType":"Encounter","id":"c9974491-529a-4cd6-985e-9fdf9218f2b3","meta":{"profile":["http://hl7.org/fhir/us/qicore/StructureDefinition/qicore-encounter"]},"status":"finished","class":{"system":"http://terminology.hl7.org/CodeSystem/v3-ActCode","code":"IMP","display":"inpatient encounter"},"type":[{"coding":[{"system":"http://snomed.info/sct","code":"183452005"}]}],"subject":{"reference":"Patient/301cbb39-bf89-40f4-9539-4e1b9eb5e5be"},"period":{"start":"2026-06-08T08:00:00.000Z","end":"2026-06-10T08:15:00.000Z"},"length":{"value":2,"unit":"days"},"diagnosis":[{"condition":{"reference":"Condition/delivery-of-singleton-f83c"},"use":{"coding":[{"system":"http://snomed.info/sct","code":"169826009","display":"Delivery of Singleton"}]}},{"condition":{"reference":"Condition/534e4bab-79cc-4023-97ab-ff8cc88f2915"}}]},"request":{"method":"PUT","url":"Encounter/c9974491-529a-4cd6-985e-9fdf9218f2b3"}},{"fullUrl":"https://madie.cms.gov/Procedure/5ef3cb5f-d466-4ad5-a297-3f37f058a6b9","resource":{"resourceType":"Procedure","id":"5ef3cb5f-d466-4ad5-a297-3f37f058a6b9","meta":{"profile":["http://hl7.org/fhir/us/qicore/StructureDefinition/qicore-procedure"]},"extension":[{"url":"http://hl7.org/fhir/us/qicore/StructureDefinition/qicore-recorded","valueDateTime":"2014-04-05T09:35:00-04:00"}],"status":"completed","code":{"coding":[{"system":"http://www.cms.gov/Medicare/Coding/ICD10","code":"10D00Z0"},{"system":"http://www.icd10data.com/icd10pcs","code":"10D00Z0","userSelected":true}]},"subject":{"reference":"Patient/301cbb39-bf89-40f4-9539-4e1b9eb5e5be"},"performedPeriod":{"start":"2026-06-08T08:00:00.000Z","end":"2026-06-08T09:15:00.000Z"}},"request":{"method":"PUT","url":"Procedure/5ef3cb5f-d466-4ad5-a297-3f37f058a6b9"}},{"fullUrl":"https://madie.cms.gov/Condition/534e4bab-79cc-4023-97ab-ff8cc88f2915","resource":{"resourceType":"Condition","id":"534e4bab-79cc-4023-97ab-ff8cc88f2915","meta":{"profile":["http://hl7.org/fhir/us/qicore/StructureDefinition/qicore-condition"]},"category":[{"coding":[{"system":"http://terminology.hl7.org/CodeSystem/condition-category","code":"encounter-diagnosis","display":"Encounter Diagnosis"}]}],"code":{"coding":[{"system":"http://snomed.info/sct","version":"2022-09","code":"169826009","display":"Single live birth (finding)","userSelected":true}]},"subject":{"reference":"Patient/301cbb39-bf89-40f4-9539-4e1b9eb5e5be"},"recordedDate":"2026-10-21T08:00:00.000+00:00"},"request":{"method":"PUT","url":"Condition/534e4bab-79cc-4023-97ab-ff8cc88f2915"}},{"fullUrl":"https://madie.cms.gov/Coverage/7ea04a29-7c3b-4ce9-8366-6ee3fce9239e","resource":{"resourceType":"Coverage","id":"7ea04a29-7c3b-4ce9-8366-6ee3fce9239e","meta":{"profile":["http://hl7.org/fhir/us/qicore/StructureDefinition/qicore-coverage"]},"status":"active","beneficiary":{"reference":"Patient/301cbb39-bf89-40f4-9539-4e1b9eb5e5be"},"payor":[{"reference":"Organization/f7da4368-fb6d-4d73-a75b-f78024cbb18d"}]},"request":{"method":"PUT","url":"Coverage/7ea04a29-7c3b-4ce9-8366-6ee3fce9239e"}},{"fullUrl":"https://madie.cms.gov/Organization/0b95f21d-79b1-40ae-a52b-a256a9752fa2","resource":{"resourceType":"Organization","id":"f7da4368-fb6d-4d73-a75b-f78024cbb18d","meta":{"profile":["http://hl7.org/fhir/us/qicore/StructureDefinition/qicore-organization"]},"identifier":[{"use":"temp","system":"urn:oid:2.16.840.1.113883.4.4","value":"21-3259825"}],"active":true,"type":[{"coding":[{"system":"http://terminology.hl7.org/CodeSystem/organization-type","code":"pay","display":"Payer"}]}],"name":"Blue Cross Blue Shield of Texas","telecom":[{"system":"phone","value":"(+1) 972-766-6900"}],"address":[{"use":"billing","type":"postal","line":["P.O. Box 660044"],"city":"Dallas","state":"TX","postalCode":"75266-0044","country":"USA"}]},"request":{"method":"PUT","url":"Organization/f7da4368-fb6d-4d73-a75b-f78024cbb18d"}},{"fullUrl":"https://madie.cms.gov/Practitioner/a0cf6dfa-b41b-4d78-a659-b1aeca173557","resource":{"resourceType":"Practitioner","id":"a0cf6dfa-b41b-4d78-a659-b1aeca173557","identifier":[{"system":"http://hl7.org/fhir/sid/us-npi","value":"123456"}],"name":[{"family":"Evil","prefix":["Dr"]}]},"request":{"method":"PUT","url":"Practitioner/a0cf6dfa-b41b-4d78-a659-b1aeca173557"}},{"fullUrl":"https://madie.cms.gov/MeasureReport/f545a1ca-c351-4d83-9c5e-ddc7380ff05e","resource":{"resourceType":"MeasureReport","id":"f545a1ca-c351-4d83-9c5e-ddc7380ff05e","meta":{"profile":["http://hl7.org/fhir/us/cqfmeasures/StructureDefinition/test-case-cqfm"]},"contained":[{"resourceType":"Parameters","id":"57c0623d-bd6f-4b15-a4f4-95a51581c833-parameters","parameter":[{"name":"subject","valueString":"301cbb39-bf89-40f4-9539-4e1b9eb5e5be"}]}],"extension":[{"url":"http://hl7.org/fhir/us/cqfmeasures/StructureDefinition/cqfm-inputParameters","valueReference":{"reference":"#57c0623d-bd6f-4b15-a4f4-95a51581c833-parameters"}},{"url":"http://hl7.org/fhir/us/cqfmeasures/StructureDefinition/cqfm-testCaseDescription","valueMarkdown":"Passes: IP, Pt is 27 years of age,  encounter dx of delivery of singleton, gravida, EGA @ 38 weeks, AssessTimeOfDeliv relevantDate B4 DelivEnc.  Tests \"TimeOfDelivery.relevantDatetime during DeliveryEncounters.relevantPeriod\".\n"}],"modifierExtension":[{"url":"http://hl7.org/fhir/us/cqfmeasures/StructureDefinition/cqfm-isTestCase","valueBoolean":true}],"status":"complete","type":"individual","measure":"https://madie.cms.gov/Measure/CMS334FHIRPCCesareanBirth","period":{"start":"2026-01-01","end":"2026-12-31"},"group":[{"population":[{"code":{"coding":[{"system":"http://terminology.hl7.org/CodeSystem/measure-population","code":"initial-population","display":"Initial Population"}]},"count":1},{"code":{"coding":[{"system":"http://terminology.hl7.org/CodeSystem/measure-population","code":"denominator","display":"Denominator"}]},"count":0},{"code":{"coding":[{"system":"http://terminology.hl7.org/CodeSystem/measure-population","code":"denominator-exclusion","display":"Denominator Exclusion"}]},"count":0},{"code":{"coding":[{"system":"http://terminology.hl7.org/CodeSystem/measure-population","code":"numerator","display":"Numerator"}]},"count":0}]}]},"request":{"method":"PUT","url":"MeasureReport/f545a1ca-c351-4d83-9c5e-ddc7380ff05e"}}]}