{"resourceType":"Bundle","id":"tests-a8a9f09f-168b-4548-b18a-cb65f30fdb24-bundle","type":"transaction","entry":[{"fullUrl":"https://madie.cms.gov/Patient/a8a9f09f-168b-4548-b18a-cb65f30fdb24","resource":{"resourceType":"Patient","id":"a8a9f09f-168b-4548-b18a-cb65f30fdb24","meta":{"profile":["http://hl7.org/fhir/us/qicore/StructureDefinition/qicore-patient"]},"text":{"status":"generated","div":"<div xmlns=\"http://www.w3.org/1999/xhtml\"><div class=\"hapiHeaderText\">AssessTimeOfDelivResultEQDelivEncEnd <b>DENPASS </b></div><table class=\"hapiPropertyTable\"><tbody><tr><td>Identifier</td><td>71189d70ba3427612f2a418107466ed1652ec9a0e76c1b9c30a1691a1d91b34c</td></tr><tr><td>Date of birth</td><td><span>14 February 1985</span></td></tr></tbody></table></div>"},"extension":[{"url":"http://hl7.org/fhir/us/core/StructureDefinition/us-core-race","extension":[{"url":"ombCategory","valueCoding":{"system":"urn:oid:2.16.840.1.113883.6.238","code":"1002-5","display":"American Indian or Alaska Native","userSelected":true}},{"url":"text","valueString":"American Indian or Alaska Native"}]},{"url":"http://hl7.org/fhir/us/core/StructureDefinition/us-core-ethnicity","extension":[{"url":"ombCategory","valueCoding":{"system":"urn:oid:2.16.840.1.113883.6.238","code":"2135-2","display":"Hispanic or Latino","userSelected":true}},{"url":"text","valueString":"Hispanic or Latino"}]}],"identifier":[{"type":{"coding":[{"system":"http://terminology.hl7.org/CodeSystem/v2-0203","code":"MR"}]},"system":"https://bonnie-fhir.healthit.gov/","value":"63487c300968f801225401c5"}],"active":true,"name":[{"use":"usual","family":"DENPass","given":["AssessTimeOfDelivResultEQDelivEncEnd"]}],"gender":"female","birthDate":"1998-02-14"},"request":{"method":"PUT","url":"Patient/a8a9f09f-168b-4548-b18a-cb65f30fdb24"}},{"fullUrl":"https://madie.cms.gov/Observation/4fb4c9ab-ad74-408e-b898-6016bdd5444f","resource":{"resourceType":"Observation","id":"4fb4c9ab-ad74-408e-b898-6016bdd5444f","meta":{"profile":["http://hl7.org/fhir/us/qicore/StructureDefinition/qicore-observation"]},"status":"final","category":[{"coding":[{"system":"http://terminology.hl7.org/CodeSystem/observation-category","code":"exam","display":"exam","userSelected":true}]}],"code":{"coding":[{"system":"http://loinc.org","code":"11996-6"}]},"subject":{"reference":"Patient/a8a9f09f-168b-4548-b18a-cb65f30fdb24"},"effectiveDateTime":"2026-03-09T08:00:00.000+00:00","valueInteger":1},"request":{"method":"PUT","url":"Observation/4fb4c9ab-ad74-408e-b898-6016bdd5444f"}},{"fullUrl":"https://madie.cms.gov/Observation/f8c66797-6ac4-4b8c-a4a7-7bcd18175a36","resource":{"resourceType":"Observation","id":"f8c66797-6ac4-4b8c-a4a7-7bcd18175a36","meta":{"profile":["http://hl7.org/fhir/us/qicore/StructureDefinition/qicore-observation"]},"status":"final","category":[{"coding":[{"system":"http://terminology.hl7.org/CodeSystem/observation-category","code":"exam","display":"exam","userSelected":true}]}],"code":{"coding":[{"system":"http://loinc.org","code":"11884-4"}]},"subject":{"reference":"Patient/a8a9f09f-168b-4548-b18a-cb65f30fdb24"},"effectiveDateTime":"2026-11-30T08:00:00.000+00:00","valueQuantity":{"value":40,"system":"http://unitsofmeasure.org","code":"wk"}},"request":{"method":"PUT","url":"Observation/f8c66797-6ac4-4b8c-a4a7-7bcd18175a36"}},{"fullUrl":"https://madie.cms.gov/Observation/8056c19a-be7b-4b90-a7e2-231c48148dfa","resource":{"resourceType":"Observation","id":"8056c19a-be7b-4b90-a7e2-231c48148dfa","meta":{"profile":["http://hl7.org/fhir/us/qicore/StructureDefinition/qicore-observation"]},"status":"final","category":[{"coding":[{"system":"http://terminology.hl7.org/CodeSystem/observation-category","code":"exam","display":"exam","userSelected":true}]}],"code":{"coding":[{"system":"http://loinc.org","code":"93857-1"}]},"subject":{"reference":"Patient/a8a9f09f-168b-4548-b18a-cb65f30fdb24"},"effectiveDateTime":"2026-11-28T21:30:00.000+00:00","valueDateTime":"2026-11-30T08:15:00+00:00"},"request":{"method":"PUT","url":"Observation/8056c19a-be7b-4b90-a7e2-231c48148dfa"}},{"fullUrl":"https://madie.cms.gov/Encounter/e7a20e9e-e151-484c-a29b-5a6fb360e7fd","resource":{"resourceType":"Encounter","id":"e7a20e9e-e151-484c-a29b-5a6fb360e7fd","meta":{"profile":["http://hl7.org/fhir/us/qicore/StructureDefinition/qicore-encounter"]},"status":"finished","class":{"system":"http://terminology.hl7.org/CodeSystem/v3-ActCode","code":"IMP","display":"inpatient encounter"},"type":[{"coding":[{"system":"http://snomed.info/sct","code":"8715000"}]}],"subject":{"reference":"Patient/a8a9f09f-168b-4548-b18a-cb65f30fdb24"},"period":{"start":"2026-11-28T08:00:00.000Z","end":"2026-11-30T08:15:00.000Z"},"length":{"value":2,"unit":"days"},"diagnosis":[{"condition":{"reference":"Condition/delivery-of-singleton-f83c"},"use":{"coding":[{"system":"http://snomed.info/sct","code":"169826009","display":"Delivery of Singleton"}]}},{"condition":{"reference":"Condition/e98889eb-41a0-4ff5-bf44-d5df51f35e57"}}]},"request":{"method":"PUT","url":"Encounter/e7a20e9e-e151-484c-a29b-5a6fb360e7fd"}},{"fullUrl":"https://madie.cms.gov/Procedure/8c88ec44-1553-4b15-891c-514a7f200cc7","resource":{"resourceType":"Procedure","id":"8c88ec44-1553-4b15-891c-514a7f200cc7","meta":{"profile":["http://hl7.org/fhir/us/qicore/StructureDefinition/qicore-procedure"]},"extension":[{"url":"http://hl7.org/fhir/us/qicore/StructureDefinition/qicore-recorded","valueDateTime":"2014-04-05T09:35:00-04:00"}],"status":"completed","code":{"coding":[{"system":"http://snomed.info/sct","code":"22633006"}]},"subject":{"reference":"Patient/a8a9f09f-168b-4548-b18a-cb65f30fdb24"},"performedPeriod":{"start":"2026-11-28T20:00:00.000Z","end":"2026-11-28T20:15:00.000Z"}},"request":{"method":"PUT","url":"Procedure/8c88ec44-1553-4b15-891c-514a7f200cc7"}},{"fullUrl":"https://madie.cms.gov/Condition/e98889eb-41a0-4ff5-bf44-d5df51f35e57","resource":{"resourceType":"Condition","id":"e98889eb-41a0-4ff5-bf44-d5df51f35e57","meta":{"profile":["http://hl7.org/fhir/us/qicore/StructureDefinition/qicore-condition"]},"category":[{"coding":[{"system":"http://terminology.hl7.org/CodeSystem/condition-category","code":"encounter-diagnosis","display":"Encounter Diagnosis"}]}],"code":{"coding":[{"system":"http://snomed.info/sct","version":"2022-09","code":"169826009","display":"Single live birth (finding)","userSelected":true}]},"subject":{"reference":"Patient/a8a9f09f-168b-4548-b18a-cb65f30fdb24"},"recordedDate":"2026-10-20T08:00:00.000+00:00"},"request":{"method":"PUT","url":"Condition/e98889eb-41a0-4ff5-bf44-d5df51f35e57"}},{"fullUrl":"https://madie.cms.gov/Coverage/0cfa6178-203b-4257-a76a-87b87b78595c","resource":{"resourceType":"Coverage","id":"0cfa6178-203b-4257-a76a-87b87b78595c","meta":{"profile":["http://hl7.org/fhir/us/qicore/StructureDefinition/qicore-coverage"]},"status":"active","beneficiary":{"reference":"Patient/a8a9f09f-168b-4548-b18a-cb65f30fdb24"},"payor":[{"reference":"Organization/4da248b0-6e59-49b7-b80e-338aa21d299f"}]},"request":{"method":"PUT","url":"Coverage/0cfa6178-203b-4257-a76a-87b87b78595c"}},{"fullUrl":"https://madie.cms.gov/Organization/d90f589d-6e30-43a6-9da0-d78e8f6d75d2","resource":{"resourceType":"Organization","id":"4da248b0-6e59-49b7-b80e-338aa21d299f","meta":{"profile":["http://hl7.org/fhir/us/qicore/StructureDefinition/qicore-organization"]},"identifier":[{"use":"temp","system":"urn:oid:2.16.840.1.113883.4.4","value":"21-3259825"}],"active":true,"type":[{"coding":[{"system":"http://terminology.hl7.org/CodeSystem/organization-type","code":"pay","display":"Payer"}]}],"name":"Blue Cross Blue Shield of Texas","telecom":[{"system":"phone","value":"(+1) 972-766-6900"}],"address":[{"use":"billing","type":"postal","line":["P.O. Box 660044"],"city":"Dallas","state":"TX","postalCode":"75266-0044","country":"USA"}]},"request":{"method":"PUT","url":"Organization/4da248b0-6e59-49b7-b80e-338aa21d299f"}},{"fullUrl":"https://madie.cms.gov/Practitioner/7603d147-c41e-4a59-a7b2-17d26134d4ca","resource":{"resourceType":"Practitioner","id":"7603d147-c41e-4a59-a7b2-17d26134d4ca","identifier":[{"system":"http://hl7.org/fhir/sid/us-npi","value":"123456"}],"name":[{"family":"Evil","prefix":["Dr"]}]},"request":{"method":"PUT","url":"Practitioner/7603d147-c41e-4a59-a7b2-17d26134d4ca"}},{"fullUrl":"https://madie.cms.gov/MeasureReport/414a706b-860d-4c00-88b8-d599e054df94","resource":{"resourceType":"MeasureReport","id":"414a706b-860d-4c00-88b8-d599e054df94","meta":{"profile":["http://hl7.org/fhir/us/cqfmeasures/StructureDefinition/test-case-cqfm"]},"contained":[{"resourceType":"Parameters","id":"c7d7131d-8313-4d9c-b072-524e4241f9e0-parameters","parameter":[{"name":"subject","valueString":"a8a9f09f-168b-4548-b18a-cb65f30fdb24"}]}],"extension":[{"url":"http://hl7.org/fhir/us/cqfmeasures/StructureDefinition/cqfm-inputParameters","valueReference":{"reference":"#c7d7131d-8313-4d9c-b072-524e4241f9e0-parameters"}},{"url":"http://hl7.org/fhir/us/cqfmeasures/StructureDefinition/cqfm-testCaseDescription","valueMarkdown":"Passes IP, Passes DENOM but fails NUM; Gravida 1(auth 42 weeks)  and EGA 40 weeks;  Proc is not Cesarean Birth. LastTimeOfDelivery result equals Delivery Encounter EndTime.   \n"}],"modifierExtension":[{"url":"http://hl7.org/fhir/us/cqfmeasures/StructureDefinition/cqfm-isTestCase","valueBoolean":true}],"status":"complete","type":"individual","measure":"https://madie.cms.gov/Measure/CMS334FHIRPCCesareanBirth","period":{"start":"2026-01-01","end":"2026-12-31"},"group":[{"population":[{"code":{"coding":[{"system":"http://terminology.hl7.org/CodeSystem/measure-population","code":"initial-population","display":"Initial Population"}]},"count":1},{"code":{"coding":[{"system":"http://terminology.hl7.org/CodeSystem/measure-population","code":"denominator","display":"Denominator"}]},"count":1},{"code":{"coding":[{"system":"http://terminology.hl7.org/CodeSystem/measure-population","code":"denominator-exclusion","display":"Denominator Exclusion"}]},"count":0},{"code":{"coding":[{"system":"http://terminology.hl7.org/CodeSystem/measure-population","code":"numerator","display":"Numerator"}]},"count":0}]}]},"request":{"method":"PUT","url":"MeasureReport/414a706b-860d-4c00-88b8-d599e054df94"}}]}