{"resourceType":"Bundle","id":"tests-e718865d-8cf8-4ab0-b765-60c7970836f8-bundle","type":"transaction","entry":[{"fullUrl":"https://madie.cms.gov/Patient/e718865d-8cf8-4ab0-b765-60c7970836f8","resource":{"resourceType":"Patient","id":"e718865d-8cf8-4ab0-b765-60c7970836f8","meta":{"profile":["http://hl7.org/fhir/us/qicore/StructureDefinition/qicore-patient"]},"text":{"status":"generated","div":"<div xmlns=\"http://www.w3.org/1999/xhtml\"><div class=\"hapiHeaderText\">AgeEQ8 <b>IPPASS </b></div><table class=\"hapiPropertyTable\"><tbody><tr><td>Identifier</td><td>d130de5f4e42b38bd935fc8ebcd660c0e5f442917fd322d307794dfacd0563d2</td></tr><tr><td>Date of birth</td><td><span>14 February 2004</span></td></tr></tbody></table></div>"},"extension":[{"url":"http://hl7.org/fhir/us/core/StructureDefinition/us-core-race","extension":[{"url":"ombCategory","valueCoding":{"system":"urn:oid:2.16.840.1.113883.6.238","code":"1002-5","display":"American Indian or Alaska Native","userSelected":true}},{"url":"text","valueString":"American Indian or Alaska Native"}]},{"url":"http://hl7.org/fhir/us/core/StructureDefinition/us-core-ethnicity","extension":[{"url":"ombCategory","valueCoding":{"system":"urn:oid:2.16.840.1.113883.6.238","code":"2135-2","display":"Hispanic or Latino","userSelected":true}},{"url":"text","valueString":"Hispanic or Latino"}]}],"identifier":[{"type":{"coding":[{"system":"http://terminology.hl7.org/CodeSystem/v2-0203","code":"MR"}]},"system":"https://bonnie-fhir.healthit.gov/","value":"63487c2d0968f80122540149"}],"active":true,"name":[{"use":"usual","family":"IPPass","given":["AgeEQ8"]}],"gender":"female","birthDate":"2017-02-14"},"request":{"method":"PUT","url":"Patient/e718865d-8cf8-4ab0-b765-60c7970836f8"}},{"fullUrl":"https://madie.cms.gov/Encounter/db4c0107-1fbc-4ede-80c3-06422ef290c3","resource":{"resourceType":"Encounter","id":"db4c0107-1fbc-4ede-80c3-06422ef290c3","meta":{"profile":["http://hl7.org/fhir/us/qicore/StructureDefinition/qicore-encounter"]},"status":"finished","class":{"system":"http://terminology.hl7.org/CodeSystem/v3-ActCode","code":"IMP","display":"inpatient encounter"},"type":[{"coding":[{"system":"http://snomed.info/sct","code":"8715000"}]}],"subject":{"reference":"Patient/e718865d-8cf8-4ab0-b765-60c7970836f8"},"period":{"start":"2026-11-28T08:00:00.000Z","end":"2026-11-30T08:15:00.000Z"},"diagnosis":[{"condition":{"reference":"Condition/Condition-2"},"use":{"coding":[{"system":"http://snomed.info/sct","code":"169826009","display":"Delivery of Singleton"}]}}]},"request":{"method":"PUT","url":"Encounter/db4c0107-1fbc-4ede-80c3-06422ef290c3"}},{"fullUrl":"https://madie.cms.gov/Procedure/8b31fe36-de0c-49ad-8f80-eef488bdcdd1","resource":{"resourceType":"Procedure","id":"8b31fe36-de0c-49ad-8f80-eef488bdcdd1","meta":{"profile":["http://hl7.org/fhir/us/qicore/StructureDefinition/qicore-procedure"]},"extension":[{"url":"http://hl7.org/fhir/us/qicore/StructureDefinition/qicore-recorded","valueDateTime":"2014-04-05T09:35:00-04:00"}],"status":"completed","code":{"coding":[{"system":"http://snomed.info/sct","version":"2022-09","code":"10745001","display":"Delivery of transverse presentation (procedure)","userSelected":true}]},"subject":{"reference":"Patient/e718865d-8cf8-4ab0-b765-60c7970836f8"},"performedDateTime":"2026-11-28T20:00:00.000+00:00"},"request":{"method":"PUT","url":"Procedure/8b31fe36-de0c-49ad-8f80-eef488bdcdd1"}},{"fullUrl":"https://madie.cms.gov/Coverage/08455e62-b869-4036-80f5-a2039807ea83","resource":{"resourceType":"Coverage","id":"08455e62-b869-4036-80f5-a2039807ea83","meta":{"profile":["http://hl7.org/fhir/us/qicore/StructureDefinition/qicore-coverage"]},"status":"active","type":{"coding":[{"system":"https://nahdo.org/sopt","code":"1","display":"MEDICARE"}]},"beneficiary":{"reference":"Patient/e718865d-8cf8-4ab0-b765-60c7970836f8"},"period":{"start":"2026-11-28T08:00:00.000Z","end":"2026-11-30T08:15:00.000Z"},"payor":[{"reference":"Organization/3e899f33-84eb-4634-a770-a5a0bd7a80e7"}]},"request":{"method":"PUT","url":"Coverage/08455e62-b869-4036-80f5-a2039807ea83"}},{"fullUrl":"https://madie.cms.gov/Organization/0be33e4f-4604-45dd-985d-b0400859fdc0","resource":{"resourceType":"Organization","id":"3e899f33-84eb-4634-a770-a5a0bd7a80e7","meta":{"profile":["http://hl7.org/fhir/us/qicore/StructureDefinition/qicore-organization"]},"identifier":[{"use":"temp","system":"urn:oid:2.16.840.1.113883.4.4","value":"21-3259825"}],"active":true,"type":[{"coding":[{"system":"http://terminology.hl7.org/CodeSystem/organization-type","code":"pay","display":"Payer"}]}],"name":"Blue Cross Blue Shield of Texas","telecom":[{"system":"phone","value":"(+1) 972-766-6900"}],"address":[{"use":"billing","type":"postal","line":["P.O. Box 660044"],"city":"Dallas","state":"TX","postalCode":"75266-0044","country":"USA"}]},"request":{"method":"PUT","url":"Organization/3e899f33-84eb-4634-a770-a5a0bd7a80e7"}},{"fullUrl":"https://madie.cms.gov/Practitioner/f4a19e39-89a3-49f9-9e3b-5c792a7920c7","resource":{"resourceType":"Practitioner","id":"f4a19e39-89a3-49f9-9e3b-5c792a7920c7","identifier":[{"system":"http://hl7.org/fhir/sid/us-npi","value":"123456"}],"name":[{"family":"Evil","prefix":["Dr"]}]},"request":{"method":"PUT","url":"Practitioner/f4a19e39-89a3-49f9-9e3b-5c792a7920c7"}},{"fullUrl":"https://madie.cms.gov/MeasureReport/c1fc1ad0-5b64-4dd3-a0da-6c54412605c2","resource":{"resourceType":"MeasureReport","id":"c1fc1ad0-5b64-4dd3-a0da-6c54412605c2","meta":{"profile":["http://hl7.org/fhir/us/cqfmeasures/StructureDefinition/test-case-cqfm"]},"contained":[{"resourceType":"Parameters","id":"26cf104a-c531-4b91-9801-9452a48ddb0f-parameters","parameter":[{"name":"subject","valueString":"e718865d-8cf8-4ab0-b765-60c7970836f8"}]}],"extension":[{"url":"http://hl7.org/fhir/us/cqfmeasures/StructureDefinition/cqfm-inputParameters","valueReference":{"reference":"#26cf104a-c531-4b91-9801-9452a48ddb0f-parameters"}},{"url":"http://hl7.org/fhir/us/cqfmeasures/StructureDefinition/cqfm-testCaseDescription","valueMarkdown":"Age is = 8, Passes IP"}],"modifierExtension":[{"url":"http://hl7.org/fhir/us/cqfmeasures/StructureDefinition/cqfm-isTestCase","valueBoolean":true}],"status":"complete","type":"individual","measure":"https://madie.cms.gov/Measure/CMS334FHIRPCCesareanBirth","period":{"start":"2026-01-01","end":"2026-12-31"},"group":[{"population":[{"code":{"coding":[{"system":"http://terminology.hl7.org/CodeSystem/measure-population","code":"initial-population","display":"Initial Population"}]},"count":1},{"code":{"coding":[{"system":"http://terminology.hl7.org/CodeSystem/measure-population","code":"denominator","display":"Denominator"}]},"count":0},{"code":{"coding":[{"system":"http://terminology.hl7.org/CodeSystem/measure-population","code":"denominator-exclusion","display":"Denominator Exclusion"}]},"count":0},{"code":{"coding":[{"system":"http://terminology.hl7.org/CodeSystem/measure-population","code":"numerator","display":"Numerator"}]},"count":0}]}]},"request":{"method":"PUT","url":"MeasureReport/c1fc1ad0-5b64-4dd3-a0da-6c54412605c2"}}]}