{"resourceType":"Bundle","id":"tests-9b765bad-038a-4d8f-8df0-4f0c9cfd118a-bundle","type":"transaction","entry":[{"fullUrl":"https://madie.cms.gov/Patient/9b765bad-038a-4d8f-8df0-4f0c9cfd118a","resource":{"resourceType":"Patient","id":"9b765bad-038a-4d8f-8df0-4f0c9cfd118a","meta":{"profile":["http://hl7.org/fhir/us/qicore/StructureDefinition/qicore-patient"]},"text":{"status":"generated","div":"<div xmlns=\"http://www.w3.org/1999/xhtml\"><div class=\"hapiHeaderText\">CalcEGA42Weeks_EDDBFEnc <b>DENPASS </b></div><table class=\"hapiPropertyTable\"><tbody><tr><td>Identifier</td><td>c6b51506d3a7092894a3f06af44f7ab397fd257a35f97f16644057feff48ec70</td></tr><tr><td>Date of birth</td><td><span>14 February 1985</span></td></tr></tbody></table></div>"},"extension":[{"url":"http://hl7.org/fhir/us/core/StructureDefinition/us-core-race","extension":[{"url":"ombCategory","valueCoding":{"system":"urn:oid:2.16.840.1.113883.6.238","code":"1002-5","display":"American Indian or Alaska Native","userSelected":true}},{"url":"text","valueString":"American Indian or Alaska Native"}]},{"url":"http://hl7.org/fhir/us/core/StructureDefinition/us-core-ethnicity","extension":[{"url":"ombCategory","valueCoding":{"system":"urn:oid:2.16.840.1.113883.6.238","code":"2135-2","display":"Hispanic or Latino","userSelected":true}},{"url":"text","valueString":"Hispanic or Latino"}]}],"identifier":[{"type":{"coding":[{"system":"http://terminology.hl7.org/CodeSystem/v2-0203","code":"MR"}]},"system":"https://bonnie-fhir.healthit.gov/","value":"63487c2f0968f801225401a0"}],"active":true,"name":[{"use":"usual","family":"DENPass","given":["CalcEGA42Weeks_EDDBFEnc"]}],"gender":"female","birthDate":"1998-02-14"},"request":{"method":"PUT","url":"Patient/9b765bad-038a-4d8f-8df0-4f0c9cfd118a"}},{"fullUrl":"https://madie.cms.gov/Observation/141b34f7-a4ad-4518-9949-3b228abfbe26","resource":{"resourceType":"Observation","id":"141b34f7-a4ad-4518-9949-3b228abfbe26","meta":{"profile":["http://hl7.org/fhir/us/qicore/StructureDefinition/qicore-observation"]},"status":"final","category":[{"coding":[{"system":"http://terminology.hl7.org/CodeSystem/observation-category","code":"exam","display":"exam","userSelected":true}]}],"code":{"coding":[{"system":"http://loinc.org","code":"11996-6"}]},"subject":{"reference":"Patient/9b765bad-038a-4d8f-8df0-4f0c9cfd118a"},"effectiveDateTime":"2025-08-19T19:00:00.000+00:00","valueInteger":1},"request":{"method":"PUT","url":"Observation/141b34f7-a4ad-4518-9949-3b228abfbe26"}},{"fullUrl":"https://madie.cms.gov/Observation/64126dcc-a13a-4e92-8d27-37e70145adce","resource":{"resourceType":"Observation","id":"64126dcc-a13a-4e92-8d27-37e70145adce","meta":{"profile":["http://hl7.org/fhir/us/qicore/StructureDefinition/qicore-observation"]},"status":"final","category":[{"coding":[{"system":"http://terminology.hl7.org/CodeSystem/observation-category","code":"exam","display":"exam","userSelected":true}]}],"code":{"coding":[{"system":"http://loinc.org","code":"93857-1"}]},"subject":{"reference":"Patient/9b765bad-038a-4d8f-8df0-4f0c9cfd118a"},"effectiveDateTime":"2026-01-15T19:00:00.000+00:00","valueDateTime":"2026-01-15T19:00:00+00:00"},"request":{"method":"PUT","url":"Observation/64126dcc-a13a-4e92-8d27-37e70145adce"}},{"fullUrl":"https://madie.cms.gov/Observation/61d3e6aa-bb8c-41f8-ba2e-f4e684f9c432","resource":{"resourceType":"Observation","id":"61d3e6aa-bb8c-41f8-ba2e-f4e684f9c432","meta":{"profile":["http://hl7.org/fhir/us/qicore/StructureDefinition/qicore-observation"]},"status":"final","category":[{"coding":[{"system":"http://terminology.hl7.org/CodeSystem/observation-category","code":"exam","display":"exam","userSelected":true}]}],"code":{"coding":[{"system":"http://loinc.org","code":"11778-8"}]},"subject":{"reference":"Patient/9b765bad-038a-4d8f-8df0-4f0c9cfd118a"},"effectiveDateTime":"2026-01-15T07:00:00.000+00:00","valueDateTime":"2026-01-01T08:00:00+00:00"},"request":{"method":"PUT","url":"Observation/61d3e6aa-bb8c-41f8-ba2e-f4e684f9c432"}},{"fullUrl":"https://madie.cms.gov/Encounter/597403f4-75fd-4257-82b1-659a9df33c16","resource":{"resourceType":"Encounter","id":"597403f4-75fd-4257-82b1-659a9df33c16","meta":{"profile":["http://hl7.org/fhir/us/qicore/StructureDefinition/qicore-encounter"]},"status":"finished","class":{"system":"http://terminology.hl7.org/CodeSystem/v3-ActCode","code":"IMP","display":"inpatient encounter"},"type":[{"coding":[{"system":"http://snomed.info/sct","code":"183452005"}]}],"subject":{"reference":"Patient/9b765bad-038a-4d8f-8df0-4f0c9cfd118a"},"period":{"start":"2026-01-15T08:00:00.000Z","end":"2026-01-20T08:15:00.000Z"},"length":{"value":2.0,"unit":"days"},"diagnosis":[{"condition":{"reference":"Condition/delivery-of-singleton-f83c"},"use":{"coding":[{"system":"http://snomed.info/sct","code":"169826009","display":"Delivery of Singleton"}]}},{"condition":{"reference":"Condition/ddae6dd2-a5fb-4aaf-9eda-a3e6da36548e"}}]},"request":{"method":"PUT","url":"Encounter/597403f4-75fd-4257-82b1-659a9df33c16"}},{"fullUrl":"https://madie.cms.gov/Coverage/378b3766-36fb-4f0d-a575-910aa5a49143","resource":{"resourceType":"Coverage","id":"378b3766-36fb-4f0d-a575-910aa5a49143","status":"active","beneficiary":{"reference":"Patient/9b765bad-038a-4d8f-8df0-4f0c9cfd118a"},"period":{"start":"1986-02-14T08:00:00.000Z"},"payor":[{"reference":"Organization/5ad6ea38-07e9-4482-9e1b-c09eee595be9"}]},"request":{"method":"PUT","url":"Coverage/378b3766-36fb-4f0d-a575-910aa5a49143"}},{"fullUrl":"https://madie.cms.gov/Procedure/c12e58ef-6681-4677-bab7-8f2777706b89","resource":{"resourceType":"Procedure","id":"c12e58ef-6681-4677-bab7-8f2777706b89","meta":{"profile":["http://hl7.org/fhir/us/qicore/StructureDefinition/qicore-procedure"]},"extension":[{"url":"http://hl7.org/fhir/us/qicore/StructureDefinition/qicore-recorded","valueDateTime":"2014-04-05T09:35:00-04:00"}],"status":"completed","code":{"coding":[{"system":"http://www.cms.gov/Medicare/Coding/ICD10","code":"10D07Z3"},{"system":"http://www.icd10data.com/icd10pcs","code":"10D07Z3","userSelected":true}]},"subject":{"reference":"Patient/9b765bad-038a-4d8f-8df0-4f0c9cfd118a"},"performedPeriod":{"start":"2026-01-15T08:10:00.000Z","end":"2026-01-15T09:14:00.000Z"}},"request":{"method":"PUT","url":"Procedure/c12e58ef-6681-4677-bab7-8f2777706b89"}},{"fullUrl":"https://madie.cms.gov/Condition/ddae6dd2-a5fb-4aaf-9eda-a3e6da36548e","resource":{"resourceType":"Condition","id":"ddae6dd2-a5fb-4aaf-9eda-a3e6da36548e","meta":{"profile":["http://hl7.org/fhir/us/qicore/StructureDefinition/qicore-condition"]},"category":[{"coding":[{"system":"http://terminology.hl7.org/CodeSystem/condition-category","code":"encounter-diagnosis","display":"Encounter Diagnosis"}]}],"code":{"coding":[{"system":"http://snomed.info/sct","version":"2022-09","code":"169826009","display":"Single live birth (finding)","userSelected":true}]},"subject":{"reference":"Patient/9b765bad-038a-4d8f-8df0-4f0c9cfd118a"},"recordedDate":"2026-10-20T08:00:00.000+00:00"},"request":{"method":"PUT","url":"Condition/ddae6dd2-a5fb-4aaf-9eda-a3e6da36548e"}},{"fullUrl":"https://madie.cms.gov/Organization/5b7925a5-4040-4aff-875d-f0bc5431f736","resource":{"resourceType":"Organization","id":"5ad6ea38-07e9-4482-9e1b-c09eee595be9","meta":{"profile":["http://hl7.org/fhir/us/qicore/StructureDefinition/qicore-organization"]},"identifier":[{"use":"temp","system":"urn:oid:2.16.840.1.113883.4.4","value":"21-3259825"}],"active":true,"type":[{"coding":[{"system":"http://terminology.hl7.org/CodeSystem/organization-type","code":"pay","display":"Payer"}]}],"name":"Blue Cross Blue Shield of Texas","telecom":[{"system":"phone","value":"(+1) 972-766-6900"}],"address":[{"use":"billing","type":"postal","line":["P.O. Box 660044"],"city":"Dallas","state":"TX","postalCode":"75266-0044","country":"USA"}]},"request":{"method":"PUT","url":"Organization/5ad6ea38-07e9-4482-9e1b-c09eee595be9"}},{"fullUrl":"https://madie.cms.gov/Practitioner/e54415f4-91b5-4118-8cec-7c364d669534","resource":{"resourceType":"Practitioner","id":"e54415f4-91b5-4118-8cec-7c364d669534","identifier":[{"system":"http://hl7.org/fhir/sid/us-npi","value":"123456"}],"name":[{"family":"Evil","prefix":["Dr"]}]},"request":{"method":"PUT","url":"Practitioner/e54415f4-91b5-4118-8cec-7c364d669534"}},{"fullUrl":"https://madie.cms.gov/MeasureReport/2dd3cba6-b4e1-44bc-a031-c3bfa7301903","resource":{"resourceType":"MeasureReport","id":"2dd3cba6-b4e1-44bc-a031-c3bfa7301903","meta":{"profile":["http://hl7.org/fhir/us/cqfmeasures/StructureDefinition/test-case-cqfm"]},"contained":[{"resourceType":"Parameters","id":"595da67a-6222-4524-9ec5-93415cfa1a67-parameters","parameter":[{"name":"subject","valueString":"9b765bad-038a-4d8f-8df0-4f0c9cfd118a"}]}],"extension":[{"url":"http://hl7.org/fhir/us/cqfmeasures/StructureDefinition/cqfm-inputParameters","valueReference":{"reference":"#595da67a-6222-4524-9ec5-93415cfa1a67-parameters"}},{"url":"http://hl7.org/fhir/us/cqfmeasures/StructureDefinition/cqfm-testCaseDescription","valueMarkdown":"Calculated EGA is 42 weeks with EDD 1 hour before Encounter Adm datetime\n"}],"modifierExtension":[{"url":"http://hl7.org/fhir/us/cqfmeasures/StructureDefinition/cqfm-isTestCase","valueBoolean":true}],"status":"complete","type":"individual","measure":"https://madie.cms.gov/Measure/CMS334FHIRPCCesareanBirth","period":{"start":"2026-01-01","end":"2026-12-31"},"group":[{"population":[{"code":{"coding":[{"system":"http://terminology.hl7.org/CodeSystem/measure-population","code":"initial-population","display":"Initial Population"}]},"count":1},{"code":{"coding":[{"system":"http://terminology.hl7.org/CodeSystem/measure-population","code":"denominator","display":"Denominator"}]},"count":1},{"code":{"coding":[{"system":"http://terminology.hl7.org/CodeSystem/measure-population","code":"denominator-exclusion","display":"Denominator Exclusion"}]},"count":0},{"code":{"coding":[{"system":"http://terminology.hl7.org/CodeSystem/measure-population","code":"numerator","display":"Numerator"}]},"count":0}]}]},"request":{"method":"PUT","url":"MeasureReport/2dd3cba6-b4e1-44bc-a031-c3bfa7301903"}}]}