{"resourceType":"Bundle","id":"tests-70ec8c1c-3aa7-4f7b-9cc7-b803fd905b80-bundle","type":"transaction","entry":[{"fullUrl":"https://madie.cms.gov/Patient/70ec8c1c-3aa7-4f7b-9cc7-b803fd905b80","resource":{"resourceType":"Patient","id":"70ec8c1c-3aa7-4f7b-9cc7-b803fd905b80","meta":{"profile":["http://hl7.org/fhir/us/qicore/StructureDefinition/qicore-patient"]},"text":{"status":"generated","div":"<div xmlns=\"http://www.w3.org/1999/xhtml\"><div class=\"hapiHeaderText\">ProcCSectEndGTEncEnd <b>NUMFAIL </b></div><table class=\"hapiPropertyTable\"><tbody><tr><td>Identifier</td><td>5207b81143c57a177c53244c0ebecd69b59ad095b3dd7336dd907639a51be643</td></tr><tr><td>Date of birth</td><td><span>14 February 1985</span></td></tr></tbody></table></div>"},"extension":[{"url":"http://hl7.org/fhir/us/core/StructureDefinition/us-core-race","extension":[{"url":"ombCategory","valueCoding":{"system":"urn:oid:2.16.840.1.113883.6.238","code":"1002-5","display":"American Indian or Alaska Native","userSelected":true}},{"url":"text","valueString":"American Indian or Alaska Native"}]},{"url":"http://hl7.org/fhir/us/core/StructureDefinition/us-core-ethnicity","extension":[{"url":"ombCategory","valueCoding":{"system":"urn:oid:2.16.840.1.113883.6.238","code":"2135-2","display":"Hispanic or Latino","userSelected":true}},{"url":"text","valueString":"Hispanic or Latino"}]}],"identifier":[{"type":{"coding":[{"system":"http://terminology.hl7.org/CodeSystem/v2-0203","code":"MR"}]},"system":"https://bonnie-fhir.healthit.gov/","value":"63487c2e0968f8012254017b"}],"active":true,"name":[{"use":"usual","family":"NUMFail","given":["ProcCSectEndGTEncEnd"]}],"gender":"female","birthDate":"1998-02-14"},"request":{"method":"PUT","url":"Patient/70ec8c1c-3aa7-4f7b-9cc7-b803fd905b80"}},{"fullUrl":"https://madie.cms.gov/Observation/20032ae8-289c-4737-863d-1b563812015a","resource":{"resourceType":"Observation","id":"20032ae8-289c-4737-863d-1b563812015a","meta":{"profile":["http://hl7.org/fhir/us/qicore/StructureDefinition/qicore-observation"]},"status":"final","category":[{"coding":[{"system":"http://terminology.hl7.org/CodeSystem/observation-category","code":"exam","display":"exam","userSelected":true}]}],"code":{"coding":[{"system":"http://loinc.org","code":"11996-6"}]},"subject":{"reference":"Patient/70ec8c1c-3aa7-4f7b-9cc7-b803fd905b80"},"effectiveDateTime":"2026-02-28T08:00:00.000+00:00","valueInteger":1},"request":{"method":"PUT","url":"Observation/20032ae8-289c-4737-863d-1b563812015a"}},{"fullUrl":"https://madie.cms.gov/Observation/4ec9a8c3-6d46-4e26-80ac-d84c3400c08b","resource":{"resourceType":"Observation","id":"4ec9a8c3-6d46-4e26-80ac-d84c3400c08b","meta":{"profile":["http://hl7.org/fhir/us/qicore/StructureDefinition/qicore-observation"]},"status":"final","category":[{"coding":[{"system":"http://terminology.hl7.org/CodeSystem/observation-category","code":"exam","display":"exam","userSelected":true}]}],"code":{"coding":[{"system":"http://loinc.org","code":"11884-4"}]},"subject":{"reference":"Patient/70ec8c1c-3aa7-4f7b-9cc7-b803fd905b80"},"effectiveDateTime":"2026-11-28T21:15:00.000+00:00","valueQuantity":{"value":40,"system":"http://unitsofmeasure.org","code":"wk"}},"request":{"method":"PUT","url":"Observation/4ec9a8c3-6d46-4e26-80ac-d84c3400c08b"}},{"fullUrl":"https://madie.cms.gov/Observation/10f270c8-9c78-4aa8-a97c-c7d18764295f","resource":{"resourceType":"Observation","id":"10f270c8-9c78-4aa8-a97c-c7d18764295f","meta":{"profile":["http://hl7.org/fhir/us/qicore/StructureDefinition/qicore-observation"]},"status":"final","category":[{"coding":[{"system":"http://terminology.hl7.org/CodeSystem/observation-category","code":"exam","display":"exam","userSelected":true}]}],"code":{"coding":[{"system":"http://loinc.org","code":"93857-1"}]},"subject":{"reference":"Patient/70ec8c1c-3aa7-4f7b-9cc7-b803fd905b80"},"effectiveDateTime":"2026-11-28T21:15:00.000+00:00","valueDateTime":"2026-11-28T21:15:00+00:00"},"request":{"method":"PUT","url":"Observation/10f270c8-9c78-4aa8-a97c-c7d18764295f"}},{"fullUrl":"https://madie.cms.gov/Encounter/1ccab48a-5a0b-4a33-a18f-12c36fd9b3f4","resource":{"resourceType":"Encounter","id":"1ccab48a-5a0b-4a33-a18f-12c36fd9b3f4","meta":{"profile":["http://hl7.org/fhir/us/qicore/StructureDefinition/qicore-encounter"]},"status":"finished","class":{"system":"http://terminology.hl7.org/CodeSystem/v3-ActCode","code":"IMP","display":"inpatient encounter"},"type":[{"coding":[{"system":"http://snomed.info/sct","code":"8715000"}]}],"subject":{"reference":"Patient/70ec8c1c-3aa7-4f7b-9cc7-b803fd905b80"},"period":{"start":"2026-11-28T08:00:00.000Z","end":"2026-11-30T08:15:00.000Z"},"diagnosis":[{"condition":{"reference":"Condition/2ce5f6a7-5c3c-4379-b563-ed949d829b93"}}]},"request":{"method":"PUT","url":"Encounter/1ccab48a-5a0b-4a33-a18f-12c36fd9b3f4"}},{"fullUrl":"https://madie.cms.gov/Procedure/77d9d618-ba0d-44cf-ba6f-f24a9b21dbe5","resource":{"resourceType":"Procedure","id":"77d9d618-ba0d-44cf-ba6f-f24a9b21dbe5","meta":{"profile":["http://hl7.org/fhir/us/qicore/StructureDefinition/qicore-procedure"]},"extension":[{"url":"http://hl7.org/fhir/us/qicore/StructureDefinition/qicore-recorded","valueDateTime":"2014-04-05T09:35:00-04:00"}],"status":"completed","code":{"coding":[{"system":"http://www.cms.gov/Medicare/Coding/ICD10","code":"10D00Z0"},{"system":"http://www.icd10data.com/icd10pcs","code":"10D00Z0","userSelected":true}]},"subject":{"reference":"Patient/70ec8c1c-3aa7-4f7b-9cc7-b803fd905b80"},"performedPeriod":{"start":"2026-11-30T08:00:00.000Z","end":"2026-11-30T08:16:00.000Z"}},"request":{"method":"PUT","url":"Procedure/77d9d618-ba0d-44cf-ba6f-f24a9b21dbe5"}},{"fullUrl":"https://madie.cms.gov/Condition/2ce5f6a7-5c3c-4379-b563-ed949d829b93","resource":{"resourceType":"Condition","id":"2ce5f6a7-5c3c-4379-b563-ed949d829b93","meta":{"profile":["http://hl7.org/fhir/us/qicore/StructureDefinition/qicore-condition"]},"category":[{"coding":[{"system":"http://terminology.hl7.org/CodeSystem/condition-category","code":"encounter-diagnosis","display":"Encounter Diagnosis"}]}],"code":{"coding":[{"system":"http://snomed.info/sct","version":"2022-09","code":"169826009","display":"Single live birth (finding)","userSelected":true}]},"subject":{"reference":"Patient/70ec8c1c-3aa7-4f7b-9cc7-b803fd905b80"},"recordedDate":"2026-10-17T08:00:00.000+00:00"},"request":{"method":"PUT","url":"Condition/2ce5f6a7-5c3c-4379-b563-ed949d829b93"}},{"fullUrl":"https://madie.cms.gov/Coverage/a3fec1fe-cf58-467e-8ee1-24ec9b2fcb58","resource":{"resourceType":"Coverage","id":"a3fec1fe-cf58-467e-8ee1-24ec9b2fcb58","meta":{"profile":["http://hl7.org/fhir/us/qicore/StructureDefinition/qicore-coverage"]},"status":"active","beneficiary":{"reference":"Patient/70ec8c1c-3aa7-4f7b-9cc7-b803fd905b80"},"payor":[{"reference":"Organization/890316dc-a4ad-43b4-ba6f-9fb9e6eca282"}]},"request":{"method":"PUT","url":"Coverage/a3fec1fe-cf58-467e-8ee1-24ec9b2fcb58"}},{"fullUrl":"https://madie.cms.gov/Organization/6dc070cb-f827-49d7-8f16-ac0eb7fd9151","resource":{"resourceType":"Organization","id":"890316dc-a4ad-43b4-ba6f-9fb9e6eca282","meta":{"profile":["http://hl7.org/fhir/us/qicore/StructureDefinition/qicore-organization"]},"identifier":[{"use":"temp","system":"urn:oid:2.16.840.1.113883.4.4","value":"21-3259825"}],"active":true,"type":[{"coding":[{"system":"http://terminology.hl7.org/CodeSystem/organization-type","code":"pay","display":"Payer"}]}],"name":"Blue Cross Blue Shield of Texas","telecom":[{"system":"phone","value":"(+1) 972-766-6900"}],"address":[{"use":"billing","type":"postal","line":["P.O. Box 660044"],"city":"Dallas","state":"TX","postalCode":"75266-0044","country":"USA"}]},"request":{"method":"PUT","url":"Organization/890316dc-a4ad-43b4-ba6f-9fb9e6eca282"}},{"fullUrl":"https://madie.cms.gov/Practitioner/d9ef71c8-d9f2-4050-8303-98173ec1473d","resource":{"resourceType":"Practitioner","id":"d9ef71c8-d9f2-4050-8303-98173ec1473d","identifier":[{"system":"http://hl7.org/fhir/sid/us-npi","value":"123456"}],"name":[{"family":"Evil","prefix":["Dr"]}]},"request":{"method":"PUT","url":"Practitioner/d9ef71c8-d9f2-4050-8303-98173ec1473d"}},{"fullUrl":"https://madie.cms.gov/MeasureReport/810cbe02-d9da-4f58-b2b5-2dadea51f94a","resource":{"resourceType":"MeasureReport","id":"810cbe02-d9da-4f58-b2b5-2dadea51f94a","meta":{"profile":["http://hl7.org/fhir/us/cqfmeasures/StructureDefinition/test-case-cqfm"]},"contained":[{"resourceType":"Parameters","id":"316eacf6-e308-4875-9b1a-d7f05b1875a9-parameters","parameter":[{"name":"subject","valueString":"70ec8c1c-3aa7-4f7b-9cc7-b803fd905b80"}]}],"extension":[{"url":"http://hl7.org/fhir/us/cqfmeasures/StructureDefinition/cqfm-inputParameters","valueReference":{"reference":"#316eacf6-e308-4875-9b1a-d7f05b1875a9-parameters"}},{"url":"http://hl7.org/fhir/us/cqfmeasures/StructureDefinition/cqfm-testCaseDescription","valueMarkdown":"Passes IP, DEN, fails NUM because CSect End after Encounter End; Gravida 1(effect dt/time 42 weeks)  and EGA 40 weeks;  "}],"modifierExtension":[{"url":"http://hl7.org/fhir/us/cqfmeasures/StructureDefinition/cqfm-isTestCase","valueBoolean":true}],"status":"complete","type":"individual","measure":"https://madie.cms.gov/Measure/CMS334FHIRPCCesareanBirth","period":{"start":"2026-01-01","end":"2026-12-31"},"group":[{"population":[{"code":{"coding":[{"system":"http://terminology.hl7.org/CodeSystem/measure-population","code":"initial-population","display":"Initial Population"}]},"count":1},{"code":{"coding":[{"system":"http://terminology.hl7.org/CodeSystem/measure-population","code":"denominator","display":"Denominator"}]},"count":1},{"code":{"coding":[{"system":"http://terminology.hl7.org/CodeSystem/measure-population","code":"denominator-exclusion","display":"Denominator Exclusion"}]},"count":0},{"code":{"coding":[{"system":"http://terminology.hl7.org/CodeSystem/measure-population","code":"numerator","display":"Numerator"}]},"count":0}]}]},"request":{"method":"PUT","url":"MeasureReport/810cbe02-d9da-4f58-b2b5-2dadea51f94a"}}]}