{"resourceType":"Bundle","id":"tests-ef3e4256-a321-4ce0-812b-ec7e7158085a-bundle","type":"transaction","entry":[{"fullUrl":"https://madie.cms.gov/Patient/ef3e4256-a321-4ce0-812b-ec7e7158085a","resource":{"resourceType":"Patient","id":"ef3e4256-a321-4ce0-812b-ec7e7158085a","meta":{"profile":["http://hl7.org/fhir/us/qicore/StructureDefinition/qicore-patient"]},"text":{"status":"generated","div":"<div xmlns=\"http://www.w3.org/1999/xhtml\"><div class=\"hapiHeaderText\">EGAGT37weeks <b>DENPASS </b></div><table class=\"hapiPropertyTable\"><tbody><tr><td>Identifier</td><td>3d63596528a6709b3c477184d2beceba721ef15e438ac396acce60f49e6f846c</td></tr><tr><td>Date of birth</td><td><span>14 February 1985</span></td></tr></tbody></table></div>"},"extension":[{"url":"http://hl7.org/fhir/us/core/StructureDefinition/us-core-race","extension":[{"url":"ombCategory","valueCoding":{"system":"urn:oid:2.16.840.1.113883.6.238","code":"1002-5","display":"American Indian or Alaska Native","userSelected":true}},{"url":"text","valueString":"American Indian or Alaska Native"}]},{"url":"http://hl7.org/fhir/us/core/StructureDefinition/us-core-ethnicity","extension":[{"url":"ombCategory","valueCoding":{"system":"urn:oid:2.16.840.1.113883.6.238","code":"2135-2","display":"Hispanic or Latino","userSelected":true}},{"url":"text","valueString":"Hispanic or Latino"}]}],"identifier":[{"type":{"coding":[{"system":"http://terminology.hl7.org/CodeSystem/v2-0203","code":"MR"}]},"system":"https://bonnie-fhir.healthit.gov/","value":"63487c2e0968f8012254016f"}],"active":true,"name":[{"use":"usual","family":"DENPass","given":["EGAGT37weeks "]}],"gender":"female","birthDate":"1998-02-14"},"request":{"method":"PUT","url":"Patient/ef3e4256-a321-4ce0-812b-ec7e7158085a"}},{"fullUrl":"https://madie.cms.gov/Observation/d93e71ff-4d3b-43fb-8287-84679e585f46","resource":{"resourceType":"Observation","id":"d93e71ff-4d3b-43fb-8287-84679e585f46","meta":{"profile":["http://hl7.org/fhir/us/qicore/StructureDefinition/qicore-observation"]},"status":"final","category":[{"coding":[{"system":"http://terminology.hl7.org/CodeSystem/observation-category","code":"exam","display":"exam","userSelected":true}]}],"code":{"coding":[{"system":"http://loinc.org","code":"11996-6"}]},"subject":{"reference":"Patient/ef3e4256-a321-4ce0-812b-ec7e7158085a"},"effectiveDateTime":"2026-06-08T08:00:00.000+00:00","valueInteger":1},"request":{"method":"PUT","url":"Observation/d93e71ff-4d3b-43fb-8287-84679e585f46"}},{"fullUrl":"https://madie.cms.gov/Observation/47ec768d-1d08-45eb-8e04-d477cb7961d4","resource":{"resourceType":"Observation","id":"47ec768d-1d08-45eb-8e04-d477cb7961d4","meta":{"profile":["http://hl7.org/fhir/us/qicore/StructureDefinition/qicore-observation"]},"status":"final","category":[{"coding":[{"system":"http://terminology.hl7.org/CodeSystem/observation-category","code":"exam","display":"exam","userSelected":true}]}],"code":{"coding":[{"system":"http://loinc.org","code":"11884-4"}]},"subject":{"reference":"Patient/ef3e4256-a321-4ce0-812b-ec7e7158085a"},"effectiveDateTime":"2026-06-08T09:15:00.000+00:00","valueQuantity":{"value":38,"system":"http://unitsofmeasure.org","code":"wk"}},"request":{"method":"PUT","url":"Observation/47ec768d-1d08-45eb-8e04-d477cb7961d4"}},{"fullUrl":"https://madie.cms.gov/Observation/24389b60-11cf-4ecc-820a-a2d1de5ac0f8","resource":{"resourceType":"Observation","id":"24389b60-11cf-4ecc-820a-a2d1de5ac0f8","meta":{"profile":["http://hl7.org/fhir/us/qicore/StructureDefinition/qicore-observation"]},"status":"final","category":[{"coding":[{"system":"http://terminology.hl7.org/CodeSystem/observation-category","code":"exam","display":"exam","userSelected":true}]}],"code":{"coding":[{"system":"http://loinc.org","code":"93857-1"}]},"subject":{"reference":"Patient/ef3e4256-a321-4ce0-812b-ec7e7158085a"},"effectiveDateTime":"2026-06-08T09:15:00.000+00:00","valueDateTime":"2026-06-08T09:15:00+00:00"},"request":{"method":"PUT","url":"Observation/24389b60-11cf-4ecc-820a-a2d1de5ac0f8"}},{"fullUrl":"https://madie.cms.gov/Encounter/9973a276-84f4-4fda-9349-db4ccae10362","resource":{"resourceType":"Encounter","id":"9973a276-84f4-4fda-9349-db4ccae10362","meta":{"profile":["http://hl7.org/fhir/us/qicore/StructureDefinition/qicore-encounter"]},"status":"finished","class":{"system":"http://terminology.hl7.org/CodeSystem/v3-ActCode","code":"IMP","display":"inpatient encounter"},"type":[{"coding":[{"system":"http://snomed.info/sct","code":"183452005"}]}],"subject":{"reference":"Patient/ef3e4256-a321-4ce0-812b-ec7e7158085a"},"period":{"start":"2026-06-08T08:00:00.000Z","end":"2026-06-10T08:15:00.000Z"},"length":{"value":2,"unit":"days"},"diagnosis":[{"condition":{"reference":"Condition/delivery-of-singleton-f83c"},"use":{"coding":[{"system":"http://snomed.info/sct","code":"169826009","display":"Delivery of Singleton"}]}},{"condition":{"reference":"Condition/6c90d347-c82a-4628-9789-3722e78acd23"},"use":{"coding":[{"system":"http://snomed.info/sct","code":"18559007","display":"Frank breech presentation (finding)"}]}},{"condition":{"reference":"Condition/3b7d29fb-b60b-4675-bfd3-8486608e68f0"}},{"condition":{"reference":"Condition/6c90d347-c82a-4628-9789-3722e78acd23"}}]},"request":{"method":"PUT","url":"Encounter/9973a276-84f4-4fda-9349-db4ccae10362"}},{"fullUrl":"https://madie.cms.gov/Coverage/163f8379-1adf-4390-ad8e-18fde00c73fd","resource":{"resourceType":"Coverage","id":"163f8379-1adf-4390-ad8e-18fde00c73fd","status":"active","beneficiary":{"reference":"Patient/ef3e4256-a321-4ce0-812b-ec7e7158085a"},"period":{"start":"1986-02-14T08:00:00.000Z"},"payor":[{"reference":"Organization/3778262e-e084-4bb5-9a47-1a144735f786"}]},"request":{"method":"PUT","url":"Coverage/163f8379-1adf-4390-ad8e-18fde00c73fd"}},{"fullUrl":"https://madie.cms.gov/Procedure/f5c19d54-fa0d-4d9c-b1b8-72c65b20fa57","resource":{"resourceType":"Procedure","id":"f5c19d54-fa0d-4d9c-b1b8-72c65b20fa57","meta":{"profile":["http://hl7.org/fhir/us/qicore/StructureDefinition/qicore-procedure"]},"extension":[{"url":"http://hl7.org/fhir/us/qicore/StructureDefinition/qicore-recorded","valueDateTime":"2014-04-05T09:35:00-04:00"}],"status":"completed","code":{"coding":[{"system":"http://www.cms.gov/Medicare/Coding/ICD10","code":"10D00Z0"},{"system":"http://www.icd10data.com/icd10pcs","code":"10D07Z3","userSelected":true}]},"subject":{"reference":"Patient/ef3e4256-a321-4ce0-812b-ec7e7158085a"},"performedPeriod":{"start":"2026-06-08T08:00:00.000Z","end":"2026-06-08T09:15:00.000Z"}},"request":{"method":"PUT","url":"Procedure/f5c19d54-fa0d-4d9c-b1b8-72c65b20fa57"}},{"fullUrl":"https://madie.cms.gov/Condition/3b7d29fb-b60b-4675-bfd3-8486608e68f0","resource":{"resourceType":"Condition","id":"3b7d29fb-b60b-4675-bfd3-8486608e68f0","meta":{"profile":["http://hl7.org/fhir/us/qicore/StructureDefinition/qicore-condition"]},"category":[{"coding":[{"system":"http://terminology.hl7.org/CodeSystem/condition-category","code":"encounter-diagnosis","display":"Encounter Diagnosis"}]}],"code":{"coding":[{"system":"http://snomed.info/sct","version":"2022-09","code":"169826009","display":"Single live birth (finding)","userSelected":true}]},"subject":{"reference":"Patient/ef3e4256-a321-4ce0-812b-ec7e7158085a"},"recordedDate":"2026-10-20T08:00:00.000+00:00"},"request":{"method":"PUT","url":"Condition/3b7d29fb-b60b-4675-bfd3-8486608e68f0"}},{"fullUrl":"https://madie.cms.gov/Condition/6c90d347-c82a-4628-9789-3722e78acd23","resource":{"resourceType":"Condition","id":"6c90d347-c82a-4628-9789-3722e78acd23","meta":{"profile":["http://hl7.org/fhir/us/qicore/StructureDefinition/qicore-condition"]},"category":[{"coding":[{"system":"http://terminology.hl7.org/CodeSystem/condition-category","code":"encounter-diagnosis","display":"Encounter Diagnosis"}]}],"code":{"coding":[{"system":"http://snomed.info/sct","version":"2022-09","code":"18559007","display":"Frank breech presentation (finding)","userSelected":true}]},"subject":{"reference":"Patient/ef3e4256-a321-4ce0-812b-ec7e7158085a"},"recordedDate":"2026-10-21T08:00:00.000+00:00"},"request":{"method":"PUT","url":"Condition/6c90d347-c82a-4628-9789-3722e78acd23"}},{"fullUrl":"https://madie.cms.gov/Organization/368a7aed-a54d-4099-a0e5-467e431f6769","resource":{"resourceType":"Organization","id":"3778262e-e084-4bb5-9a47-1a144735f786","meta":{"profile":["http://hl7.org/fhir/us/qicore/StructureDefinition/qicore-organization"]},"identifier":[{"use":"temp","system":"urn:oid:2.16.840.1.113883.4.4","value":"21-3259825"}],"active":true,"type":[{"coding":[{"system":"http://terminology.hl7.org/CodeSystem/organization-type","code":"pay","display":"Payer"}]}],"name":"Blue Cross Blue Shield of Texas","telecom":[{"system":"phone","value":"(+1) 972-766-6900"}],"address":[{"use":"billing","type":"postal","line":["P.O. Box 660044"],"city":"Dallas","state":"TX","postalCode":"75266-0044","country":"USA"}]},"request":{"method":"PUT","url":"Organization/3778262e-e084-4bb5-9a47-1a144735f786"}},{"fullUrl":"https://madie.cms.gov/Practitioner/20daf1a7-f2f8-4ef3-a96d-42f9391114d8","resource":{"resourceType":"Practitioner","id":"20daf1a7-f2f8-4ef3-a96d-42f9391114d8","identifier":[{"system":"http://hl7.org/fhir/sid/us-npi","value":"123456"}],"name":[{"family":"Evil","prefix":["Dr"]}]},"request":{"method":"PUT","url":"Practitioner/20daf1a7-f2f8-4ef3-a96d-42f9391114d8"}},{"fullUrl":"https://madie.cms.gov/MeasureReport/b0dc9afc-ec5b-430e-8f50-00306836802e","resource":{"resourceType":"MeasureReport","id":"b0dc9afc-ec5b-430e-8f50-00306836802e","meta":{"profile":["http://hl7.org/fhir/us/cqfmeasures/StructureDefinition/test-case-cqfm"]},"contained":[{"resourceType":"Parameters","id":"fbdfb02c-2966-4148-b378-b5655dcd8db1-parameters","parameter":[{"name":"subject","valueString":"ef3e4256-a321-4ce0-812b-ec7e7158085a"}]}],"extension":[{"url":"http://hl7.org/fhir/us/cqfmeasures/StructureDefinition/cqfm-inputParameters","valueReference":{"reference":"#fbdfb02c-2966-4148-b378-b5655dcd8db1-parameters"}},{"url":"http://hl7.org/fhir/us/cqfmeasures/StructureDefinition/cqfm-testCaseDescription","valueMarkdown":"Passes: IP, Pt is 27 years of age,  encounter dx of delivery of singleton, gravida1, EGA38 weeks\n"}],"modifierExtension":[{"url":"http://hl7.org/fhir/us/cqfmeasures/StructureDefinition/cqfm-isTestCase","valueBoolean":true}],"status":"complete","type":"individual","measure":"https://madie.cms.gov/Measure/CMS334FHIRPCCesareanBirth","period":{"start":"2026-01-01","end":"2026-12-31"},"group":[{"population":[{"code":{"coding":[{"system":"http://terminology.hl7.org/CodeSystem/measure-population","code":"initial-population","display":"Initial Population"}]},"count":1},{"code":{"coding":[{"system":"http://terminology.hl7.org/CodeSystem/measure-population","code":"denominator","display":"Denominator"}]},"count":1},{"code":{"coding":[{"system":"http://terminology.hl7.org/CodeSystem/measure-population","code":"denominator-exclusion","display":"Denominator Exclusion"}]},"count":1},{"code":{"coding":[{"system":"http://terminology.hl7.org/CodeSystem/measure-population","code":"numerator","display":"Numerator"}]},"count":0}]}]},"request":{"method":"PUT","url":"MeasureReport/b0dc9afc-ec5b-430e-8f50-00306836802e"}}]}