{"resourceType":"Bundle","id":"tests-1df41494-87ab-4167-95a8-8d38e0c059f3-bundle","type":"transaction","entry":[{"fullUrl":"https://madie.cms.gov/Patient/1df41494-87ab-4167-95a8-8d38e0c059f3","resource":{"resourceType":"Patient","id":"1df41494-87ab-4167-95a8-8d38e0c059f3","meta":{"profile":["http://hl7.org/fhir/us/qicore/StructureDefinition/qicore-patient"]},"text":{"status":"generated","div":"<div xmlns=\"http://www.w3.org/1999/xhtml\"><div class=\"hapiHeaderText\">AssessTimeOfDelivRelvDateTimeEQDelivEncEnd <b>DENPASS </b></div><table class=\"hapiPropertyTable\"><tbody><tr><td>Identifier</td><td>6be577fcfc58a0f157e5a93fd65e49b7f4787364657c858f26ba6356e13eb3b6</td></tr><tr><td>Date of birth</td><td><span>14 February 1985</span></td></tr></tbody></table></div>"},"extension":[{"url":"http://hl7.org/fhir/us/core/StructureDefinition/us-core-race","extension":[{"url":"ombCategory","valueCoding":{"system":"urn:oid:2.16.840.1.113883.6.238","code":"1002-5","display":"American Indian or Alaska Native","userSelected":true}},{"url":"text","valueString":"American Indian or Alaska Native"}]},{"url":"http://hl7.org/fhir/us/core/StructureDefinition/us-core-ethnicity","extension":[{"url":"ombCategory","valueCoding":{"system":"urn:oid:2.16.840.1.113883.6.238","code":"2135-2","display":"Hispanic or Latino","userSelected":true}},{"url":"text","valueString":"Hispanic or Latino"}]}],"identifier":[{"type":{"coding":[{"system":"http://terminology.hl7.org/CodeSystem/v2-0203","code":"MR"}]},"system":"https://bonnie-fhir.healthit.gov/","value":"63487c2e0968f80122540171"}],"active":true,"name":[{"use":"usual","family":"DENPass","given":["AssessTimeOfDelivRelvDateTimeEQDelivEncEnd"]}],"gender":"female","birthDate":"1998-02-14"},"request":{"method":"PUT","url":"Patient/1df41494-87ab-4167-95a8-8d38e0c059f3"}},{"fullUrl":"https://madie.cms.gov/Observation/99114dc8-43e4-4eae-b134-4bd0515a2426","resource":{"resourceType":"Observation","id":"99114dc8-43e4-4eae-b134-4bd0515a2426","meta":{"profile":["http://hl7.org/fhir/us/qicore/StructureDefinition/qicore-observation"]},"status":"final","category":[{"coding":[{"system":"http://terminology.hl7.org/CodeSystem/observation-category","code":"exam","display":"exam","userSelected":true}]}],"code":{"coding":[{"system":"http://loinc.org","code":"11996-6"}]},"subject":{"reference":"Patient/1df41494-87ab-4167-95a8-8d38e0c059f3"},"effectiveDateTime":"2026-06-08T08:00:00.000+00:00","valueInteger":1},"request":{"method":"PUT","url":"Observation/99114dc8-43e4-4eae-b134-4bd0515a2426"}},{"fullUrl":"https://madie.cms.gov/Observation/7aebf13b-49cd-418d-a79c-b0d057f5bd05","resource":{"resourceType":"Observation","id":"7aebf13b-49cd-418d-a79c-b0d057f5bd05","meta":{"profile":["http://hl7.org/fhir/us/qicore/StructureDefinition/qicore-observation"]},"status":"final","category":[{"coding":[{"system":"http://terminology.hl7.org/CodeSystem/observation-category","code":"exam","display":"exam","userSelected":true}]}],"code":{"coding":[{"system":"http://loinc.org","code":"11884-4"}]},"subject":{"reference":"Patient/1df41494-87ab-4167-95a8-8d38e0c059f3"},"effectiveDateTime":"2026-06-10T08:15:00.000+00:00","valueQuantity":{"value":38,"system":"http://unitsofmeasure.org","code":"wk"}},"request":{"method":"PUT","url":"Observation/7aebf13b-49cd-418d-a79c-b0d057f5bd05"}},{"fullUrl":"https://madie.cms.gov/Observation/b5a0df28-59c5-49cc-bc6e-4a2625c384b3","resource":{"resourceType":"Observation","id":"b5a0df28-59c5-49cc-bc6e-4a2625c384b3","meta":{"profile":["http://hl7.org/fhir/us/qicore/StructureDefinition/qicore-observation"]},"status":"final","category":[{"coding":[{"system":"http://terminology.hl7.org/CodeSystem/observation-category","code":"exam","display":"exam","userSelected":true}]}],"code":{"coding":[{"system":"http://loinc.org","code":"93857-1"}]},"subject":{"reference":"Patient/1df41494-87ab-4167-95a8-8d38e0c059f3"},"effectiveDateTime":"2026-06-10T08:15:00.000+00:00","valueDateTime":"2026-06-10T08:15:00+00:00"},"request":{"method":"PUT","url":"Observation/b5a0df28-59c5-49cc-bc6e-4a2625c384b3"}},{"fullUrl":"https://madie.cms.gov/Encounter/9db7593a-f08f-402d-881e-a2456377f730","resource":{"resourceType":"Encounter","id":"9db7593a-f08f-402d-881e-a2456377f730","meta":{"profile":["http://hl7.org/fhir/us/qicore/StructureDefinition/qicore-encounter"]},"status":"finished","class":{"system":"http://terminology.hl7.org/CodeSystem/v3-ActCode","code":"IMP","display":"inpatient encounter"},"type":[{"coding":[{"system":"http://snomed.info/sct","code":"183452005"}]}],"subject":{"reference":"Patient/1df41494-87ab-4167-95a8-8d38e0c059f3"},"period":{"start":"2026-06-08T08:00:00.000Z","end":"2026-06-10T08:15:00.000Z"},"length":{"value":2,"unit":"days"},"diagnosis":[{"condition":{"reference":"Condition/delivery-of-singleton-f83c"},"use":{"coding":[{"system":"http://snomed.info/sct","code":"169826009","display":"Delivery of Singleton"}]}},{"condition":{"reference":"Condition/80da988f-2bc3-4977-a15d-795d911e7f08"}}]},"request":{"method":"PUT","url":"Encounter/9db7593a-f08f-402d-881e-a2456377f730"}},{"fullUrl":"https://madie.cms.gov/Procedure/2417af1c-6e90-432c-9eb7-ac22b9c005d3","resource":{"resourceType":"Procedure","id":"2417af1c-6e90-432c-9eb7-ac22b9c005d3","meta":{"profile":["http://hl7.org/fhir/us/qicore/StructureDefinition/qicore-procedure"]},"extension":[{"url":"http://hl7.org/fhir/us/qicore/StructureDefinition/qicore-recorded","valueDateTime":"2014-04-05T09:35:00-04:00"}],"status":"completed","code":{"coding":[{"system":"http://www.cms.gov/Medicare/Coding/ICD10","code":"10D00Z0"},{"system":"http://www.icd10data.com/icd10pcs","code":"10D00Z0","userSelected":true}]},"subject":{"reference":"Patient/1df41494-87ab-4167-95a8-8d38e0c059f3"},"performedPeriod":{"start":"2026-06-08T08:00:00.000Z","end":"2026-06-08T09:15:00.000Z"}},"request":{"method":"PUT","url":"Procedure/2417af1c-6e90-432c-9eb7-ac22b9c005d3"}},{"fullUrl":"https://madie.cms.gov/Condition/80da988f-2bc3-4977-a15d-795d911e7f08","resource":{"resourceType":"Condition","id":"80da988f-2bc3-4977-a15d-795d911e7f08","meta":{"profile":["http://hl7.org/fhir/us/qicore/StructureDefinition/qicore-condition"]},"category":[{"coding":[{"system":"http://terminology.hl7.org/CodeSystem/condition-category","code":"encounter-diagnosis","display":"Encounter Diagnosis"}]}],"code":{"coding":[{"system":"http://snomed.info/sct","version":"2022-09","code":"169826009","display":"Single live birth (finding)","userSelected":true}]},"subject":{"reference":"Patient/1df41494-87ab-4167-95a8-8d38e0c059f3"},"recordedDate":"2026-10-20T08:00:00.000+00:00"},"request":{"method":"PUT","url":"Condition/80da988f-2bc3-4977-a15d-795d911e7f08"}},{"fullUrl":"https://madie.cms.gov/Coverage/7438a3b7-a9e0-4820-ae68-166837f30353","resource":{"resourceType":"Coverage","id":"7438a3b7-a9e0-4820-ae68-166837f30353","meta":{"profile":["http://hl7.org/fhir/us/qicore/StructureDefinition/qicore-coverage"]},"status":"active","beneficiary":{"reference":"Patient/1df41494-87ab-4167-95a8-8d38e0c059f3"},"payor":[{"reference":"Organization/890316dc-a4ad-43b4-ba6f-9fb9e6eca282"}]},"request":{"method":"PUT","url":"Coverage/7438a3b7-a9e0-4820-ae68-166837f30353"}},{"fullUrl":"https://madie.cms.gov/Organization/c400cf13-3225-415b-a376-f15e3741e7cd","resource":{"resourceType":"Organization","id":"890316dc-a4ad-43b4-ba6f-9fb9e6eca282","meta":{"profile":["http://hl7.org/fhir/us/qicore/StructureDefinition/qicore-organization"]},"identifier":[{"use":"temp","system":"urn:oid:2.16.840.1.113883.4.4","value":"21-3259825"}],"active":true,"type":[{"coding":[{"system":"http://terminology.hl7.org/CodeSystem/organization-type","code":"pay","display":"Payer"}]}],"name":"Blue Cross Blue Shield of Texas","telecom":[{"system":"phone","value":"(+1) 972-766-6900"}],"address":[{"use":"billing","type":"postal","line":["P.O. Box 660044"],"city":"Dallas","state":"TX","postalCode":"75266-0044","country":"USA"}]},"request":{"method":"PUT","url":"Organization/890316dc-a4ad-43b4-ba6f-9fb9e6eca282"}},{"fullUrl":"https://madie.cms.gov/Practitioner/204bf5e9-a17d-41cb-8703-044b93e8235f","resource":{"resourceType":"Practitioner","id":"204bf5e9-a17d-41cb-8703-044b93e8235f","identifier":[{"system":"http://hl7.org/fhir/sid/us-npi","value":"123456"}],"name":[{"family":"Evil","prefix":["Dr"]}]},"request":{"method":"PUT","url":"Practitioner/204bf5e9-a17d-41cb-8703-044b93e8235f"}},{"fullUrl":"https://madie.cms.gov/MeasureReport/96a18b9e-2bcc-41da-91f6-a65264879fcd","resource":{"resourceType":"MeasureReport","id":"96a18b9e-2bcc-41da-91f6-a65264879fcd","meta":{"profile":["http://hl7.org/fhir/us/cqfmeasures/StructureDefinition/test-case-cqfm"]},"contained":[{"resourceType":"Parameters","id":"f7117c12-28d0-4199-9281-e856a0671cc0-parameters","parameter":[{"name":"subject","valueString":"1df41494-87ab-4167-95a8-8d38e0c059f3"}]}],"extension":[{"url":"http://hl7.org/fhir/us/cqfmeasures/StructureDefinition/cqfm-inputParameters","valueReference":{"reference":"#f7117c12-28d0-4199-9281-e856a0671cc0-parameters"}},{"url":"http://hl7.org/fhir/us/cqfmeasures/StructureDefinition/cqfm-testCaseDescription","valueMarkdown":"Passes: IP, Pt is 27 years of age,  encounter dx of delivery of singleton, gravida, EGA @ 38 weeks, AsseDelivTm Is DelivEncEnd.  Tests \"TimeOfDelivery.RelvDatetime during DeliveryEncounters.relevantPeriod\".\n"}],"modifierExtension":[{"url":"http://hl7.org/fhir/us/cqfmeasures/StructureDefinition/cqfm-isTestCase","valueBoolean":true}],"status":"complete","type":"individual","measure":"https://madie.cms.gov/Measure/CMS334FHIRPCCesareanBirth","period":{"start":"2026-01-01","end":"2026-12-31"},"group":[{"population":[{"code":{"coding":[{"system":"http://terminology.hl7.org/CodeSystem/measure-population","code":"initial-population","display":"Initial Population"}]},"count":1},{"code":{"coding":[{"system":"http://terminology.hl7.org/CodeSystem/measure-population","code":"denominator","display":"Denominator"}]},"count":1},{"code":{"coding":[{"system":"http://terminology.hl7.org/CodeSystem/measure-population","code":"denominator-exclusion","display":"Denominator Exclusion"}]},"count":0},{"code":{"coding":[{"system":"http://terminology.hl7.org/CodeSystem/measure-population","code":"numerator","display":"Numerator"}]},"count":1}]}]},"request":{"method":"PUT","url":"MeasureReport/96a18b9e-2bcc-41da-91f6-a65264879fcd"}}]}