{"resourceType":"Bundle","id":"tests-912e076d-3b5d-46cc-b2cb-c78172b295a3-bundle","type":"transaction","entry":[{"fullUrl":"https://madie.cms.gov/Patient/912e076d-3b5d-46cc-b2cb-c78172b295a3","resource":{"resourceType":"Patient","id":"912e076d-3b5d-46cc-b2cb-c78172b295a3","meta":{"profile":["http://hl7.org/fhir/us/qicore/StructureDefinition/qicore-patient"]},"text":{"status":"generated","div":"<div xmlns=\"http://www.w3.org/1999/xhtml\"><div class=\"hapiHeaderText\">EGALT37weeks <b>DENFAIL </b></div><table class=\"hapiPropertyTable\"><tbody><tr><td>Identifier</td><td>abdde563892ce226aeccbefc9ec5c953</td></tr><tr><td>Date of birth</td><td><span>14 February 1985</span></td></tr></tbody></table></div>"},"extension":[{"url":"http://hl7.org/fhir/us/core/StructureDefinition/us-core-race","extension":[{"url":"ombCategory","valueCoding":{"system":"urn:oid:2.16.840.1.113883.6.238","code":"1002-5","display":"American Indian or Alaska Native","userSelected":true}},{"url":"text","valueString":"American Indian or Alaska Native"}]},{"url":"http://hl7.org/fhir/us/core/StructureDefinition/us-core-ethnicity","extension":[{"url":"ombCategory","valueCoding":{"system":"urn:oid:2.16.840.1.113883.6.238","code":"2135-2","display":"Hispanic or Latino","userSelected":true}},{"url":"text","valueString":"Hispanic or Latino"}]}],"identifier":[{"type":{"coding":[{"system":"http://terminology.hl7.org/CodeSystem/v2-0203","code":"MR"}]},"system":"https://bonnie-fhir.healthit.gov/","value":"63487c2d0968f80122540143"}],"active":true,"name":[{"use":"usual","family":"DENFail","given":["EGALT37weeks"]}],"gender":"female","birthDate":"1998-02-14"},"request":{"method":"PUT","url":"Patient/912e076d-3b5d-46cc-b2cb-c78172b295a3"}},{"fullUrl":"https://madie.cms.gov/Observation/f328e26c-235b-41ff-a65c-6111a9e99db8","resource":{"resourceType":"Observation","id":"f328e26c-235b-41ff-a65c-6111a9e99db8","meta":{"profile":["http://hl7.org/fhir/us/qicore/StructureDefinition/qicore-observation"]},"status":"final","category":[{"coding":[{"system":"http://terminology.hl7.org/CodeSystem/observation-category","code":"exam","display":"exam","userSelected":true}]}],"code":{"coding":[{"system":"http://loinc.org","code":"11977-6"}]},"subject":{"reference":"Patient/912e076d-3b5d-46cc-b2cb-c78172b295a3"},"effectiveDateTime":"2026-03-08T09:00:00.000+00:00","valueInteger":0},"request":{"method":"PUT","url":"Observation/f328e26c-235b-41ff-a65c-6111a9e99db8"}},{"fullUrl":"https://madie.cms.gov/Observation/0911747f-cc90-43ff-b245-30f682598c0f","resource":{"resourceType":"Observation","id":"0911747f-cc90-43ff-b245-30f682598c0f","meta":{"profile":["http://hl7.org/fhir/us/qicore/StructureDefinition/qicore-observation"]},"status":"final","category":[{"coding":[{"system":"http://terminology.hl7.org/CodeSystem/observation-category","code":"exam","display":"exam","userSelected":true}]}],"code":{"coding":[{"system":"http://loinc.org","code":"11996-6"}]},"subject":{"reference":"Patient/912e076d-3b5d-46cc-b2cb-c78172b295a3"},"effectiveDateTime":"2026-03-09T08:00:00.000+00:00","valueInteger":1},"request":{"method":"PUT","url":"Observation/0911747f-cc90-43ff-b245-30f682598c0f"}},{"fullUrl":"https://madie.cms.gov/Observation/b78b3bc5-b7a9-4069-92c2-f0c9e49444b0","resource":{"resourceType":"Observation","id":"b78b3bc5-b7a9-4069-92c2-f0c9e49444b0","meta":{"profile":["http://hl7.org/fhir/us/qicore/StructureDefinition/qicore-observation"]},"status":"final","category":[{"coding":[{"system":"http://terminology.hl7.org/CodeSystem/observation-category","code":"exam","display":"exam","userSelected":true}]}],"code":{"coding":[{"system":"http://loinc.org","code":"11884-4"}]},"subject":{"reference":"Patient/912e076d-3b5d-46cc-b2cb-c78172b295a3"},"effectiveDateTime":"2026-06-08T17:00:00.000+00:00","valueQuantity":{"value":36,"system":"http://unitsofmeasure.org","code":"wk"}},"request":{"method":"PUT","url":"Observation/b78b3bc5-b7a9-4069-92c2-f0c9e49444b0"}},{"fullUrl":"https://madie.cms.gov/Observation/d9002ecf-caaa-4848-bac6-ee989bde96cc","resource":{"resourceType":"Observation","id":"d9002ecf-caaa-4848-bac6-ee989bde96cc","meta":{"profile":["http://hl7.org/fhir/us/qicore/StructureDefinition/qicore-observation"]},"status":"final","category":[{"coding":[{"system":"http://terminology.hl7.org/CodeSystem/observation-category","code":"exam","display":"exam","userSelected":true}]}],"code":{"coding":[{"system":"http://loinc.org","code":"93857-1"}]},"subject":{"reference":"Patient/912e076d-3b5d-46cc-b2cb-c78172b295a3"},"effectiveDateTime":"2026-06-08T20:00:00.000+00:00","valueDateTime":"2026-06-08T20:00:00+00:00"},"request":{"method":"PUT","url":"Observation/d9002ecf-caaa-4848-bac6-ee989bde96cc"}},{"fullUrl":"https://madie.cms.gov/Encounter/b7856af3-c5bb-47de-bc4e-4517ef1d3d3b","resource":{"resourceType":"Encounter","id":"b7856af3-c5bb-47de-bc4e-4517ef1d3d3b","meta":{"profile":["http://hl7.org/fhir/us/qicore/StructureDefinition/qicore-encounter"]},"status":"finished","class":{"system":"http://terminology.hl7.org/CodeSystem/v3-ActCode","code":"IMP","display":"inpatient encounter"},"type":[{"coding":[{"system":"http://snomed.info/sct","code":"8715000"}]}],"subject":{"reference":"Patient/912e076d-3b5d-46cc-b2cb-c78172b295a3"},"period":{"start":"2026-06-08T08:00:00.000Z","end":"2026-06-10T08:15:00.000Z"},"length":{"value":2,"unit":"days"},"diagnosis":[{"condition":{"reference":"Condition/delivery-of-singleton-f83c"},"use":{"coding":[{"system":"http://snomed.info/sct","code":"169826009","display":"Delivery of Singleton"}]}},{"condition":{"reference":"Condition/ef482bda-5165-4474-ba00-eb79f76e6c78"}}]},"request":{"method":"PUT","url":"Encounter/b7856af3-c5bb-47de-bc4e-4517ef1d3d3b"}},{"fullUrl":"https://madie.cms.gov/Procedure/7fe1aa54-2842-4db7-be20-9fb5939f8369","resource":{"resourceType":"Procedure","id":"7fe1aa54-2842-4db7-be20-9fb5939f8369","meta":{"profile":["http://hl7.org/fhir/us/qicore/StructureDefinition/qicore-procedure"]},"extension":[{"url":"http://hl7.org/fhir/us/qicore/StructureDefinition/qicore-recorded","valueDateTime":"2014-04-05T09:35:00-04:00"}],"status":"completed","code":{"coding":[{"system":"http://www.cms.gov/Medicare/Coding/ICD10","code":"10D00Z0"},{"system":"http://snomed.info/sct","code":"4504004"},{"system":"http://www.icd10data.com/icd10pcs","code":"10D00Z0","userSelected":true}]},"subject":{"reference":"Patient/912e076d-3b5d-46cc-b2cb-c78172b295a3"},"performedPeriod":{"start":"2026-06-08T20:00:00.000Z"}},"request":{"method":"PUT","url":"Procedure/7fe1aa54-2842-4db7-be20-9fb5939f8369"}},{"fullUrl":"https://madie.cms.gov/Condition/ef482bda-5165-4474-ba00-eb79f76e6c78","resource":{"resourceType":"Condition","id":"ef482bda-5165-4474-ba00-eb79f76e6c78","meta":{"profile":["http://hl7.org/fhir/us/qicore/StructureDefinition/qicore-condition"]},"category":[{"coding":[{"system":"http://terminology.hl7.org/CodeSystem/condition-category","code":"encounter-diagnosis","display":"Encounter Diagnosis"}]}],"code":{"coding":[{"system":"http://snomed.info/sct","version":"2022-09","code":"169826009","display":"Single live birth (finding)","userSelected":true}]},"subject":{"reference":"Patient/912e076d-3b5d-46cc-b2cb-c78172b295a3"},"recordedDate":"2026-10-21T08:00:00.000+00:00"},"request":{"method":"PUT","url":"Condition/ef482bda-5165-4474-ba00-eb79f76e6c78"}},{"fullUrl":"https://madie.cms.gov/Coverage/d527f5be-08dd-4fa8-a68b-061850c7c7a4","resource":{"resourceType":"Coverage","id":"d527f5be-08dd-4fa8-a68b-061850c7c7a4","meta":{"profile":["http://hl7.org/fhir/us/qicore/StructureDefinition/qicore-coverage"]},"status":"active","beneficiary":{"reference":"Patient/912e076d-3b5d-46cc-b2cb-c78172b295a3"},"payor":[{"reference":"Organization/3e899f33-84eb-4634-a770-a5a0bd7a80e7"}]},"request":{"method":"PUT","url":"Coverage/d527f5be-08dd-4fa8-a68b-061850c7c7a4"}},{"fullUrl":"https://madie.cms.gov/Organization/8a4a012e-acad-4b75-8e37-0e9afd95cb32","resource":{"resourceType":"Organization","id":"3e899f33-84eb-4634-a770-a5a0bd7a80e7","meta":{"profile":["http://hl7.org/fhir/us/qicore/StructureDefinition/qicore-organization"]},"identifier":[{"use":"temp","system":"urn:oid:2.16.840.1.113883.4.4","value":"21-3259825"}],"active":true,"type":[{"coding":[{"system":"http://terminology.hl7.org/CodeSystem/organization-type","code":"pay","display":"Payer"}]}],"name":"Blue Cross Blue Shield of Texas","telecom":[{"system":"phone","value":"(+1) 972-766-6900"}],"address":[{"use":"billing","type":"postal","line":["P.O. Box 660044"],"city":"Dallas","state":"TX","postalCode":"75266-0044","country":"USA"}]},"request":{"method":"PUT","url":"Organization/3e899f33-84eb-4634-a770-a5a0bd7a80e7"}},{"fullUrl":"https://madie.cms.gov/Practitioner/ed07d1b7-f0ad-4168-9a4a-9b7e479ee89c","resource":{"resourceType":"Practitioner","id":"ed07d1b7-f0ad-4168-9a4a-9b7e479ee89c","identifier":[{"system":"http://hl7.org/fhir/sid/us-npi","value":"123456"}],"name":[{"family":"Evil","prefix":["Dr"]}]},"request":{"method":"PUT","url":"Practitioner/ed07d1b7-f0ad-4168-9a4a-9b7e479ee89c"}},{"fullUrl":"https://madie.cms.gov/MeasureReport/203800c7-1ccb-47fd-8bb0-4a0cb95a1004","resource":{"resourceType":"MeasureReport","id":"203800c7-1ccb-47fd-8bb0-4a0cb95a1004","meta":{"profile":["http://hl7.org/fhir/us/cqfmeasures/StructureDefinition/test-case-cqfm"]},"contained":[{"resourceType":"Parameters","id":"13edac25-8e96-44a4-acbb-836e6bb79d14-parameters","parameter":[{"name":"subject","valueString":"912e076d-3b5d-46cc-b2cb-c78172b295a3"}]}],"extension":[{"url":"http://hl7.org/fhir/us/cqfmeasures/StructureDefinition/cqfm-inputParameters","valueReference":{"reference":"#13edac25-8e96-44a4-acbb-836e6bb79d14-parameters"}},{"url":"http://hl7.org/fhir/us/cqfmeasures/StructureDefinition/cqfm-testCaseDescription","valueMarkdown":"Passes IP,  intentional fail of the Den d/t EGA 36 weeks\n"}],"modifierExtension":[{"url":"http://hl7.org/fhir/us/cqfmeasures/StructureDefinition/cqfm-isTestCase","valueBoolean":true}],"status":"complete","type":"individual","measure":"https://madie.cms.gov/Measure/CMS334FHIRPCCesareanBirth","period":{"start":"2026-01-01","end":"2026-12-31"},"group":[{"population":[{"code":{"coding":[{"system":"http://terminology.hl7.org/CodeSystem/measure-population","code":"initial-population","display":"Initial Population"}]},"count":1},{"code":{"coding":[{"system":"http://terminology.hl7.org/CodeSystem/measure-population","code":"denominator","display":"Denominator"}]},"count":0},{"code":{"coding":[{"system":"http://terminology.hl7.org/CodeSystem/measure-population","code":"denominator-exclusion","display":"Denominator Exclusion"}]},"count":0},{"code":{"coding":[{"system":"http://terminology.hl7.org/CodeSystem/measure-population","code":"numerator","display":"Numerator"}]},"count":0}]}]},"request":{"method":"PUT","url":"MeasureReport/203800c7-1ccb-47fd-8bb0-4a0cb95a1004"}}]}