{"resourceType":"Bundle","id":"tests-0623e2b5-f872-4574-934b-ef2e63d85b6d-bundle","type":"transaction","entry":[{"fullUrl":"https://madie.cms.gov/Patient/0623e2b5-f872-4574-934b-ef2e63d85b6d","resource":{"resourceType":"Patient","id":"0623e2b5-f872-4574-934b-ef2e63d85b6d","meta":{"profile":["http://hl7.org/fhir/us/qicore/StructureDefinition/qicore-patient"]},"text":{"status":"generated","div":"<div xmlns=\"http://www.w3.org/1999/xhtml\"><div class=\"hapiHeaderText\">EncDxNotAbnPres <b>DENEXFAIL </b></div><table class=\"hapiPropertyTable\"><tbody><tr><td>Identifier</td><td>7428b2b362015fd476ba0221287d599b0682523b1019318961fe8ec9cb029610</td></tr><tr><td>Date of birth</td><td><span>14 February 1985</span></td></tr></tbody></table></div>"},"extension":[{"url":"http://hl7.org/fhir/us/core/StructureDefinition/us-core-race","extension":[{"url":"ombCategory","valueCoding":{"system":"urn:oid:2.16.840.1.113883.6.238","code":"1002-5","display":"American Indian or Alaska Native","userSelected":true}},{"url":"text","valueString":"American Indian or Alaska Native"}]},{"url":"http://hl7.org/fhir/us/core/StructureDefinition/us-core-ethnicity","extension":[{"url":"ombCategory","valueCoding":{"system":"urn:oid:2.16.840.1.113883.6.238","code":"2135-2","display":"Hispanic or Latino","userSelected":true}},{"url":"text","valueString":"Hispanic or Latino"}]}],"identifier":[{"type":{"coding":[{"system":"http://terminology.hl7.org/CodeSystem/v2-0203","code":"MR"}]},"system":"https://bonnie-fhir.healthit.gov/","value":"63487c2e0968f80122540187"}],"active":true,"name":[{"use":"usual","family":"DENEXFail","given":["EncDxNotAbnPres"]}],"gender":"female","birthDate":"1998-02-14"},"request":{"method":"PUT","url":"Patient/0623e2b5-f872-4574-934b-ef2e63d85b6d"}},{"fullUrl":"https://madie.cms.gov/Observation/7b7ef7fe-3957-4533-b36e-eb22e304eed2","resource":{"resourceType":"Observation","id":"7b7ef7fe-3957-4533-b36e-eb22e304eed2","meta":{"profile":["http://hl7.org/fhir/us/qicore/StructureDefinition/qicore-observation"]},"status":"final","category":[{"coding":[{"system":"http://terminology.hl7.org/CodeSystem/observation-category","code":"exam","display":"exam","userSelected":true}]}],"code":{"coding":[{"system":"http://loinc.org","code":"11996-6"}]},"subject":{"reference":"Patient/0623e2b5-f872-4574-934b-ef2e63d85b6d"},"effectiveDateTime":"2026-06-08T08:00:00.000+00:00","valueInteger":1},"request":{"method":"PUT","url":"Observation/7b7ef7fe-3957-4533-b36e-eb22e304eed2"}},{"fullUrl":"https://madie.cms.gov/Observation/abeffbfd-73e8-4429-a25e-55b96f5524b4","resource":{"resourceType":"Observation","id":"abeffbfd-73e8-4429-a25e-55b96f5524b4","meta":{"profile":["http://hl7.org/fhir/us/qicore/StructureDefinition/qicore-observation"]},"status":"final","category":[{"coding":[{"system":"http://terminology.hl7.org/CodeSystem/observation-category","code":"exam","display":"exam","userSelected":true}]}],"code":{"coding":[{"system":"http://loinc.org","code":"11884-4"}]},"subject":{"reference":"Patient/0623e2b5-f872-4574-934b-ef2e63d85b6d"},"effectiveDateTime":"2026-06-08T08:00:00.000+00:00","valueQuantity":{"value":43,"system":"http://unitsofmeasure.org","code":"wk"}},"request":{"method":"PUT","url":"Observation/abeffbfd-73e8-4429-a25e-55b96f5524b4"}},{"fullUrl":"https://madie.cms.gov/Observation/fa34ac4d-a65a-40aa-8f4d-4bf720b5cbaf","resource":{"resourceType":"Observation","id":"fa34ac4d-a65a-40aa-8f4d-4bf720b5cbaf","meta":{"profile":["http://hl7.org/fhir/us/qicore/StructureDefinition/qicore-observation"]},"status":"final","category":[{"coding":[{"system":"http://terminology.hl7.org/CodeSystem/observation-category","code":"exam","display":"exam","userSelected":true}]}],"code":{"coding":[{"system":"http://loinc.org","code":"93857-1"}]},"subject":{"reference":"Patient/0623e2b5-f872-4574-934b-ef2e63d85b6d"},"effectiveDateTime":"2026-06-08T20:00:00.000+00:00","valueDateTime":"2026-06-08T20:00:00+00:00"},"request":{"method":"PUT","url":"Observation/fa34ac4d-a65a-40aa-8f4d-4bf720b5cbaf"}},{"fullUrl":"https://madie.cms.gov/Encounter/2531a602-70de-4cb6-b9e1-411b4495a366","resource":{"resourceType":"Encounter","id":"2531a602-70de-4cb6-b9e1-411b4495a366","meta":{"profile":["http://hl7.org/fhir/us/qicore/StructureDefinition/qicore-encounter"]},"status":"finished","class":{"system":"http://terminology.hl7.org/CodeSystem/v3-ActCode","code":"IMP","display":"inpatient encounter"},"type":[{"coding":[{"system":"http://snomed.info/sct","code":"8715000"}]}],"subject":{"reference":"Patient/0623e2b5-f872-4574-934b-ef2e63d85b6d"},"period":{"start":"2026-06-08T08:00:00.000Z","end":"2026-06-10T08:15:00.000Z"},"diagnosis":[{"condition":{"reference":"Condition/b6f16b98-8700-4564-aeeb-3ceca8a4a40f"}}]},"request":{"method":"PUT","url":"Encounter/2531a602-70de-4cb6-b9e1-411b4495a366"}},{"fullUrl":"https://madie.cms.gov/Procedure/461f6aa9-8d51-4e8f-8308-11fd205a70db","resource":{"resourceType":"Procedure","id":"461f6aa9-8d51-4e8f-8308-11fd205a70db","meta":{"profile":["http://hl7.org/fhir/us/qicore/StructureDefinition/qicore-procedure"]},"extension":[{"url":"http://hl7.org/fhir/us/qicore/StructureDefinition/qicore-recorded","valueDateTime":"2014-04-05T09:35:00-04:00"}],"status":"completed","code":{"coding":[{"system":"http://snomed.info/sct","code":"4504004"},{"system":"http://www.icd10data.com/icd10pcs","code":"10D00Z0","userSelected":true}]},"subject":{"reference":"Patient/0623e2b5-f872-4574-934b-ef2e63d85b6d"},"performedDateTime":"2026-06-08T20:00:00.000+00:00"},"request":{"method":"PUT","url":"Procedure/461f6aa9-8d51-4e8f-8308-11fd205a70db"}},{"fullUrl":"https://madie.cms.gov/Condition/b6f16b98-8700-4564-aeeb-3ceca8a4a40f","resource":{"resourceType":"Condition","id":"b6f16b98-8700-4564-aeeb-3ceca8a4a40f","meta":{"profile":["http://hl7.org/fhir/us/qicore/StructureDefinition/qicore-condition"]},"category":[{"coding":[{"system":"http://terminology.hl7.org/CodeSystem/condition-category","code":"encounter-diagnosis","display":"Encounter Diagnosis"}]}],"code":{"coding":[{"system":"http://snomed.info/sct","version":"2022-09","code":"169826009","display":"Single live birth (finding)","userSelected":true}]},"subject":{"reference":"Patient/0623e2b5-f872-4574-934b-ef2e63d85b6d"},"recordedDate":"2026-10-17T08:00:00.000+00:00"},"request":{"method":"PUT","url":"Condition/b6f16b98-8700-4564-aeeb-3ceca8a4a40f"}},{"fullUrl":"https://madie.cms.gov/Coverage/ee482bf0-9761-4afa-aa63-6810bb3d7102","resource":{"resourceType":"Coverage","id":"ee482bf0-9761-4afa-aa63-6810bb3d7102","meta":{"profile":["http://hl7.org/fhir/us/qicore/StructureDefinition/qicore-coverage"]},"status":"active","beneficiary":{"reference":"Patient/0623e2b5-f872-4574-934b-ef2e63d85b6d"},"payor":[{"reference":"Organization/3e899f33-84eb-4634-a770-a5a0bd7a80e7"}]},"request":{"method":"PUT","url":"Coverage/ee482bf0-9761-4afa-aa63-6810bb3d7102"}},{"fullUrl":"https://madie.cms.gov/Organization/65cbe800-38d2-4760-acc0-e4f64ef459f7","resource":{"resourceType":"Organization","id":"3e899f33-84eb-4634-a770-a5a0bd7a80e7","meta":{"profile":["http://hl7.org/fhir/us/qicore/StructureDefinition/qicore-organization"]},"identifier":[{"use":"temp","system":"urn:oid:2.16.840.1.113883.4.4","value":"21-3259825"}],"active":true,"type":[{"coding":[{"system":"http://terminology.hl7.org/CodeSystem/organization-type","code":"pay","display":"Payer"}]}],"name":"Blue Cross Blue Shield of Texas","telecom":[{"system":"phone","value":"(+1) 972-766-6900"}],"address":[{"use":"billing","type":"postal","line":["P.O. Box 660044"],"city":"Dallas","state":"TX","postalCode":"75266-0044","country":"USA"}]},"request":{"method":"PUT","url":"Organization/3e899f33-84eb-4634-a770-a5a0bd7a80e7"}},{"fullUrl":"https://madie.cms.gov/Practitioner/9e470f86-8167-4554-8c31-7119074ef437","resource":{"resourceType":"Practitioner","id":"9e470f86-8167-4554-8c31-7119074ef437","identifier":[{"system":"http://hl7.org/fhir/sid/us-npi","value":"123456"}],"name":[{"family":"Evil","prefix":["Dr"]}]},"request":{"method":"PUT","url":"Practitioner/9e470f86-8167-4554-8c31-7119074ef437"}},{"fullUrl":"https://madie.cms.gov/MeasureReport/8536d186-6b59-42f6-bf44-0b365a462d84","resource":{"resourceType":"MeasureReport","id":"8536d186-6b59-42f6-bf44-0b365a462d84","meta":{"profile":["http://hl7.org/fhir/us/cqfmeasures/StructureDefinition/test-case-cqfm"]},"contained":[{"resourceType":"Parameters","id":"6efd7d26-11f2-4860-a358-0d6b6eafd9f6-parameters","parameter":[{"name":"subject","valueString":"0623e2b5-f872-4574-934b-ef2e63d85b6d"}]}],"extension":[{"url":"http://hl7.org/fhir/us/cqfmeasures/StructureDefinition/cqfm-inputParameters","valueReference":{"reference":"#6efd7d26-11f2-4860-a358-0d6b6eafd9f6-parameters"}},{"url":"http://hl7.org/fhir/us/cqfmeasures/StructureDefinition/cqfm-testCaseDescription","valueMarkdown":"EGA 43 weeks; Not abnormal presentation on encounter Attr dx, gravida 1, \n"}],"modifierExtension":[{"url":"http://hl7.org/fhir/us/cqfmeasures/StructureDefinition/cqfm-isTestCase","valueBoolean":true}],"status":"complete","type":"individual","measure":"https://madie.cms.gov/Measure/CMS334FHIRPCCesareanBirth","period":{"start":"2026-01-01","end":"2026-12-31"},"group":[{"population":[{"code":{"coding":[{"system":"http://terminology.hl7.org/CodeSystem/measure-population","code":"initial-population","display":"Initial Population"}]},"count":1},{"code":{"coding":[{"system":"http://terminology.hl7.org/CodeSystem/measure-population","code":"denominator","display":"Denominator"}]},"count":1},{"code":{"coding":[{"system":"http://terminology.hl7.org/CodeSystem/measure-population","code":"denominator-exclusion","display":"Denominator Exclusion"}]},"count":0},{"code":{"coding":[{"system":"http://terminology.hl7.org/CodeSystem/measure-population","code":"numerator","display":"Numerator"}]},"count":0}]}]},"request":{"method":"PUT","url":"MeasureReport/8536d186-6b59-42f6-bf44-0b365a462d84"}}]}