{"resourceType":"Bundle","id":"tests-09b062ec-b061-4f7c-be0f-d4f1423b352e-bundle","type":"transaction","entry":[{"fullUrl":"https://madie.cms.gov/Patient/09b062ec-b061-4f7c-be0f-d4f1423b352e","resource":{"resourceType":"Patient","id":"09b062ec-b061-4f7c-be0f-d4f1423b352e","meta":{"profile":["http://hl7.org/fhir/us/qicore/StructureDefinition/qicore-patient"]},"text":{"status":"generated","div":"<div xmlns=\"http://www.w3.org/1999/xhtml\"><div class=\"hapiHeaderText\">EncInpEndsB4MP <b>IPFAIL </b></div><table class=\"hapiPropertyTable\"><tbody><tr><td>Identifier</td><td>d6ba1863f4ff0948823fa062ff4cd900</td></tr><tr><td>Date of birth</td><td><span>28 August 1989</span></td></tr></tbody></table></div>"},"extension":[{"url":"http://hl7.org/fhir/us/core/StructureDefinition/us-core-race","extension":[{"url":"ombCategory","valueCoding":{"system":"urn:oid:2.16.840.1.113883.6.238","code":"1002-5","display":"American Indian or Alaska Native","userSelected":true}},{"url":"text","valueString":"American Indian or Alaska Native"}]},{"url":"http://hl7.org/fhir/us/core/StructureDefinition/us-core-ethnicity","extension":[{"url":"ombCategory","valueCoding":{"system":"urn:oid:2.16.840.1.113883.6.238","code":"2135-2","display":"Hispanic or Latino","userSelected":true}},{"url":"text","valueString":"Hispanic or Latino"}]}],"identifier":[{"type":{"coding":[{"system":"http://terminology.hl7.org/CodeSystem/v2-0203","code":"MR"}]},"system":"https://bonnie-fhir.healthit.gov/","value":"63487c2d0968f80122540142"}],"active":true,"name":[{"use":"usual","family":"IPFail","given":["EncInpEndsB4MP"]}],"gender":"female","birthDate":"1990-08-28"},"request":{"method":"PUT","url":"Patient/09b062ec-b061-4f7c-be0f-d4f1423b352e"}},{"fullUrl":"https://madie.cms.gov/Encounter/74480c0a-23fe-4030-9f97-6cfba26abeac","resource":{"resourceType":"Encounter","id":"74480c0a-23fe-4030-9f97-6cfba26abeac","meta":{"profile":["http://hl7.org/fhir/us/qicore/StructureDefinition/qicore-encounter"]},"status":"finished","class":{"system":"http://terminology.hl7.org/CodeSystem/v3-ActCode","code":"IMP","display":"inpatient encounter"},"type":[{"coding":[{"system":"http://snomed.info/sct","code":"8715000"}]}],"subject":{"reference":"Patient/09b062ec-b061-4f7c-be0f-d4f1423b352e"},"period":{"start":"2025-12-01T08:00:00.000+00:00","end":"2025-12-31T08:00:00.000+00:00"},"diagnosis":[{"condition":{"reference":"Condition/Condition-2"},"use":{"coding":[{"system":"http://snomed.info/sct","code":"169826009","display":"Delivery of Singleton"}]}}]},"request":{"method":"PUT","url":"Encounter/74480c0a-23fe-4030-9f97-6cfba26abeac"}},{"fullUrl":"https://madie.cms.gov/Procedure/bf901c64-dec7-426a-b6c5-8c61def4e651","resource":{"resourceType":"Procedure","id":"bf901c64-dec7-426a-b6c5-8c61def4e651","meta":{"profile":["http://hl7.org/fhir/us/qicore/StructureDefinition/qicore-procedure"]},"extension":[{"url":"http://hl7.org/fhir/us/qicore/StructureDefinition/qicore-recorded","valueDateTime":"2014-04-05T09:35:00-04:00"}],"status":"completed","code":{"coding":[{"system":"http://snomed.info/sct","code":"10745001"}]},"subject":{"reference":"Patient/09b062ec-b061-4f7c-be0f-d4f1423b352e"},"performedPeriod":{"start":"2025-12-02T08:00:00.000Z","end":"2025-12-03T08:00:00.000Z"}},"request":{"method":"PUT","url":"Procedure/bf901c64-dec7-426a-b6c5-8c61def4e651"}},{"fullUrl":"https://madie.cms.gov/Coverage/f9b6afe8-b031-431c-9951-98df3d0f3021","resource":{"resourceType":"Coverage","id":"f9b6afe8-b031-431c-9951-98df3d0f3021","meta":{"profile":["http://hl7.org/fhir/us/qicore/StructureDefinition/qicore-coverage"]},"status":"active","beneficiary":{"reference":"Patient/09b062ec-b061-4f7c-be0f-d4f1423b352e"},"payor":[{"reference":"Organization/db141f66-a1cc-407b-9e95-adac27adee14"}]},"request":{"method":"PUT","url":"Coverage/f9b6afe8-b031-431c-9951-98df3d0f3021"}},{"fullUrl":"https://madie.cms.gov/Organization/8cdd02b8-a59a-49c0-8c66-611afd93deb3","resource":{"resourceType":"Organization","id":"db141f66-a1cc-407b-9e95-adac27adee14","meta":{"profile":["http://hl7.org/fhir/us/qicore/StructureDefinition/qicore-organization"]},"identifier":[{"use":"temp","system":"urn:oid:2.16.840.1.113883.4.4","value":"21-3259825"}],"active":true,"type":[{"coding":[{"system":"http://terminology.hl7.org/CodeSystem/organization-type","code":"pay","display":"Payer"}]}],"name":"Blue Cross Blue Shield of Texas","telecom":[{"system":"phone","value":"(+1) 972-766-6900"}],"address":[{"use":"billing","type":"postal","line":["P.O. Box 660044"],"city":"Dallas","state":"TX","postalCode":"75266-0044","country":"USA"}]},"request":{"method":"PUT","url":"Organization/db141f66-a1cc-407b-9e95-adac27adee14"}},{"fullUrl":"https://madie.cms.gov/Practitioner/57e630a9-dfab-42e3-b504-44d0a833af4e","resource":{"resourceType":"Practitioner","id":"57e630a9-dfab-42e3-b504-44d0a833af4e","identifier":[{"system":"http://hl7.org/fhir/sid/us-npi","value":"123456"}],"name":[{"family":"Evil","prefix":["Dr"]}]},"request":{"method":"PUT","url":"Practitioner/57e630a9-dfab-42e3-b504-44d0a833af4e"}},{"fullUrl":"https://madie.cms.gov/MeasureReport/71f20c25-3f17-411b-8853-42b291661fba","resource":{"resourceType":"MeasureReport","id":"71f20c25-3f17-411b-8853-42b291661fba","meta":{"profile":["http://hl7.org/fhir/us/cqfmeasures/StructureDefinition/test-case-cqfm"]},"contained":[{"resourceType":"Parameters","id":"fc60c373-da0b-4c3e-905c-9df460b18bea-parameters","parameter":[{"name":"subject","valueString":"09b062ec-b061-4f7c-be0f-d4f1423b352e"}]}],"extension":[{"url":"http://hl7.org/fhir/us/cqfmeasures/StructureDefinition/cqfm-inputParameters","valueReference":{"reference":"#fc60c373-da0b-4c3e-905c-9df460b18bea-parameters"}},{"url":"http://hl7.org/fhir/us/cqfmeasures/StructureDefinition/cqfm-testCaseDescription","valueMarkdown":"EncounterInpatient.relevantPeriod ends before \"Measurement Period\".  Fails IPP because it ends BEFORE MP.\n"}],"modifierExtension":[{"url":"http://hl7.org/fhir/us/cqfmeasures/StructureDefinition/cqfm-isTestCase","valueBoolean":true}],"status":"complete","type":"individual","measure":"https://madie.cms.gov/Measure/CMS334FHIRPCCesareanBirth","period":{"start":"2026-01-01","end":"2026-12-31"},"group":[{"population":[{"code":{"coding":[{"system":"http://terminology.hl7.org/CodeSystem/measure-population","code":"initial-population","display":"Initial Population"}]},"count":0},{"code":{"coding":[{"system":"http://terminology.hl7.org/CodeSystem/measure-population","code":"denominator","display":"Denominator"}]},"count":0},{"code":{"coding":[{"system":"http://terminology.hl7.org/CodeSystem/measure-population","code":"denominator-exclusion","display":"Denominator Exclusion"}]},"count":0},{"code":{"coding":[{"system":"http://terminology.hl7.org/CodeSystem/measure-population","code":"numerator","display":"Numerator"}]},"count":0}]}]},"request":{"method":"PUT","url":"MeasureReport/71f20c25-3f17-411b-8853-42b291661fba"}}]}