{"resourceType":"Bundle","id":"tests-fb35958d-f564-47d5-a75f-925b67b22f28-bundle","type":"transaction","entry":[{"fullUrl":"https://madie.cms.gov/Patient/fb35958d-f564-47d5-a75f-925b67b22f28","resource":{"resourceType":"Patient","id":"fb35958d-f564-47d5-a75f-925b67b22f28","meta":{"profile":["http://hl7.org/fhir/us/qicore/StructureDefinition/qicore-patient"]},"text":{"status":"generated","div":"<div xmlns=\"http://www.w3.org/1999/xhtml\"><div class=\"hapiHeaderText\">AssessGATime24HrsB4TimeOfDeliv <b>DENPASS </b></div><table class=\"hapiPropertyTable\"><tbody><tr><td>Identifier</td><td>399eb1d15b18a70b0a1fc126870ee45fba3a6862e3faa339c35b816b8fe113c4</td></tr><tr><td>Date of birth</td><td><span>14 February 1985</span></td></tr></tbody></table></div>"},"extension":[{"url":"http://hl7.org/fhir/us/core/StructureDefinition/us-core-race","extension":[{"url":"ombCategory","valueCoding":{"system":"urn:oid:2.16.840.1.113883.6.238","code":"1002-5","display":"American Indian or Alaska Native","userSelected":true}},{"url":"text","valueString":"American Indian or Alaska Native"}]},{"url":"http://hl7.org/fhir/us/core/StructureDefinition/us-core-ethnicity","extension":[{"url":"ombCategory","valueCoding":{"system":"urn:oid:2.16.840.1.113883.6.238","code":"2135-2","display":"Hispanic or Latino","userSelected":true}},{"url":"text","valueString":"Hispanic or Latino"}]}],"identifier":[{"type":{"coding":[{"system":"http://terminology.hl7.org/CodeSystem/v2-0203","code":"MR"}]},"system":"https://bonnie-fhir.healthit.gov/","value":"63487c2f0968f80122540198"}],"active":true,"name":[{"use":"usual","family":"DENPass","given":["AssessGATime24HrsB4TimeOfDeliv"]}],"gender":"female","birthDate":"1998-02-14"},"request":{"method":"PUT","url":"Patient/fb35958d-f564-47d5-a75f-925b67b22f28"}},{"fullUrl":"https://madie.cms.gov/Observation/9166ced2-35f4-4193-ad7e-79ed7a5e2986","resource":{"resourceType":"Observation","id":"9166ced2-35f4-4193-ad7e-79ed7a5e2986","meta":{"profile":["http://hl7.org/fhir/us/qicore/StructureDefinition/qicore-observation"]},"status":"final","category":[{"coding":[{"system":"http://terminology.hl7.org/CodeSystem/observation-category","code":"exam","display":"exam","userSelected":true}]}],"code":{"coding":[{"system":"http://loinc.org","code":"11884-4"}]},"subject":{"reference":"Patient/fb35958d-f564-47d5-a75f-925b67b22f28"},"effectiveDateTime":"2026-06-07T09:15:00.000+00:00","valueQuantity":{"value":37,"system":"http://unitsofmeasure.org","code":"wk"}},"request":{"method":"PUT","url":"Observation/9166ced2-35f4-4193-ad7e-79ed7a5e2986"}},{"fullUrl":"https://madie.cms.gov/Observation/722c9aad-391b-457d-a209-f52ec4251c88","resource":{"resourceType":"Observation","id":"722c9aad-391b-457d-a209-f52ec4251c88","meta":{"profile":["http://hl7.org/fhir/us/qicore/StructureDefinition/qicore-observation"]},"status":"final","category":[{"coding":[{"system":"http://terminology.hl7.org/CodeSystem/observation-category","code":"exam","display":"exam","userSelected":true}]}],"code":{"coding":[{"system":"http://loinc.org","code":"11996-6"}]},"subject":{"reference":"Patient/fb35958d-f564-47d5-a75f-925b67b22f28"},"effectiveDateTime":"2026-06-08T08:00:00.000+00:00","valueInteger":1},"request":{"method":"PUT","url":"Observation/722c9aad-391b-457d-a209-f52ec4251c88"}},{"fullUrl":"https://madie.cms.gov/Observation/14e1344b-5c60-4562-a23f-cc6bf76ed8ce","resource":{"resourceType":"Observation","id":"14e1344b-5c60-4562-a23f-cc6bf76ed8ce","meta":{"profile":["http://hl7.org/fhir/us/qicore/StructureDefinition/qicore-observation"]},"status":"final","category":[{"coding":[{"system":"http://terminology.hl7.org/CodeSystem/observation-category","code":"exam","display":"exam","userSelected":true}]}],"code":{"coding":[{"system":"http://loinc.org","code":"93857-1"}]},"subject":{"reference":"Patient/fb35958d-f564-47d5-a75f-925b67b22f28"},"effectiveDateTime":"2026-06-08T09:15:00.000+00:00","valueDateTime":"2026-06-08T09:15:00+00:00"},"request":{"method":"PUT","url":"Observation/14e1344b-5c60-4562-a23f-cc6bf76ed8ce"}},{"fullUrl":"https://madie.cms.gov/Encounter/b21c73a7-e19d-4119-9345-262ce0ea3da5","resource":{"resourceType":"Encounter","id":"b21c73a7-e19d-4119-9345-262ce0ea3da5","meta":{"profile":["http://hl7.org/fhir/us/qicore/StructureDefinition/qicore-encounter"]},"status":"finished","class":{"system":"http://terminology.hl7.org/CodeSystem/v3-ActCode","code":"IMP","display":"inpatient encounter"},"type":[{"coding":[{"system":"http://snomed.info/sct","code":"183452005"}]}],"subject":{"reference":"Patient/fb35958d-f564-47d5-a75f-925b67b22f28"},"period":{"start":"2026-06-08T08:00:00.000Z","end":"2026-06-10T08:15:00.000Z"},"length":{"value":2,"unit":"days"},"diagnosis":[{"condition":{"reference":"Condition/a121e728-ab64-44f9-8445-ad16ca51e7ca"},"use":{"coding":[{"system":"http://snomed.info/sct","code":"169826009","display":"Delivery of Singleton"}]}}]},"request":{"method":"PUT","url":"Encounter/b21c73a7-e19d-4119-9345-262ce0ea3da5"}},{"fullUrl":"https://madie.cms.gov/Coverage/9e116d39-ea94-489e-80b5-816d36f23f2b","resource":{"resourceType":"Coverage","id":"9e116d39-ea94-489e-80b5-816d36f23f2b","status":"active","beneficiary":{"reference":"Patient/fb35958d-f564-47d5-a75f-925b67b22f28"},"period":{"start":"1986-02-14T08:00:00.000Z"},"payor":[{"reference":"Organization/890316dc-a4ad-43b4-ba6f-9fb9e6eca282"}]},"request":{"method":"PUT","url":"Coverage/9e116d39-ea94-489e-80b5-816d36f23f2b"}},{"fullUrl":"https://madie.cms.gov/Procedure/39210ba9-9071-4844-b52a-d085c2fd0a0a","resource":{"resourceType":"Procedure","id":"39210ba9-9071-4844-b52a-d085c2fd0a0a","meta":{"profile":["http://hl7.org/fhir/us/qicore/StructureDefinition/qicore-procedure"]},"extension":[{"url":"http://hl7.org/fhir/us/qicore/StructureDefinition/qicore-recorded","valueDateTime":"2014-04-05T09:35:00-04:00"}],"status":"completed","code":{"coding":[{"system":"http://www.cms.gov/Medicare/Coding/ICD10","code":"10D07Z3"},{"system":"http://www.icd10data.com/icd10pcs","code":"10D07Z3","userSelected":true}]},"subject":{"reference":"Patient/fb35958d-f564-47d5-a75f-925b67b22f28"},"performedPeriod":{"start":"2026-06-08T08:00:00.000Z","end":"2026-06-08T09:15:00.000Z"}},"request":{"method":"PUT","url":"Procedure/39210ba9-9071-4844-b52a-d085c2fd0a0a"}},{"fullUrl":"https://madie.cms.gov/Condition/a121e728-ab64-44f9-8445-ad16ca51e7ca","resource":{"resourceType":"Condition","id":"a121e728-ab64-44f9-8445-ad16ca51e7ca","meta":{"profile":["http://hl7.org/fhir/us/qicore/StructureDefinition/qicore-condition"]},"category":[{"coding":[{"system":"http://terminology.hl7.org/CodeSystem/condition-category","code":"encounter-diagnosis","display":"Encounter Diagnosis"}]}],"code":{"coding":[{"system":"http://snomed.info/sct","version":"2022-09","code":"169826009","display":"Single live birth (finding)","userSelected":true}]},"subject":{"reference":"Patient/fb35958d-f564-47d5-a75f-925b67b22f28"},"recordedDate":"2026-10-20T08:00:00.000+00:00"},"request":{"method":"PUT","url":"Condition/a121e728-ab64-44f9-8445-ad16ca51e7ca"}},{"fullUrl":"https://madie.cms.gov/Organization/9eabc861-8af5-4966-8a15-296532ad7313","resource":{"resourceType":"Organization","id":"890316dc-a4ad-43b4-ba6f-9fb9e6eca282","meta":{"profile":["http://hl7.org/fhir/us/qicore/StructureDefinition/qicore-organization"]},"identifier":[{"use":"temp","system":"urn:oid:2.16.840.1.113883.4.4","value":"21-3259825"}],"active":true,"type":[{"coding":[{"system":"http://terminology.hl7.org/CodeSystem/organization-type","code":"pay","display":"Payer"}]}],"name":"Blue Cross Blue Shield of Texas","telecom":[{"system":"phone","value":"(+1) 972-766-6900"}],"address":[{"use":"billing","type":"postal","line":["P.O. Box 660044"],"city":"Dallas","state":"TX","postalCode":"75266-0044","country":"USA"}]},"request":{"method":"PUT","url":"Organization/890316dc-a4ad-43b4-ba6f-9fb9e6eca282"}},{"fullUrl":"https://madie.cms.gov/Practitioner/b604960b-c338-4b7d-814c-11ce9b72c2f4","resource":{"resourceType":"Practitioner","id":"b604960b-c338-4b7d-814c-11ce9b72c2f4","identifier":[{"system":"http://hl7.org/fhir/sid/us-npi","value":"123456"}],"name":[{"family":"Evil","prefix":["Dr"]}]},"request":{"method":"PUT","url":"Practitioner/b604960b-c338-4b7d-814c-11ce9b72c2f4"}},{"fullUrl":"https://madie.cms.gov/MeasureReport/24e3c654-0b75-46f1-92e8-c90cef09e902","resource":{"resourceType":"MeasureReport","id":"24e3c654-0b75-46f1-92e8-c90cef09e902","meta":{"profile":["http://hl7.org/fhir/us/cqfmeasures/StructureDefinition/test-case-cqfm"]},"contained":[{"resourceType":"Parameters","id":"550dd47f-148f-4688-afdf-5415b16aebcc-parameters","parameter":[{"name":"subject","valueString":"fb35958d-f564-47d5-a75f-925b67b22f28"}]}],"extension":[{"url":"http://hl7.org/fhir/us/cqfmeasures/StructureDefinition/cqfm-inputParameters","valueReference":{"reference":"#550dd47f-148f-4688-afdf-5415b16aebcc-parameters"}},{"url":"http://hl7.org/fhir/us/cqfmeasures/StructureDefinition/cqfm-testCaseDescription","valueMarkdown":"Passes: IP, Pt is 27 years of age,  encounter dx of delivery of singleton,, EGA @ 37 weeks  24 hours before TmDelivery.  \n"}],"modifierExtension":[{"url":"http://hl7.org/fhir/us/cqfmeasures/StructureDefinition/cqfm-isTestCase","valueBoolean":true}],"status":"complete","type":"individual","measure":"https://madie.cms.gov/Measure/CMS334FHIRPCCesareanBirth","period":{"start":"2026-01-01","end":"2026-12-31"},"group":[{"population":[{"code":{"coding":[{"system":"http://terminology.hl7.org/CodeSystem/measure-population","code":"initial-population","display":"Initial Population"}]},"count":1},{"code":{"coding":[{"system":"http://terminology.hl7.org/CodeSystem/measure-population","code":"denominator","display":"Denominator"}]},"count":1},{"code":{"coding":[{"system":"http://terminology.hl7.org/CodeSystem/measure-population","code":"denominator-exclusion","display":"Denominator Exclusion"}]},"count":0},{"code":{"coding":[{"system":"http://terminology.hl7.org/CodeSystem/measure-population","code":"numerator","display":"Numerator"}]},"count":0}]}]},"request":{"method":"PUT","url":"MeasureReport/24e3c654-0b75-46f1-92e8-c90cef09e902"}}]}