{"resourceType":"Bundle","id":"tests-8b0160c7-9fb9-47e0-8a7d-ac8afc5b3ea3-bundle","type":"transaction","entry":[{"fullUrl":"https://madie.cms.gov/Patient/8b0160c7-9fb9-47e0-8a7d-ac8afc5b3ea3","resource":{"resourceType":"Patient","id":"8b0160c7-9fb9-47e0-8a7d-ac8afc5b3ea3","meta":{"profile":["http://hl7.org/fhir/us/qicore/StructureDefinition/qicore-patient"]},"text":{"status":"generated","div":"<div xmlns=\"http://www.w3.org/1999/xhtml\"><div class=\"hapiHeaderText\">AssessGARelDtTimeB4TimeOfDel <b>DENPASS </b></div><table class=\"hapiPropertyTable\"><tbody><tr><td>Identifier</td><td>399eb1d15b18a70b0a1fc126870ee45fba3a6862e3faa339c35b816b8fe113c4</td></tr><tr><td>Date of birth</td><td><span>14 February 1985</span></td></tr></tbody></table></div>"},"extension":[{"url":"http://hl7.org/fhir/us/core/StructureDefinition/us-core-race","extension":[{"url":"ombCategory","valueCoding":{"system":"urn:oid:2.16.840.1.113883.6.238","code":"1002-5","display":"American Indian or Alaska Native","userSelected":true}},{"url":"text","valueString":"American Indian or Alaska Native"}]},{"url":"http://hl7.org/fhir/us/core/StructureDefinition/us-core-ethnicity","extension":[{"url":"ombCategory","valueCoding":{"system":"urn:oid:2.16.840.1.113883.6.238","code":"2135-2","display":"Hispanic or Latino","userSelected":true}},{"url":"text","valueString":"Hispanic or Latino"}]}],"identifier":[{"type":{"coding":[{"system":"http://terminology.hl7.org/CodeSystem/v2-0203","code":"MR"}]},"system":"https://bonnie-fhir.healthit.gov/","value":"63487c2e0968f80122540173"}],"active":true,"name":[{"use":"usual","family":"DENPass","given":["AssessGARelDtTimeB4TimeOfDel"]}],"gender":"female","birthDate":"1998-02-14"},"request":{"method":"PUT","url":"Patient/8b0160c7-9fb9-47e0-8a7d-ac8afc5b3ea3"}},{"fullUrl":"https://madie.cms.gov/Observation/28c5b7d9-5e9f-42ca-b752-654e5f03aa9a","resource":{"resourceType":"Observation","id":"28c5b7d9-5e9f-42ca-b752-654e5f03aa9a","meta":{"profile":["http://hl7.org/fhir/us/qicore/StructureDefinition/qicore-observation"]},"status":"final","category":[{"coding":[{"system":"http://terminology.hl7.org/CodeSystem/observation-category","code":"exam","display":"exam","userSelected":true}]}],"code":{"coding":[{"system":"http://loinc.org","code":"11884-4"}]},"subject":{"reference":"Patient/8b0160c7-9fb9-47e0-8a7d-ac8afc5b3ea3"},"effectiveDateTime":"2026-06-08T00:00:00.000+00:00","valueQuantity":{"value":37,"system":"http://unitsofmeasure.org","code":"wk"}},"request":{"method":"PUT","url":"Observation/28c5b7d9-5e9f-42ca-b752-654e5f03aa9a"}},{"fullUrl":"https://madie.cms.gov/Observation/24eca9f6-0272-4a22-a6b0-67b3ed5eceb5","resource":{"resourceType":"Observation","id":"24eca9f6-0272-4a22-a6b0-67b3ed5eceb5","meta":{"profile":["http://hl7.org/fhir/us/qicore/StructureDefinition/qicore-observation"]},"status":"final","category":[{"coding":[{"system":"http://terminology.hl7.org/CodeSystem/observation-category","code":"exam","display":"exam","userSelected":true}]}],"code":{"coding":[{"system":"http://loinc.org","code":"11996-6"}]},"subject":{"reference":"Patient/8b0160c7-9fb9-47e0-8a7d-ac8afc5b3ea3"},"effectiveDateTime":"2026-06-08T08:00:00.000+00:00","valueInteger":1},"request":{"method":"PUT","url":"Observation/24eca9f6-0272-4a22-a6b0-67b3ed5eceb5"}},{"fullUrl":"https://madie.cms.gov/Observation/27796ca6-802f-4263-9eb9-bb352823bfa7","resource":{"resourceType":"Observation","id":"27796ca6-802f-4263-9eb9-bb352823bfa7","meta":{"profile":["http://hl7.org/fhir/us/qicore/StructureDefinition/qicore-observation"]},"status":"final","category":[{"coding":[{"system":"http://terminology.hl7.org/CodeSystem/observation-category","code":"exam","display":"exam","userSelected":true}]}],"code":{"coding":[{"system":"http://loinc.org","code":"93857-1"}]},"subject":{"reference":"Patient/8b0160c7-9fb9-47e0-8a7d-ac8afc5b3ea3"},"effectiveDateTime":"2026-06-08T09:15:00.000+00:00","valueDateTime":"2026-06-08T09:15:00+00:00"},"request":{"method":"PUT","url":"Observation/27796ca6-802f-4263-9eb9-bb352823bfa7"}},{"fullUrl":"https://madie.cms.gov/Encounter/b17efff7-f45e-4609-8ea5-6575e0437273","resource":{"resourceType":"Encounter","id":"b17efff7-f45e-4609-8ea5-6575e0437273","meta":{"profile":["http://hl7.org/fhir/us/qicore/StructureDefinition/qicore-encounter"]},"status":"finished","class":{"system":"http://terminology.hl7.org/CodeSystem/v3-ActCode","code":"IMP","display":"inpatient encounter"},"type":[{"coding":[{"system":"http://snomed.info/sct","code":"183452005"}]}],"subject":{"reference":"Patient/8b0160c7-9fb9-47e0-8a7d-ac8afc5b3ea3"},"period":{"start":"2026-06-08T08:00:00.000Z","end":"2026-06-10T08:15:00.000Z"},"length":{"value":2,"unit":"days"},"diagnosis":[{"condition":{"reference":"Condition/845229d9-8e1e-4175-8ce7-24655f67e09d"},"use":{"coding":[{"system":"http://snomed.info/sct","code":"169826009","display":"Delivery of Singleton"}]}}]},"request":{"method":"PUT","url":"Encounter/b17efff7-f45e-4609-8ea5-6575e0437273"}},{"fullUrl":"https://madie.cms.gov/Procedure/5e8983c3-d80a-422b-a83b-7c47440821bc","resource":{"resourceType":"Procedure","id":"5e8983c3-d80a-422b-a83b-7c47440821bc","meta":{"profile":["http://hl7.org/fhir/us/qicore/StructureDefinition/qicore-procedure"]},"extension":[{"url":"http://hl7.org/fhir/us/qicore/StructureDefinition/qicore-recorded","valueDateTime":"2014-04-05T09:35:00-04:00"}],"status":"completed","code":{"coding":[{"system":"http://www.cms.gov/Medicare/Coding/ICD10","code":"10D07Z3"},{"system":"http://www.icd10data.com/icd10pcs","code":"10D07Z3","userSelected":true}]},"subject":{"reference":"Patient/8b0160c7-9fb9-47e0-8a7d-ac8afc5b3ea3"},"performedPeriod":{"start":"2026-06-08T08:00:00.000Z","end":"2026-06-08T09:15:00.000Z"}},"request":{"method":"PUT","url":"Procedure/5e8983c3-d80a-422b-a83b-7c47440821bc"}},{"fullUrl":"https://madie.cms.gov/Condition/845229d9-8e1e-4175-8ce7-24655f67e09d","resource":{"resourceType":"Condition","id":"845229d9-8e1e-4175-8ce7-24655f67e09d","meta":{"profile":["http://hl7.org/fhir/us/qicore/StructureDefinition/qicore-condition"]},"category":[{"coding":[{"system":"http://terminology.hl7.org/CodeSystem/condition-category","code":"encounter-diagnosis","display":"Encounter Diagnosis"}]}],"code":{"coding":[{"system":"http://snomed.info/sct","version":"2022-09","code":"169826009","display":"Single live birth (finding)","userSelected":true}]},"subject":{"reference":"Patient/8b0160c7-9fb9-47e0-8a7d-ac8afc5b3ea3"},"recordedDate":"2026-10-19T08:00:00.000+00:00"},"request":{"method":"PUT","url":"Condition/845229d9-8e1e-4175-8ce7-24655f67e09d"}},{"fullUrl":"https://madie.cms.gov/Coverage/296fc3e3-cc2f-49ba-853f-5b2789802f8f","resource":{"resourceType":"Coverage","id":"296fc3e3-cc2f-49ba-853f-5b2789802f8f","meta":{"profile":["http://hl7.org/fhir/us/qicore/StructureDefinition/qicore-coverage"]},"status":"active","beneficiary":{"reference":"Patient/8b0160c7-9fb9-47e0-8a7d-ac8afc5b3ea3"},"payor":[{"reference":"Organization/aeb2c6be-6577-4bba-a6b6-6eab95111f1b"}]},"request":{"method":"PUT","url":"Coverage/296fc3e3-cc2f-49ba-853f-5b2789802f8f"}},{"fullUrl":"https://madie.cms.gov/Organization/24bb0245-6bbd-47d4-9a5d-75d13b6da75b","resource":{"resourceType":"Organization","id":"aeb2c6be-6577-4bba-a6b6-6eab95111f1b","meta":{"profile":["http://hl7.org/fhir/us/qicore/StructureDefinition/qicore-organization"]},"identifier":[{"use":"temp","system":"urn:oid:2.16.840.1.113883.4.4","value":"21-3259825"}],"active":true,"type":[{"coding":[{"system":"http://terminology.hl7.org/CodeSystem/organization-type","code":"pay","display":"Payer"}]}],"name":"Blue Cross Blue Shield of Texas","telecom":[{"system":"phone","value":"(+1) 972-766-6900"}],"address":[{"use":"billing","type":"postal","line":["P.O. Box 660044"],"city":"Dallas","state":"TX","postalCode":"75266-0044","country":"USA"}]},"request":{"method":"PUT","url":"Organization/aeb2c6be-6577-4bba-a6b6-6eab95111f1b"}},{"fullUrl":"https://madie.cms.gov/Practitioner/91e4b21f-a957-4380-b1c8-8133aad73e82","resource":{"resourceType":"Practitioner","id":"91e4b21f-a957-4380-b1c8-8133aad73e82","identifier":[{"system":"http://hl7.org/fhir/sid/us-npi","value":"123456"}],"name":[{"family":"Evil","prefix":["Dr"]}]},"request":{"method":"PUT","url":"Practitioner/91e4b21f-a957-4380-b1c8-8133aad73e82"}},{"fullUrl":"https://madie.cms.gov/MeasureReport/2988cb68-9888-4d5c-8691-6f92763cf599","resource":{"resourceType":"MeasureReport","id":"2988cb68-9888-4d5c-8691-6f92763cf599","meta":{"profile":["http://hl7.org/fhir/us/cqfmeasures/StructureDefinition/test-case-cqfm"]},"contained":[{"resourceType":"Parameters","id":"22d1e4e6-dd1b-422e-ad80-9f4e11feef50-parameters","parameter":[{"name":"subject","valueString":"8b0160c7-9fb9-47e0-8a7d-ac8afc5b3ea3"}]}],"extension":[{"url":"http://hl7.org/fhir/us/cqfmeasures/StructureDefinition/cqfm-inputParameters","valueReference":{"reference":"#22d1e4e6-dd1b-422e-ad80-9f4e11feef50-parameters"}},{"url":"http://hl7.org/fhir/us/cqfmeasures/StructureDefinition/cqfm-testCaseDescription","valueMarkdown":"Passes: IP, Pt is 27 years of age,  encounter dx of delivery of singleton, gravida, EGA @ 38 weeks  AsseEGA37 (same day, time B4 ) TmDeliver.  Tests \"Gestation37PlusWeeks.authorDatetime 1 day or less on or before TimeOfDelivery.relevantDatetime\".\n"}],"modifierExtension":[{"url":"http://hl7.org/fhir/us/cqfmeasures/StructureDefinition/cqfm-isTestCase","valueBoolean":true}],"status":"complete","type":"individual","measure":"https://madie.cms.gov/Measure/CMS334FHIRPCCesareanBirth","period":{"start":"2026-01-01","end":"2026-12-31"},"group":[{"population":[{"code":{"coding":[{"system":"http://terminology.hl7.org/CodeSystem/measure-population","code":"initial-population","display":"Initial Population"}]},"count":1},{"code":{"coding":[{"system":"http://terminology.hl7.org/CodeSystem/measure-population","code":"denominator","display":"Denominator"}]},"count":1},{"code":{"coding":[{"system":"http://terminology.hl7.org/CodeSystem/measure-population","code":"denominator-exclusion","display":"Denominator Exclusion"}]},"count":0},{"code":{"coding":[{"system":"http://terminology.hl7.org/CodeSystem/measure-population","code":"numerator","display":"Numerator"}]},"count":0}]}]},"request":{"method":"PUT","url":"MeasureReport/2988cb68-9888-4d5c-8691-6f92763cf599"}}]}