{"resourceType":"Bundle","id":"tests-3c63b420-89fb-4062-9319-ea509a3192c8-bundle","type":"transaction","entry":[{"fullUrl":"https://madie.cms.gov/Patient/3c63b420-89fb-4062-9319-ea509a3192c8","resource":{"resourceType":"Patient","id":"3c63b420-89fb-4062-9319-ea509a3192c8","meta":{"profile":["http://hl7.org/fhir/us/qicore/StructureDefinition/qicore-patient"]},"text":{"status":"generated","div":"<div xmlns=\"http://www.w3.org/1999/xhtml\"><div class=\"hapiHeaderText\">ProcCsectEndEQDelivEncEnd <b>NUMPASS </b></div><table class=\"hapiPropertyTable\"><tbody><tr><td>Identifier</td><td>a67ba324e458907a26a4b913484bc8c56e2f861e5f9a2d3286226ca477cf0053</td></tr><tr><td>Date of birth</td><td><span>14 February 1985</span></td></tr></tbody></table></div>"},"extension":[{"url":"http://hl7.org/fhir/us/core/StructureDefinition/us-core-race","extension":[{"url":"ombCategory","valueCoding":{"system":"urn:oid:2.16.840.1.113883.6.238","code":"1002-5","display":"American Indian or Alaska Native","userSelected":true}},{"url":"text","valueString":"American Indian or Alaska Native"}]},{"url":"http://hl7.org/fhir/us/core/StructureDefinition/us-core-ethnicity","extension":[{"url":"ombCategory","valueCoding":{"system":"urn:oid:2.16.840.1.113883.6.238","code":"2135-2","display":"Hispanic or Latino","userSelected":true}},{"url":"text","valueString":"Hispanic or Latino"}]}],"identifier":[{"type":{"coding":[{"system":"http://terminology.hl7.org/CodeSystem/v2-0203","code":"MR"}]},"system":"https://bonnie-fhir.healthit.gov/","value":"63487c2d0968f80122540152"}],"active":true,"name":[{"use":"usual","family":"NUMPass","given":["ProcCsectEndEQDelivEncEnd"]}],"gender":"female","birthDate":"1998-02-14"},"request":{"method":"PUT","url":"Patient/3c63b420-89fb-4062-9319-ea509a3192c8"}},{"fullUrl":"https://madie.cms.gov/Observation/00f9d2c5-d744-4c1e-a571-1b0da08f0358","resource":{"resourceType":"Observation","id":"00f9d2c5-d744-4c1e-a571-1b0da08f0358","meta":{"profile":["http://hl7.org/fhir/us/qicore/StructureDefinition/qicore-observation"]},"status":"final","category":[{"coding":[{"system":"http://terminology.hl7.org/CodeSystem/observation-category","code":"exam","display":"exam","userSelected":true}]}],"code":{"coding":[{"system":"http://loinc.org","code":"11996-6"}]},"subject":{"reference":"Patient/3c63b420-89fb-4062-9319-ea509a3192c8"},"effectiveDateTime":"2026-02-09T08:00:00.000+00:00","valueInteger":1},"request":{"method":"PUT","url":"Observation/00f9d2c5-d744-4c1e-a571-1b0da08f0358"}},{"fullUrl":"https://madie.cms.gov/Observation/9bd44420-30f4-4c0f-ab83-f03eb64387d2","resource":{"resourceType":"Observation","id":"9bd44420-30f4-4c0f-ab83-f03eb64387d2","meta":{"profile":["http://hl7.org/fhir/us/qicore/StructureDefinition/qicore-observation"]},"status":"final","category":[{"coding":[{"system":"http://terminology.hl7.org/CodeSystem/observation-category","code":"exam","display":"exam","userSelected":true}]}],"code":{"coding":[{"system":"http://loinc.org","code":"11884-4"}]},"subject":{"reference":"Patient/3c63b420-89fb-4062-9319-ea509a3192c8"},"effectiveDateTime":"2026-11-28T21:15:00.000+00:00","valueQuantity":{"value":40,"system":"http://unitsofmeasure.org","code":"wk"}},"request":{"method":"PUT","url":"Observation/9bd44420-30f4-4c0f-ab83-f03eb64387d2"}},{"fullUrl":"https://madie.cms.gov/Observation/f73217fd-4a05-45db-814e-fd08f9b4d144","resource":{"resourceType":"Observation","id":"f73217fd-4a05-45db-814e-fd08f9b4d144","meta":{"profile":["http://hl7.org/fhir/us/qicore/StructureDefinition/qicore-observation"]},"status":"final","category":[{"coding":[{"system":"http://terminology.hl7.org/CodeSystem/observation-category","code":"exam","display":"exam","userSelected":true}]}],"code":{"coding":[{"system":"http://loinc.org","code":"93857-1"}]},"subject":{"reference":"Patient/3c63b420-89fb-4062-9319-ea509a3192c8"},"effectiveDateTime":"2026-11-28T21:15:00.000+00:00","valueDateTime":"2026-11-28T21:15:00+00:00"},"request":{"method":"PUT","url":"Observation/f73217fd-4a05-45db-814e-fd08f9b4d144"}},{"fullUrl":"https://madie.cms.gov/Encounter/00db98ad-224f-4f6e-b6f2-1172b7a24b7c","resource":{"resourceType":"Encounter","id":"00db98ad-224f-4f6e-b6f2-1172b7a24b7c","meta":{"profile":["http://hl7.org/fhir/us/qicore/StructureDefinition/qicore-encounter"]},"status":"finished","class":{"system":"http://terminology.hl7.org/CodeSystem/v3-ActCode","code":"IMP","display":"inpatient encounter"},"type":[{"coding":[{"system":"http://snomed.info/sct","code":"8715000"}]}],"subject":{"reference":"Patient/3c63b420-89fb-4062-9319-ea509a3192c8"},"period":{"start":"2026-11-28T08:00:00.000Z","end":"2026-11-30T08:15:00.000Z"},"diagnosis":[{"condition":{"reference":"Condition/35a2a772-40a3-4fb9-809c-93d73c33be69"}}]},"request":{"method":"PUT","url":"Encounter/00db98ad-224f-4f6e-b6f2-1172b7a24b7c"}},{"fullUrl":"https://madie.cms.gov/Procedure/ccd52e08-59c5-4035-b435-f3657d701f4f","resource":{"resourceType":"Procedure","id":"ccd52e08-59c5-4035-b435-f3657d701f4f","meta":{"profile":["http://hl7.org/fhir/us/qicore/StructureDefinition/qicore-procedure"]},"extension":[{"url":"http://hl7.org/fhir/us/qicore/StructureDefinition/qicore-recorded","valueDateTime":"2014-04-05T09:35:00-04:00"}],"status":"completed","code":{"coding":[{"system":"http://www.cms.gov/Medicare/Coding/ICD10","code":"10D00Z1"},{"system":"http://www.icd10data.com/icd10pcs","code":"10D00Z1","userSelected":true}]},"subject":{"reference":"Patient/3c63b420-89fb-4062-9319-ea509a3192c8"},"performedPeriod":{"start":"2026-11-30T07:00:00.000Z","end":"2026-11-30T08:15:00.000Z"}},"request":{"method":"PUT","url":"Procedure/ccd52e08-59c5-4035-b435-f3657d701f4f"}},{"fullUrl":"https://madie.cms.gov/Condition/35a2a772-40a3-4fb9-809c-93d73c33be69","resource":{"resourceType":"Condition","id":"35a2a772-40a3-4fb9-809c-93d73c33be69","meta":{"profile":["http://hl7.org/fhir/us/qicore/StructureDefinition/qicore-condition"]},"category":[{"coding":[{"system":"http://terminology.hl7.org/CodeSystem/condition-category","code":"encounter-diagnosis","display":"Encounter Diagnosis"}]}],"code":{"coding":[{"system":"http://snomed.info/sct","version":"2022-09","code":"169826009","display":"Single live birth (finding)","userSelected":true}]},"subject":{"reference":"Patient/3c63b420-89fb-4062-9319-ea509a3192c8"},"recordedDate":"2026-10-17T08:00:00.000+00:00"},"request":{"method":"PUT","url":"Condition/35a2a772-40a3-4fb9-809c-93d73c33be69"}},{"fullUrl":"https://madie.cms.gov/Coverage/555162bc-31da-4821-9503-5d4d29728334","resource":{"resourceType":"Coverage","id":"555162bc-31da-4821-9503-5d4d29728334","meta":{"profile":["http://hl7.org/fhir/us/qicore/StructureDefinition/qicore-coverage"]},"status":"active","beneficiary":{"reference":"Patient/3c63b420-89fb-4062-9319-ea509a3192c8"},"payor":[{"reference":"Organization/f7da4368-fb6d-4d73-a75b-f78024cbb18d"}]},"request":{"method":"PUT","url":"Coverage/555162bc-31da-4821-9503-5d4d29728334"}},{"fullUrl":"https://madie.cms.gov/Organization/859e7b9f-db99-46af-9a43-a88fcfbf7b57","resource":{"resourceType":"Organization","id":"f7da4368-fb6d-4d73-a75b-f78024cbb18d","meta":{"profile":["http://hl7.org/fhir/us/qicore/StructureDefinition/qicore-organization"]},"identifier":[{"use":"temp","system":"urn:oid:2.16.840.1.113883.4.4","value":"21-3259825"}],"active":true,"type":[{"coding":[{"system":"http://terminology.hl7.org/CodeSystem/organization-type","code":"pay","display":"Payer"}]}],"name":"Blue Cross Blue Shield of Texas","telecom":[{"system":"phone","value":"(+1) 972-766-6900"}],"address":[{"use":"billing","type":"postal","line":["P.O. Box 660044"],"city":"Dallas","state":"TX","postalCode":"75266-0044","country":"USA"}]},"request":{"method":"PUT","url":"Organization/f7da4368-fb6d-4d73-a75b-f78024cbb18d"}},{"fullUrl":"https://madie.cms.gov/Practitioner/5dca19b7-8380-4716-93de-f9a149e6d579","resource":{"resourceType":"Practitioner","id":"5dca19b7-8380-4716-93de-f9a149e6d579","identifier":[{"system":"http://hl7.org/fhir/sid/us-npi","value":"123456"}],"name":[{"family":"Evil","prefix":["Dr"]}]},"request":{"method":"PUT","url":"Practitioner/5dca19b7-8380-4716-93de-f9a149e6d579"}},{"fullUrl":"https://madie.cms.gov/MeasureReport/fe2636fb-a0c8-42fa-a2a2-dc96d09a1edf","resource":{"resourceType":"MeasureReport","id":"fe2636fb-a0c8-42fa-a2a2-dc96d09a1edf","meta":{"profile":["http://hl7.org/fhir/us/cqfmeasures/StructureDefinition/test-case-cqfm"]},"contained":[{"resourceType":"Parameters","id":"5962bf08-d910-4070-baa5-51c005c599e1-parameters","parameter":[{"name":"subject","valueString":"3c63b420-89fb-4062-9319-ea509a3192c8"}]}],"extension":[{"url":"http://hl7.org/fhir/us/cqfmeasures/StructureDefinition/cqfm-inputParameters","valueReference":{"reference":"#5962bf08-d910-4070-baa5-51c005c599e1-parameters"}},{"url":"http://hl7.org/fhir/us/cqfmeasures/StructureDefinition/cqfm-testCaseDescription","valueMarkdown":"Passes IP, DEN, NUM; Gravida 1(effective date 42 weeks)  and EGA 40 weeks;  End of Proc Csect equals end of Delivery Encounter."}],"modifierExtension":[{"url":"http://hl7.org/fhir/us/cqfmeasures/StructureDefinition/cqfm-isTestCase","valueBoolean":true}],"status":"complete","type":"individual","measure":"https://madie.cms.gov/Measure/CMS334FHIRPCCesareanBirth","period":{"start":"2026-01-01","end":"2026-12-31"},"group":[{"population":[{"code":{"coding":[{"system":"http://terminology.hl7.org/CodeSystem/measure-population","code":"initial-population","display":"Initial Population"}]},"count":1},{"code":{"coding":[{"system":"http://terminology.hl7.org/CodeSystem/measure-population","code":"denominator","display":"Denominator"}]},"count":1},{"code":{"coding":[{"system":"http://terminology.hl7.org/CodeSystem/measure-population","code":"denominator-exclusion","display":"Denominator Exclusion"}]},"count":0},{"code":{"coding":[{"system":"http://terminology.hl7.org/CodeSystem/measure-population","code":"numerator","display":"Numerator"}]},"count":1}]}]},"request":{"method":"PUT","url":"MeasureReport/fe2636fb-a0c8-42fa-a2a2-dc96d09a1edf"}}]}