{"resourceType":"Bundle","id":"tests-c2f10a34-81ed-4bf0-93ac-fed868ada54b-bundle","type":"transaction","entry":[{"fullUrl":"https://madie.cms.gov/Patient/c2f10a34-81ed-4bf0-93ac-fed868ada54b","resource":{"resourceType":"Patient","id":"c2f10a34-81ed-4bf0-93ac-fed868ada54b","meta":{"profile":["http://hl7.org/fhir/us/qicore/StructureDefinition/qicore-patient"]},"text":{"status":"generated","div":"<div xmlns=\"http://www.w3.org/1999/xhtml\"><div class=\"hapiHeaderText\">DelivEncDxNotSing <b>DENFAIL </b></div><table class=\"hapiPropertyTable\"><tbody><tr><td>Identifier</td><td>1ab9ef48e0c90ff3dc9111dd796761e98e296a234123a2d0da91bfa01b2d25ee</td></tr><tr><td>Date of birth</td><td><span>14 February 1985</span></td></tr></tbody></table></div>"},"extension":[{"url":"http://hl7.org/fhir/us/core/StructureDefinition/us-core-race","extension":[{"url":"ombCategory","valueCoding":{"system":"urn:oid:2.16.840.1.113883.6.238","code":"1002-5","display":"American Indian or Alaska Native","userSelected":true}},{"url":"text","valueString":"American Indian or Alaska Native"}]},{"url":"http://hl7.org/fhir/us/core/StructureDefinition/us-core-ethnicity","extension":[{"url":"ombCategory","valueCoding":{"system":"urn:oid:2.16.840.1.113883.6.238","code":"2135-2","display":"Hispanic or Latino","userSelected":true}},{"url":"text","valueString":"Hispanic or Latino"}]}],"identifier":[{"type":{"coding":[{"system":"http://terminology.hl7.org/CodeSystem/v2-0203","code":"MR"}]},"system":"https://bonnie-fhir.healthit.gov/","value":"63487c2f0968f80122540196"}],"active":true,"name":[{"use":"usual","family":"DENFail","given":["DelivEncDxNotSing"]}],"gender":"female","birthDate":"1998-02-14"},"request":{"method":"PUT","url":"Patient/c2f10a34-81ed-4bf0-93ac-fed868ada54b"}},{"fullUrl":"https://madie.cms.gov/Observation/553f9033-a2c4-4ad9-907b-4d35403cc609","resource":{"resourceType":"Observation","id":"553f9033-a2c4-4ad9-907b-4d35403cc609","meta":{"profile":["http://hl7.org/fhir/us/qicore/StructureDefinition/qicore-observation"]},"status":"final","category":[{"coding":[{"system":"http://terminology.hl7.org/CodeSystem/observation-category","code":"exam","display":"exam","userSelected":true}]}],"code":{"coding":[{"system":"http://loinc.org","code":"11996-6"}]},"subject":{"reference":"Patient/c2f10a34-81ed-4bf0-93ac-fed868ada54b"},"effectiveDateTime":"2026-02-09T08:00:00.000+00:00","valueInteger":1},"request":{"method":"PUT","url":"Observation/553f9033-a2c4-4ad9-907b-4d35403cc609"}},{"fullUrl":"https://madie.cms.gov/Observation/07c4375d-bdc1-4c30-9dea-b96b334efc31","resource":{"resourceType":"Observation","id":"07c4375d-bdc1-4c30-9dea-b96b334efc31","meta":{"profile":["http://hl7.org/fhir/us/qicore/StructureDefinition/qicore-observation"]},"status":"final","category":[{"coding":[{"system":"http://terminology.hl7.org/CodeSystem/observation-category","code":"exam","display":"exam","userSelected":true}]}],"code":{"coding":[{"system":"http://loinc.org","code":"11884-4"}]},"subject":{"reference":"Patient/c2f10a34-81ed-4bf0-93ac-fed868ada54b"},"effectiveDateTime":"2026-11-28T21:15:00.000+00:00","valueQuantity":{"value":40,"system":"http://unitsofmeasure.org","code":"wk"}},"request":{"method":"PUT","url":"Observation/07c4375d-bdc1-4c30-9dea-b96b334efc31"}},{"fullUrl":"https://madie.cms.gov/Observation/770de55f-9601-444d-8654-36cc0b296795","resource":{"resourceType":"Observation","id":"770de55f-9601-444d-8654-36cc0b296795","meta":{"profile":["http://hl7.org/fhir/us/qicore/StructureDefinition/qicore-observation"]},"status":"final","category":[{"coding":[{"system":"http://terminology.hl7.org/CodeSystem/observation-category","code":"exam","display":"exam","userSelected":true}]}],"code":{"coding":[{"system":"http://loinc.org","code":"93857-1"}]},"subject":{"reference":"Patient/c2f10a34-81ed-4bf0-93ac-fed868ada54b"},"effectiveDateTime":"2026-11-28T21:15:00.000+00:00","valueDateTime":"2026-11-28T21:15:00+00:00"},"request":{"method":"PUT","url":"Observation/770de55f-9601-444d-8654-36cc0b296795"}},{"fullUrl":"https://madie.cms.gov/Encounter/27d5b715-e017-4aa4-ad48-4713b64473de","resource":{"resourceType":"Encounter","id":"27d5b715-e017-4aa4-ad48-4713b64473de","meta":{"profile":["http://hl7.org/fhir/us/qicore/StructureDefinition/qicore-encounter"]},"status":"finished","class":{"system":"http://terminology.hl7.org/CodeSystem/v3-ActCode","code":"IMP","display":"inpatient encounter"},"type":[{"coding":[{"system":"http://snomed.info/sct","code":"8715000"}]}],"subject":{"reference":"Patient/c2f10a34-81ed-4bf0-93ac-fed868ada54b"},"period":{"start":"2026-11-28T08:00:00.000Z","end":"2026-11-30T08:15:00.000Z"},"length":{"value":2,"unit":"days"},"diagnosis":[{"condition":{"reference":"Condition/Cornual Ectopic Pregnancy"},"use":{"coding":[{"system":"http://snomed.info/sct","code":"87605005","display":"Cornual Ectopic Pregnancy"}]}}]},"request":{"method":"PUT","url":"Encounter/27d5b715-e017-4aa4-ad48-4713b64473de"}},{"fullUrl":"https://madie.cms.gov/Procedure/98ffbb54-935f-4fed-9b63-acab80e726fa","resource":{"resourceType":"Procedure","id":"98ffbb54-935f-4fed-9b63-acab80e726fa","meta":{"profile":["http://hl7.org/fhir/us/qicore/StructureDefinition/qicore-procedure"]},"extension":[{"url":"http://hl7.org/fhir/us/qicore/StructureDefinition/qicore-recorded","valueDateTime":"2014-04-05T09:35:00-04:00"}],"status":"completed","code":{"coding":[{"system":"http://www.cms.gov/Medicare/Coding/ICD10","code":"10D00Z0"},{"system":"http://www.icd10data.com/icd10pcs","code":"10D00Z0","userSelected":true}]},"subject":{"reference":"Patient/c2f10a34-81ed-4bf0-93ac-fed868ada54b"},"performedPeriod":{"start":"2026-11-28T20:00:00.000Z","end":"2026-11-28T20:15:00.000Z"}},"request":{"method":"PUT","url":"Procedure/98ffbb54-935f-4fed-9b63-acab80e726fa"}},{"fullUrl":"https://madie.cms.gov/Coverage/e13bcf5d-df26-44e4-8e6d-26e6a09690c0","resource":{"resourceType":"Coverage","id":"e13bcf5d-df26-44e4-8e6d-26e6a09690c0","meta":{"profile":["http://hl7.org/fhir/us/qicore/StructureDefinition/qicore-coverage"]},"status":"active","beneficiary":{"reference":"Patient/c2f10a34-81ed-4bf0-93ac-fed868ada54b"},"payor":[{"reference":"Organization/18ca435c-cae6-4c34-8033-af717477f9fc"}]},"request":{"method":"PUT","url":"Coverage/e13bcf5d-df26-44e4-8e6d-26e6a09690c0"}},{"fullUrl":"https://madie.cms.gov/Organization/371dc711-44de-491e-8c48-0e292560ad64","resource":{"resourceType":"Organization","id":"18ca435c-cae6-4c34-8033-af717477f9fc","meta":{"profile":["http://hl7.org/fhir/us/qicore/StructureDefinition/qicore-organization"]},"identifier":[{"use":"temp","system":"urn:oid:2.16.840.1.113883.4.4","value":"21-3259825"}],"active":true,"type":[{"coding":[{"system":"http://terminology.hl7.org/CodeSystem/organization-type","code":"pay","display":"Payer"}]}],"name":"Blue Cross Blue Shield of Texas","telecom":[{"system":"phone","value":"(+1) 972-766-6900"}],"address":[{"use":"billing","type":"postal","line":["P.O. Box 660044"],"city":"Dallas","state":"TX","postalCode":"75266-0044","country":"USA"}]},"request":{"method":"PUT","url":"Organization/18ca435c-cae6-4c34-8033-af717477f9fc"}},{"fullUrl":"https://madie.cms.gov/Practitioner/e43604da-bd3b-4ccb-b4c7-5ae0a8d04d5b","resource":{"resourceType":"Practitioner","id":"e43604da-bd3b-4ccb-b4c7-5ae0a8d04d5b","identifier":[{"system":"http://hl7.org/fhir/sid/us-npi","value":"123456"}],"name":[{"family":"Evil","prefix":["Dr"]}]},"request":{"method":"PUT","url":"Practitioner/e43604da-bd3b-4ccb-b4c7-5ae0a8d04d5b"}},{"fullUrl":"https://madie.cms.gov/MeasureReport/b81206a8-fd5a-49b3-a726-8f4227fe30e0","resource":{"resourceType":"MeasureReport","id":"b81206a8-fd5a-49b3-a726-8f4227fe30e0","meta":{"profile":["http://hl7.org/fhir/us/cqfmeasures/StructureDefinition/test-case-cqfm"]},"contained":[{"resourceType":"Parameters","id":"0f93216c-304f-40e3-8b33-4826ff26d1a5-parameters","parameter":[{"name":"subject","valueString":"c2f10a34-81ed-4bf0-93ac-fed868ada54b"}]}],"extension":[{"url":"http://hl7.org/fhir/us/cqfmeasures/StructureDefinition/cqfm-inputParameters","valueReference":{"reference":"#0f93216c-304f-40e3-8b33-4826ff26d1a5-parameters"}},{"url":"http://hl7.org/fhir/us/cqfmeasures/StructureDefinition/cqfm-testCaseDescription","valueMarkdown":"Passes IP,; Gravida 1(auth 42 weeks)  and EGA 40 weeks; Not Singleton\n"}],"modifierExtension":[{"url":"http://hl7.org/fhir/us/cqfmeasures/StructureDefinition/cqfm-isTestCase","valueBoolean":true}],"status":"complete","type":"individual","measure":"https://madie.cms.gov/Measure/CMS334FHIRPCCesareanBirth","period":{"start":"2026-01-01","end":"2026-12-31"},"group":[{"population":[{"code":{"coding":[{"system":"http://terminology.hl7.org/CodeSystem/measure-population","code":"initial-population","display":"Initial Population"}]},"count":1},{"code":{"coding":[{"system":"http://terminology.hl7.org/CodeSystem/measure-population","code":"denominator","display":"Denominator"}]},"count":0},{"code":{"coding":[{"system":"http://terminology.hl7.org/CodeSystem/measure-population","code":"denominator-exclusion","display":"Denominator Exclusion"}]},"count":0},{"code":{"coding":[{"system":"http://terminology.hl7.org/CodeSystem/measure-population","code":"numerator","display":"Numerator"}]},"count":0}]}]},"request":{"method":"PUT","url":"MeasureReport/b81206a8-fd5a-49b3-a726-8f4227fe30e0"}}]}