{"resourceType":"Bundle","id":"tests-5580cb1d-0ac8-459b-9460-85ad6fe489dc-bundle","type":"transaction","entry":[{"fullUrl":"https://madie.cms.gov/Patient/5580cb1d-0ac8-459b-9460-85ad6fe489dc","resource":{"resourceType":"Patient","id":"5580cb1d-0ac8-459b-9460-85ad6fe489dc","meta":{"profile":["http://hl7.org/fhir/us/qicore/StructureDefinition/qicore-patient"]},"text":{"status":"generated","div":"<div xmlns=\"http://www.w3.org/1999/xhtml\"><div class=\"hapiHeaderText\">NonDelProcedure (hip replacement) <b>IPFAIL </b></div><table class=\"hapiPropertyTable\"><tbody><tr><td>Identifier</td><td>b959efd46f0d0c24423af538a038b110c6775f5c81efccdbf17ac9abefb49df4</td></tr><tr><td>Date of birth</td><td><span>14 February 1985</span></td></tr></tbody></table></div>"},"extension":[{"url":"http://hl7.org/fhir/us/core/StructureDefinition/us-core-race","extension":[{"url":"ombCategory","valueCoding":{"system":"urn:oid:2.16.840.1.113883.6.238","code":"1002-5","display":"American Indian or Alaska Native","userSelected":true}},{"url":"text","valueString":"American Indian or Alaska Native"}]},{"url":"http://hl7.org/fhir/us/core/StructureDefinition/us-core-ethnicity","extension":[{"url":"ombCategory","valueCoding":{"system":"urn:oid:2.16.840.1.113883.6.238","code":"2135-2","display":"Hispanic or Latino","userSelected":true}},{"url":"text","valueString":"Hispanic or Latino"}]}],"identifier":[{"type":{"coding":[{"system":"http://terminology.hl7.org/CodeSystem/v2-0203","code":"MR"}]},"system":"https://bonnie-fhir.healthit.gov/","value":"63487c2e0968f80122540186"}],"active":true,"name":[{"use":"usual","family":"IPFail","given":["NonDelProcedure (hip replacement)"]}],"gender":"female","birthDate":"1986-02-14"},"request":{"method":"PUT","url":"Patient/5580cb1d-0ac8-459b-9460-85ad6fe489dc"}},{"fullUrl":"https://madie.cms.gov/Encounter/aa49944c-d330-48b5-a01f-d03d51d390ca","resource":{"resourceType":"Encounter","id":"aa49944c-d330-48b5-a01f-d03d51d390ca","meta":{"profile":["http://hl7.org/fhir/us/qicore/StructureDefinition/qicore-encounter"]},"status":"finished","class":{"system":"http://terminology.hl7.org/CodeSystem/v3-ActCode","code":"IMP","display":"inpatient encounter"},"type":[{"coding":[{"system":"http://snomed.info/sct","code":"8715000"}]}],"subject":{"reference":"Patient/5580cb1d-0ac8-459b-9460-85ad6fe489dc"},"period":{"start":"2026-11-28T08:00:00.000Z","end":"2026-11-30T08:15:00.000Z"},"diagnosis":[{"condition":{"reference":"Condition/Condition-2"},"use":{"coding":[{"system":"http://snomed.info/sct","code":"169826009","display":"Delivery of Singleton"}]}}]},"request":{"method":"PUT","url":"Encounter/aa49944c-d330-48b5-a01f-d03d51d390ca"}},{"fullUrl":"https://madie.cms.gov/Procedure/da5fbc7b-2da7-4292-9892-6c74a3bf1703","resource":{"resourceType":"Procedure","id":"da5fbc7b-2da7-4292-9892-6c74a3bf1703","meta":{"profile":["http://hl7.org/fhir/us/qicore/StructureDefinition/qicore-procedure"]},"extension":[{"url":"http://hl7.org/fhir/us/qicore/StructureDefinition/qicore-recorded","valueDateTime":"2014-04-05T09:35:00-04:00"}],"status":"completed","code":{"coding":[{"system":"http://www.cms.gov/Medicare/Coding/ICD10","code":"OSR9019","userSelected":true}]},"subject":{"reference":"Patient/5580cb1d-0ac8-459b-9460-85ad6fe489dc"},"performedPeriod":{"start":"2026-11-28T08:00:00.000Z"}},"request":{"method":"PUT","url":"Procedure/da5fbc7b-2da7-4292-9892-6c74a3bf1703"}},{"fullUrl":"https://madie.cms.gov/Coverage/6e9a9d32-b81d-4c35-82cd-ad84e31757df","resource":{"resourceType":"Coverage","id":"6e9a9d32-b81d-4c35-82cd-ad84e31757df","meta":{"profile":["http://hl7.org/fhir/us/qicore/StructureDefinition/qicore-coverage"]},"status":"active","beneficiary":{"reference":"Patient/5580cb1d-0ac8-459b-9460-85ad6fe489dc"},"payor":[{"reference":"Organization/4da248b0-6e59-49b7-b80e-338aa21d299f"}]},"request":{"method":"PUT","url":"Coverage/6e9a9d32-b81d-4c35-82cd-ad84e31757df"}},{"fullUrl":"https://madie.cms.gov/Organization/cc8dcec0-1654-4176-95a7-0d23c79b5fff","resource":{"resourceType":"Organization","id":"4da248b0-6e59-49b7-b80e-338aa21d299f","meta":{"profile":["http://hl7.org/fhir/us/qicore/StructureDefinition/qicore-organization"]},"identifier":[{"use":"temp","system":"urn:oid:2.16.840.1.113883.4.4","value":"21-3259825"}],"active":true,"type":[{"coding":[{"system":"http://terminology.hl7.org/CodeSystem/organization-type","code":"pay","display":"Payer"}]}],"name":"Blue Cross Blue Shield of Texas","telecom":[{"system":"phone","value":"(+1) 972-766-6900"}],"address":[{"use":"billing","type":"postal","line":["P.O. Box 660044"],"city":"Dallas","state":"TX","postalCode":"75266-0044","country":"USA"}]},"request":{"method":"PUT","url":"Organization/4da248b0-6e59-49b7-b80e-338aa21d299f"}},{"fullUrl":"https://madie.cms.gov/Practitioner/54c5f3b5-1089-4c1f-ac64-39ea0157d13b","resource":{"resourceType":"Practitioner","id":"54c5f3b5-1089-4c1f-ac64-39ea0157d13b","identifier":[{"system":"http://hl7.org/fhir/sid/us-npi","value":"123456"}],"name":[{"family":"Evil","prefix":["Dr"]}]},"request":{"method":"PUT","url":"Practitioner/54c5f3b5-1089-4c1f-ac64-39ea0157d13b"}},{"fullUrl":"https://madie.cms.gov/MeasureReport/b40b83ea-d53c-4262-9dcf-e3eb3722128b","resource":{"resourceType":"MeasureReport","id":"b40b83ea-d53c-4262-9dcf-e3eb3722128b","meta":{"profile":["http://hl7.org/fhir/us/cqfmeasures/StructureDefinition/test-case-cqfm"]},"contained":[{"resourceType":"Parameters","id":"89d795c8-168e-4de1-b021-284dc6ca7887-parameters","parameter":[{"name":"subject","valueString":"5580cb1d-0ac8-459b-9460-85ad6fe489dc"}]}],"extension":[{"url":"http://hl7.org/fhir/us/cqfmeasures/StructureDefinition/cqfm-inputParameters","valueReference":{"reference":"#89d795c8-168e-4de1-b021-284dc6ca7887-parameters"}},{"url":"http://hl7.org/fhir/us/cqfmeasures/StructureDefinition/cqfm-testCaseDescription","valueMarkdown":"\"Fail IPP, Non-delivery procedure (hip replacement)\n DEN, NUM. Parity result 0 (auth at 42 weeks) EGA 40 weeks; \"\n"}],"modifierExtension":[{"url":"http://hl7.org/fhir/us/cqfmeasures/StructureDefinition/cqfm-isTestCase","valueBoolean":true}],"status":"complete","type":"individual","measure":"https://madie.cms.gov/Measure/CMS334FHIRPCCesareanBirth","period":{"start":"2026-01-01","end":"2026-12-31"},"group":[{"population":[{"code":{"coding":[{"system":"http://terminology.hl7.org/CodeSystem/measure-population","code":"initial-population","display":"Initial Population"}]},"count":0},{"code":{"coding":[{"system":"http://terminology.hl7.org/CodeSystem/measure-population","code":"denominator","display":"Denominator"}]},"count":0},{"code":{"coding":[{"system":"http://terminology.hl7.org/CodeSystem/measure-population","code":"denominator-exclusion","display":"Denominator Exclusion"}]},"count":0},{"code":{"coding":[{"system":"http://terminology.hl7.org/CodeSystem/measure-population","code":"numerator","display":"Numerator"}]},"count":0}]}]},"request":{"method":"PUT","url":"MeasureReport/b40b83ea-d53c-4262-9dcf-e3eb3722128b"}}]}