{"resourceType":"Bundle","id":"tests-93ddb758-3a75-4626-a50b-1e2b51ed4250-bundle","type":"transaction","entry":[{"fullUrl":"https://madie.cms.gov/Patient/93ddb758-3a75-4626-a50b-1e2b51ed4250","resource":{"resourceType":"Patient","id":"93ddb758-3a75-4626-a50b-1e2b51ed4250","meta":{"profile":["http://hl7.org/fhir/us/qicore/StructureDefinition/qicore-patient"]},"text":{"status":"generated","div":"<div xmlns=\"http://www.w3.org/1999/xhtml\"><div class=\"hapiHeaderText\">AssessG1P1PreTerm1Term1 <b>DENPASS </b></div><table class=\"hapiPropertyTable\"><tbody><tr><td>Identifier</td><td>919742ce7259ec7b9de1654b5e814cf859dc5253e7d4839ac3b7c6fbe1734140</td></tr><tr><td>Date of birth</td><td><span>14 February 1985</span></td></tr></tbody></table></div>"},"extension":[{"url":"http://hl7.org/fhir/us/core/StructureDefinition/us-core-race","extension":[{"url":"ombCategory","valueCoding":{"system":"urn:oid:2.16.840.1.113883.6.238","code":"1002-5","display":"American Indian or Alaska Native","userSelected":true}},{"url":"text","valueString":"American Indian or Alaska Native"}]},{"url":"http://hl7.org/fhir/us/core/StructureDefinition/us-core-ethnicity","extension":[{"url":"ombCategory","valueCoding":{"system":"urn:oid:2.16.840.1.113883.6.238","code":"2135-2","display":"Hispanic or Latino","userSelected":true}},{"url":"text","valueString":"Hispanic or Latino"}]}],"identifier":[{"type":{"coding":[{"system":"http://terminology.hl7.org/CodeSystem/v2-0203","code":"MR"}]},"system":"https://bonnie-fhir.healthit.gov/","value":"63487c300968f801225401c3"}],"active":true,"name":[{"use":"usual","family":"DENPass","given":["AssessG1P1PreTerm1Term1"]}],"gender":"female","birthDate":"1998-02-14"},"request":{"method":"PUT","url":"Patient/93ddb758-3a75-4626-a50b-1e2b51ed4250"}},{"fullUrl":"https://madie.cms.gov/Observation/b725c7dd-94de-443a-a0f5-634a6dc161da","resource":{"resourceType":"Observation","id":"b725c7dd-94de-443a-a0f5-634a6dc161da","meta":{"profile":["http://hl7.org/fhir/us/qicore/StructureDefinition/qicore-observation"]},"status":"final","category":[{"coding":[{"system":"http://terminology.hl7.org/CodeSystem/observation-category","code":"exam","display":"exam","userSelected":true}]}],"code":{"coding":[{"system":"http://loinc.org","code":"11884-4"}]},"subject":{"reference":"Patient/93ddb758-3a75-4626-a50b-1e2b51ed4250"},"effectiveDateTime":"2026-06-08T09:15:00.000+00:00","valueQuantity":{"value":38,"system":"http://unitsofmeasure.org","code":"wk"}},"request":{"method":"PUT","url":"Observation/b725c7dd-94de-443a-a0f5-634a6dc161da"}},{"fullUrl":"https://madie.cms.gov/Observation/7888867a-a261-4711-93b3-129cfa1fd804","resource":{"resourceType":"Observation","id":"7888867a-a261-4711-93b3-129cfa1fd804","meta":{"profile":["http://hl7.org/fhir/us/qicore/StructureDefinition/qicore-observation"]},"status":"final","category":[{"coding":[{"system":"http://terminology.hl7.org/CodeSystem/observation-category","code":"exam","display":"exam","userSelected":true}]}],"code":{"coding":[{"system":"http://loinc.org","code":"11996-6"}]},"subject":{"reference":"Patient/93ddb758-3a75-4626-a50b-1e2b51ed4250"},"effectiveDateTime":"2026-06-08T19:59:00.000+00:00","valueInteger":1},"request":{"method":"PUT","url":"Observation/7888867a-a261-4711-93b3-129cfa1fd804"}},{"fullUrl":"https://madie.cms.gov/Observation/100af1c1-d038-4420-bd0e-2cd6a05f60f2","resource":{"resourceType":"Observation","id":"100af1c1-d038-4420-bd0e-2cd6a05f60f2","meta":{"profile":["http://hl7.org/fhir/us/qicore/StructureDefinition/qicore-observation"]},"status":"final","category":[{"coding":[{"system":"http://terminology.hl7.org/CodeSystem/observation-category","code":"exam","display":"exam","userSelected":true}]}],"code":{"coding":[{"system":"http://loinc.org","code":"93857-1"}]},"subject":{"reference":"Patient/93ddb758-3a75-4626-a50b-1e2b51ed4250"},"effectiveDateTime":"2026-06-08T20:00:00.000+00:00","valueDateTime":"2026-06-08T20:00:00+00:00"},"request":{"method":"PUT","url":"Observation/100af1c1-d038-4420-bd0e-2cd6a05f60f2"}},{"fullUrl":"https://madie.cms.gov/Observation/fe163428-6621-4bd7-b8c8-e013b5c2008f","resource":{"resourceType":"Observation","id":"fe163428-6621-4bd7-b8c8-e013b5c2008f","meta":{"profile":["http://hl7.org/fhir/us/qicore/StructureDefinition/qicore-observation"]},"status":"final","category":[{"coding":[{"system":"http://terminology.hl7.org/CodeSystem/observation-category","code":"exam","display":"exam","userSelected":true}]}],"code":{"coding":[{"system":"http://loinc.org","code":"11977-6"}]},"subject":{"reference":"Patient/93ddb758-3a75-4626-a50b-1e2b51ed4250"},"effectiveDateTime":"2026-06-08T19:59:00.000+00:00","valueInteger":1},"request":{"method":"PUT","url":"Observation/fe163428-6621-4bd7-b8c8-e013b5c2008f"}},{"fullUrl":"https://madie.cms.gov/Observation/e193fa22-8f38-460b-b0fe-14b1b0d26119","resource":{"resourceType":"Observation","id":"e193fa22-8f38-460b-b0fe-14b1b0d26119","meta":{"profile":["http://hl7.org/fhir/us/qicore/StructureDefinition/qicore-observation"]},"status":"final","category":[{"coding":[{"system":"http://terminology.hl7.org/CodeSystem/observation-category","code":"exam","display":"exam","userSelected":true}]}],"code":{"coding":[{"system":"http://loinc.org","code":"11637-6"}]},"subject":{"reference":"Patient/93ddb758-3a75-4626-a50b-1e2b51ed4250"},"effectiveDateTime":"2026-06-08T19:59:00.000+00:00","valueInteger":1},"request":{"method":"PUT","url":"Observation/e193fa22-8f38-460b-b0fe-14b1b0d26119"}},{"fullUrl":"https://madie.cms.gov/Observation/5192bb63-1e60-440a-a98e-2aa6ccfa30b9","resource":{"resourceType":"Observation","id":"5192bb63-1e60-440a-a98e-2aa6ccfa30b9","meta":{"profile":["http://hl7.org/fhir/us/qicore/StructureDefinition/qicore-observation"]},"status":"final","category":[{"coding":[{"system":"http://terminology.hl7.org/CodeSystem/observation-category","code":"exam","display":"exam","userSelected":true}]}],"code":{"coding":[{"system":"http://loinc.org","code":"11639-2"}]},"subject":{"reference":"Patient/93ddb758-3a75-4626-a50b-1e2b51ed4250"},"effectiveDateTime":"2026-06-08T19:59:00.000+00:00","valueInteger":1},"request":{"method":"PUT","url":"Observation/5192bb63-1e60-440a-a98e-2aa6ccfa30b9"}},{"fullUrl":"https://madie.cms.gov/Encounter/943d41b6-3c23-4ebb-bc42-53d543080c59","resource":{"resourceType":"Encounter","id":"943d41b6-3c23-4ebb-bc42-53d543080c59","meta":{"profile":["http://hl7.org/fhir/us/qicore/StructureDefinition/qicore-encounter"]},"status":"finished","class":{"system":"http://terminology.hl7.org/CodeSystem/v3-ActCode","code":"IMP","display":"inpatient encounter"},"type":[{"coding":[{"system":"http://snomed.info/sct","code":"183452005"}]}],"subject":{"reference":"Patient/93ddb758-3a75-4626-a50b-1e2b51ed4250"},"period":{"start":"2026-06-08T08:00:00.000Z","end":"2026-06-10T08:15:00.000Z"},"length":{"value":2,"unit":"days"},"diagnosis":[{"condition":{"reference":"Condition/delivery-of-singleton-f83c"},"use":{"coding":[{"system":"http://snomed.info/sct","code":"169826009","display":"Delivery of Singleton"}]}},{"condition":{"reference":"Condition/9e0dff8b-611d-4df1-a909-35deb31af19f"}}]},"request":{"method":"PUT","url":"Encounter/943d41b6-3c23-4ebb-bc42-53d543080c59"}},{"fullUrl":"https://madie.cms.gov/Procedure/4eef9df4-f739-47b5-a74e-7f532ec94656","resource":{"resourceType":"Procedure","id":"4eef9df4-f739-47b5-a74e-7f532ec94656","meta":{"profile":["http://hl7.org/fhir/us/qicore/StructureDefinition/qicore-procedure"]},"extension":[{"url":"http://hl7.org/fhir/us/qicore/StructureDefinition/qicore-recorded","valueDateTime":"2014-04-05T09:35:00-04:00"}],"status":"completed","code":{"coding":[{"system":"http://www.cms.gov/Medicare/Coding/ICD10","code":"10D07Z3"},{"system":"http://www.icd10data.com/icd10pcs","code":"10D07Z3","userSelected":true}]},"subject":{"reference":"Patient/93ddb758-3a75-4626-a50b-1e2b51ed4250"},"performedPeriod":{"start":"2026-06-08T08:10:00.000Z","end":"2026-06-08T09:14:00.000Z"}},"request":{"method":"PUT","url":"Procedure/4eef9df4-f739-47b5-a74e-7f532ec94656"}},{"fullUrl":"https://madie.cms.gov/Condition/9e0dff8b-611d-4df1-a909-35deb31af19f","resource":{"resourceType":"Condition","id":"9e0dff8b-611d-4df1-a909-35deb31af19f","meta":{"profile":["http://hl7.org/fhir/us/qicore/StructureDefinition/qicore-condition"]},"category":[{"coding":[{"system":"http://terminology.hl7.org/CodeSystem/condition-category","code":"encounter-diagnosis","display":"Encounter Diagnosis"}]}],"code":{"coding":[{"system":"http://snomed.info/sct","version":"2022-09","code":"169826009","display":"Single live birth (finding)","userSelected":true}]},"subject":{"reference":"Patient/93ddb758-3a75-4626-a50b-1e2b51ed4250"},"recordedDate":"2026-10-18T08:00:00.000+00:00"},"request":{"method":"PUT","url":"Condition/9e0dff8b-611d-4df1-a909-35deb31af19f"}},{"fullUrl":"https://madie.cms.gov/Coverage/2673e3df-3332-4111-b1b6-c91299fb9b40","resource":{"resourceType":"Coverage","id":"2673e3df-3332-4111-b1b6-c91299fb9b40","meta":{"profile":["http://hl7.org/fhir/us/qicore/StructureDefinition/qicore-coverage"]},"status":"active","beneficiary":{"reference":"Patient/93ddb758-3a75-4626-a50b-1e2b51ed4250"},"payor":[{"reference":"Organization/4da248b0-6e59-49b7-b80e-338aa21d299f"}]},"request":{"method":"PUT","url":"Coverage/2673e3df-3332-4111-b1b6-c91299fb9b40"}},{"fullUrl":"https://madie.cms.gov/Organization/39e7e7fa-57fd-4f55-8e43-76c651149c1c","resource":{"resourceType":"Organization","id":"4da248b0-6e59-49b7-b80e-338aa21d299f","meta":{"profile":["http://hl7.org/fhir/us/qicore/StructureDefinition/qicore-organization"]},"identifier":[{"use":"temp","system":"urn:oid:2.16.840.1.113883.4.4","value":"21-3259825"}],"active":true,"type":[{"coding":[{"system":"http://terminology.hl7.org/CodeSystem/organization-type","code":"pay","display":"Payer"}]}],"name":"Blue Cross Blue Shield of Texas","telecom":[{"system":"phone","value":"(+1) 972-766-6900"}],"address":[{"use":"billing","type":"postal","line":["P.O. Box 660044"],"city":"Dallas","state":"TX","postalCode":"75266-0044","country":"USA"}]},"request":{"method":"PUT","url":"Organization/4da248b0-6e59-49b7-b80e-338aa21d299f"}},{"fullUrl":"https://madie.cms.gov/Practitioner/e593fe75-4888-4dd1-b020-a18fc0784982","resource":{"resourceType":"Practitioner","id":"e593fe75-4888-4dd1-b020-a18fc0784982","identifier":[{"system":"http://hl7.org/fhir/sid/us-npi","value":"123456"}],"name":[{"family":"Evil","prefix":["Dr"]}]},"request":{"method":"PUT","url":"Practitioner/e593fe75-4888-4dd1-b020-a18fc0784982"}},{"fullUrl":"https://madie.cms.gov/MeasureReport/1d868ce0-33c3-4675-92e9-6ff869e8e582","resource":{"resourceType":"MeasureReport","id":"1d868ce0-33c3-4675-92e9-6ff869e8e582","meta":{"profile":["http://hl7.org/fhir/us/cqfmeasures/StructureDefinition/test-case-cqfm"]},"contained":[{"resourceType":"Parameters","id":"83ac0299-036c-44cd-971a-88858bf18adc-parameters","parameter":[{"name":"subject","valueString":"93ddb758-3a75-4626-a50b-1e2b51ed4250"}]}],"extension":[{"url":"http://hl7.org/fhir/us/cqfmeasures/StructureDefinition/cqfm-inputParameters","valueReference":{"reference":"#83ac0299-036c-44cd-971a-88858bf18adc-parameters"}},{"url":"http://hl7.org/fhir/us/cqfmeasures/StructureDefinition/cqfm-testCaseDescription","valueMarkdown":"Passes: IP, Pt is 27 years of age,  encounter dx delivery of singleton, gravida = 1, parity =1, Preterm = 1, Term = 1\n"}],"modifierExtension":[{"url":"http://hl7.org/fhir/us/cqfmeasures/StructureDefinition/cqfm-isTestCase","valueBoolean":true}],"status":"complete","type":"individual","measure":"https://madie.cms.gov/Measure/CMS334FHIRPCCesareanBirth","period":{"start":"2026-01-01","end":"2026-12-31"},"group":[{"population":[{"code":{"coding":[{"system":"http://terminology.hl7.org/CodeSystem/measure-population","code":"initial-population","display":"Initial Population"}]},"count":1},{"code":{"coding":[{"system":"http://terminology.hl7.org/CodeSystem/measure-population","code":"denominator","display":"Denominator"}]},"count":1},{"code":{"coding":[{"system":"http://terminology.hl7.org/CodeSystem/measure-population","code":"denominator-exclusion","display":"Denominator Exclusion"}]},"count":0},{"code":{"coding":[{"system":"http://terminology.hl7.org/CodeSystem/measure-population","code":"numerator","display":"Numerator"}]},"count":0}]}]},"request":{"method":"PUT","url":"MeasureReport/1d868ce0-33c3-4675-92e9-6ff869e8e582"}}]}