{"resourceType":"Bundle","id":"tests-6bbb349d-5c6b-486d-96f3-6a80b923e17e-bundle","type":"transaction","entry":[{"fullUrl":"https://madie.cms.gov/Patient/6bbb349d-5c6b-486d-96f3-6a80b923e17e","resource":{"resourceType":"Patient","id":"6bbb349d-5c6b-486d-96f3-6a80b923e17e","meta":{"profile":["http://hl7.org/fhir/us/qicore/StructureDefinition/qicore-patient"]},"text":{"status":"generated","div":"<div xmlns=\"http://www.w3.org/1999/xhtml\"><div class=\"hapiHeaderText\">AssessG1RelDtTimeEQTimeOfDelivTime <b>DENFAIL </b></div><table class=\"hapiPropertyTable\"><tbody><tr><td>Identifier</td><td>1708e167118eb3c6ba503e3f4dd6b33e8139c84285201cfc9988c13f48ee7f27</td></tr><tr><td>Date of birth</td><td><span>14 February 1985</span></td></tr></tbody></table></div>"},"extension":[{"url":"http://hl7.org/fhir/us/core/StructureDefinition/us-core-race","extension":[{"url":"ombCategory","valueCoding":{"system":"urn:oid:2.16.840.1.113883.6.238","code":"1002-5","display":"American Indian or Alaska Native","userSelected":true}},{"url":"text","valueString":"American Indian or Alaska Native"}]},{"url":"http://hl7.org/fhir/us/core/StructureDefinition/us-core-ethnicity","extension":[{"url":"ombCategory","valueCoding":{"system":"urn:oid:2.16.840.1.113883.6.238","code":"2135-2","display":"Hispanic or Latino","userSelected":true}},{"url":"text","valueString":"Hispanic or Latino"}]}],"identifier":[{"type":{"coding":[{"system":"http://terminology.hl7.org/CodeSystem/v2-0203","code":"MR"}]},"system":"https://bonnie-fhir.healthit.gov/","value":"63487c2e0968f8012254016e"}],"active":true,"name":[{"use":"usual","family":"DENFail","given":["AssessG1RelDtTimeEQTimeOfDelivTime"]}],"gender":"female","birthDate":"1998-02-14"},"request":{"method":"PUT","url":"Patient/6bbb349d-5c6b-486d-96f3-6a80b923e17e"}},{"fullUrl":"https://madie.cms.gov/Observation/92af60ae-74c0-45f2-9854-e857c6ca5985","resource":{"resourceType":"Observation","id":"92af60ae-74c0-45f2-9854-e857c6ca5985","meta":{"profile":["http://hl7.org/fhir/us/qicore/StructureDefinition/qicore-observation"]},"status":"final","category":[{"coding":[{"system":"http://terminology.hl7.org/CodeSystem/observation-category","code":"exam","display":"exam","userSelected":true}]}],"code":{"coding":[{"system":"http://loinc.org","code":"11884-4"}]},"subject":{"reference":"Patient/6bbb349d-5c6b-486d-96f3-6a80b923e17e"},"effectiveDateTime":"2026-06-08T09:15:00.000+00:00","valueQuantity":{"value":38,"system":"http://unitsofmeasure.org","code":"wk"}},"request":{"method":"PUT","url":"Observation/92af60ae-74c0-45f2-9854-e857c6ca5985"}},{"fullUrl":"https://madie.cms.gov/Observation/cbeac4d8-5eda-420f-aec5-c4a144fb6552","resource":{"resourceType":"Observation","id":"cbeac4d8-5eda-420f-aec5-c4a144fb6552","meta":{"profile":["http://hl7.org/fhir/us/qicore/StructureDefinition/qicore-observation"]},"status":"final","category":[{"coding":[{"system":"http://terminology.hl7.org/CodeSystem/observation-category","code":"exam","display":"exam","userSelected":true}]}],"code":{"coding":[{"system":"http://loinc.org","code":"11996-6"}]},"subject":{"reference":"Patient/6bbb349d-5c6b-486d-96f3-6a80b923e17e"},"effectiveDateTime":"2026-06-08T20:00:00.000+00:00","valueInteger":1},"request":{"method":"PUT","url":"Observation/cbeac4d8-5eda-420f-aec5-c4a144fb6552"}},{"fullUrl":"https://madie.cms.gov/Observation/5af7ae06-6b54-42bf-8e66-248d44abbf16","resource":{"resourceType":"Observation","id":"5af7ae06-6b54-42bf-8e66-248d44abbf16","meta":{"profile":["http://hl7.org/fhir/us/qicore/StructureDefinition/qicore-observation"]},"status":"final","category":[{"coding":[{"system":"http://terminology.hl7.org/CodeSystem/observation-category","code":"exam","display":"exam","userSelected":true}]}],"code":{"coding":[{"system":"http://loinc.org","code":"93857-1"}]},"subject":{"reference":"Patient/6bbb349d-5c6b-486d-96f3-6a80b923e17e"},"effectiveDateTime":"2026-06-08T20:00:00.000+00:00","valueDateTime":"2026-06-08T20:00:00+00:00"},"request":{"method":"PUT","url":"Observation/5af7ae06-6b54-42bf-8e66-248d44abbf16"}},{"fullUrl":"https://madie.cms.gov/Encounter/31f96ad7-79b4-458d-8636-1bb994336483","resource":{"resourceType":"Encounter","id":"31f96ad7-79b4-458d-8636-1bb994336483","meta":{"profile":["http://hl7.org/fhir/us/qicore/StructureDefinition/qicore-encounter"]},"status":"finished","class":{"system":"http://terminology.hl7.org/CodeSystem/v3-ActCode","code":"IMP","display":"inpatient encounter"},"type":[{"coding":[{"system":"http://snomed.info/sct","code":"183452005"}]}],"subject":{"reference":"Patient/6bbb349d-5c6b-486d-96f3-6a80b923e17e"},"period":{"start":"2026-06-08T08:00:00.000Z","end":"2026-06-10T08:15:00.000Z"},"length":{"value":2,"unit":"days"},"diagnosis":[{"condition":{"reference":"Condition/ea6a862b-5b8d-448f-92da-f65105065ce2"},"use":{"coding":[{"system":"http://snomed.info/sct","code":"169826009","display":"Delivery of Singleton"}]}}]},"request":{"method":"PUT","url":"Encounter/31f96ad7-79b4-458d-8636-1bb994336483"}},{"fullUrl":"https://madie.cms.gov/Procedure/558990b5-efed-4ee0-96e2-2ca5d9fa609d","resource":{"resourceType":"Procedure","id":"558990b5-efed-4ee0-96e2-2ca5d9fa609d","meta":{"profile":["http://hl7.org/fhir/us/qicore/StructureDefinition/qicore-procedure"]},"extension":[{"url":"http://hl7.org/fhir/us/qicore/StructureDefinition/qicore-recorded","valueDateTime":"2014-04-05T09:35:00-04:00"}],"status":"completed","code":{"coding":[{"system":"http://www.cms.gov/Medicare/Coding/ICD10","code":"10D07Z3"},{"system":"http://www.icd10data.com/icd10pcs","code":"10D07Z3","userSelected":true}]},"subject":{"reference":"Patient/6bbb349d-5c6b-486d-96f3-6a80b923e17e"},"performedPeriod":{"start":"2026-06-08T08:10:00.000Z","end":"2026-06-08T09:14:00.000Z"}},"request":{"method":"PUT","url":"Procedure/558990b5-efed-4ee0-96e2-2ca5d9fa609d"}},{"fullUrl":"https://madie.cms.gov/Coverage/3ef7b40c-be13-4a22-8adc-b571919cf288","resource":{"resourceType":"Coverage","id":"3ef7b40c-be13-4a22-8adc-b571919cf288","meta":{"profile":["http://hl7.org/fhir/us/qicore/StructureDefinition/qicore-coverage"]},"status":"active","beneficiary":{"reference":"Patient/6bbb349d-5c6b-486d-96f3-6a80b923e17e"},"payor":[{"reference":"Organization/f4907415-83c5-4eae-ab0b-cb63a840880d"}]},"request":{"method":"PUT","url":"Coverage/3ef7b40c-be13-4a22-8adc-b571919cf288"}},{"fullUrl":"https://madie.cms.gov/Organization/d3191522-ccff-469e-935a-a2115e4c57b4","resource":{"resourceType":"Organization","id":"f4907415-83c5-4eae-ab0b-cb63a840880d","meta":{"profile":["http://hl7.org/fhir/us/qicore/StructureDefinition/qicore-organization"]},"identifier":[{"use":"temp","system":"urn:oid:2.16.840.1.113883.4.4","value":"21-3259825"}],"active":true,"type":[{"coding":[{"system":"http://terminology.hl7.org/CodeSystem/organization-type","code":"pay","display":"Payer"}]}],"name":"Blue Cross Blue Shield of Texas","telecom":[{"system":"phone","value":"(+1) 972-766-6900"}],"address":[{"use":"billing","type":"postal","line":["P.O. Box 660044"],"city":"Dallas","state":"TX","postalCode":"75266-0044","country":"USA"}]},"request":{"method":"PUT","url":"Organization/f4907415-83c5-4eae-ab0b-cb63a840880d"}},{"fullUrl":"https://madie.cms.gov/Condition/ea6a862b-5b8d-448f-92da-f65105065ce2","resource":{"resourceType":"Condition","id":"ea6a862b-5b8d-448f-92da-f65105065ce2","meta":{"profile":["http://hl7.org/fhir/us/qicore/StructureDefinition/qicore-condition"]},"category":[{"coding":[{"system":"http://terminology.hl7.org/CodeSystem/condition-category","code":"encounter-diagnosis","display":"Encounter Diagnosis"}]}],"code":{"coding":[{"system":"http://snomed.info/sct","code":"169826009","display":"Single live birth (finding)"}]},"subject":{"reference":"Patient/6bbb349d-5c6b-486d-96f3-6a80b923e17e"}},"request":{"method":"PUT","url":"Condition/ea6a862b-5b8d-448f-92da-f65105065ce2"}},{"fullUrl":"https://madie.cms.gov/Practitioner/e06a140e-ab11-4dc9-911f-4f1e85ec35b3","resource":{"resourceType":"Practitioner","id":"e06a140e-ab11-4dc9-911f-4f1e85ec35b3","identifier":[{"system":"http://hl7.org/fhir/sid/us-npi","value":"123456"}],"name":[{"family":"Evil","prefix":["Dr"]}]},"request":{"method":"PUT","url":"Practitioner/e06a140e-ab11-4dc9-911f-4f1e85ec35b3"}},{"fullUrl":"https://madie.cms.gov/MeasureReport/a6693d56-5b17-4ea1-8209-ad41e876b418","resource":{"resourceType":"MeasureReport","id":"a6693d56-5b17-4ea1-8209-ad41e876b418","meta":{"profile":["http://hl7.org/fhir/us/cqfmeasures/StructureDefinition/test-case-cqfm"]},"contained":[{"resourceType":"Parameters","id":"2ae8368a-7605-4a3d-9f55-d0af94faa39e-parameters","parameter":[{"name":"subject","valueString":"6bbb349d-5c6b-486d-96f3-6a80b923e17e"}]}],"extension":[{"url":"http://hl7.org/fhir/us/cqfmeasures/StructureDefinition/cqfm-inputParameters","valueReference":{"reference":"#2ae8368a-7605-4a3d-9f55-d0af94faa39e-parameters"}},{"url":"http://hl7.org/fhir/us/cqfmeasures/StructureDefinition/cqfm-testCaseDescription","valueMarkdown":" Pt is 27 years of age,  encounter dx delivery of singleton, gravida rel date/time exactly equal to time of delivery.  This fails as logic states gravida rel date/time is 42 weeks OR LESS before time of delivery\n"}],"modifierExtension":[{"url":"http://hl7.org/fhir/us/cqfmeasures/StructureDefinition/cqfm-isTestCase","valueBoolean":true}],"status":"complete","type":"individual","measure":"https://madie.cms.gov/Measure/CMS334FHIRPCCesareanBirth","period":{"start":"2026-01-01","end":"2026-12-31"},"group":[{"population":[{"code":{"coding":[{"system":"http://terminology.hl7.org/CodeSystem/measure-population","code":"initial-population","display":"Initial Population"}]},"count":1},{"code":{"coding":[{"system":"http://terminology.hl7.org/CodeSystem/measure-population","code":"denominator","display":"Denominator"}]},"count":0},{"code":{"coding":[{"system":"http://terminology.hl7.org/CodeSystem/measure-population","code":"denominator-exclusion","display":"Denominator Exclusion"}]},"count":0},{"code":{"coding":[{"system":"http://terminology.hl7.org/CodeSystem/measure-population","code":"numerator","display":"Numerator"}]},"count":0}]}]},"request":{"method":"PUT","url":"MeasureReport/a6693d56-5b17-4ea1-8209-ad41e876b418"}}]}