{"resourceType":"Bundle","id":"tests-5bbc4c9f-8624-412e-bc07-74898e5f41ec-bundle","type":"transaction","entry":[{"fullUrl":"https://madie.cms.gov/Patient/5bbc4c9f-8624-412e-bc07-74898e5f41ec","resource":{"resourceType":"Patient","id":"5bbc4c9f-8624-412e-bc07-74898e5f41ec","meta":{"profile":["http://hl7.org/fhir/us/qicore/StructureDefinition/qicore-patient"]},"text":{"status":"generated","div":"<div xmlns=\"http://www.w3.org/1999/xhtml\"><div class=\"hapiHeaderText\">AssessPreTerm0RelDate42wksB4DelivDate <b>DENPASS </b></div><table class=\"hapiPropertyTable\"><tbody><tr><td>Identifier</td><td>ae2c858214ff9b1ffdc193923955b0f25c757408279ae2f0e7ea89ca980dbad8</td></tr><tr><td>Date of birth</td><td><span>14 February 1985</span></td></tr></tbody></table></div>"},"extension":[{"url":"http://hl7.org/fhir/us/core/StructureDefinition/us-core-race","extension":[{"url":"ombCategory","valueCoding":{"system":"urn:oid:2.16.840.1.113883.6.238","code":"1002-5","display":"American Indian or Alaska Native","userSelected":true}},{"url":"text","valueString":"American Indian or Alaska Native"}]},{"url":"http://hl7.org/fhir/us/core/StructureDefinition/us-core-ethnicity","extension":[{"url":"ombCategory","valueCoding":{"system":"urn:oid:2.16.840.1.113883.6.238","code":"2135-2","display":"Hispanic or Latino","userSelected":true}},{"url":"text","valueString":"Hispanic or Latino"}]}],"identifier":[{"type":{"coding":[{"system":"http://terminology.hl7.org/CodeSystem/v2-0203","code":"MR"}]},"system":"https://bonnie-fhir.healthit.gov/","value":"63487c2f0968f8012254018f"}],"active":true,"name":[{"use":"usual","family":"DENPass","given":["AssessPreTerm0RelPerStartTime42wksB4DelivDateTime"]}],"gender":"female","birthDate":"1998-02-14"},"request":{"method":"PUT","url":"Patient/5bbc4c9f-8624-412e-bc07-74898e5f41ec"}},{"fullUrl":"https://madie.cms.gov/Observation/346310b2-945b-4002-8bec-ba54acb31289","resource":{"resourceType":"Observation","id":"346310b2-945b-4002-8bec-ba54acb31289","meta":{"profile":["http://hl7.org/fhir/us/qicore/StructureDefinition/qicore-observation"]},"status":"final","category":[{"coding":[{"system":"http://terminology.hl7.org/CodeSystem/observation-category","code":"exam","display":"exam","userSelected":true}]}],"code":{"coding":[{"system":"http://loinc.org","code":"11637-6"}]},"subject":{"reference":"Patient/5bbc4c9f-8624-412e-bc07-74898e5f41ec"},"effectivePeriod":{"start":"2025-08-19T20:00:00.000+00:00","end":"2025-08-19T20:00:00.000+00:00"},"valueInteger":0},"request":{"method":"PUT","url":"Observation/346310b2-945b-4002-8bec-ba54acb31289"}},{"fullUrl":"https://madie.cms.gov/Observation/ddb153d2-221d-4c5e-ab2b-65b5824c0a04","resource":{"resourceType":"Observation","id":"ddb153d2-221d-4c5e-ab2b-65b5824c0a04","meta":{"profile":["http://hl7.org/fhir/us/qicore/StructureDefinition/qicore-observation"]},"status":"final","category":[{"coding":[{"system":"http://terminology.hl7.org/CodeSystem/observation-category","code":"exam","display":"exam","userSelected":true}]}],"code":{"coding":[{"system":"http://loinc.org","code":"11639-2"}]},"subject":{"reference":"Patient/5bbc4c9f-8624-412e-bc07-74898e5f41ec"},"effectiveDateTime":"2025-09-19T09:00:00.000+00:00","valueInteger":0},"request":{"method":"PUT","url":"Observation/ddb153d2-221d-4c5e-ab2b-65b5824c0a04"}},{"fullUrl":"https://madie.cms.gov/Observation/d6bd6a26-cff1-4da6-a7aa-276582fd5a99","resource":{"resourceType":"Observation","id":"d6bd6a26-cff1-4da6-a7aa-276582fd5a99","meta":{"profile":["http://hl7.org/fhir/us/qicore/StructureDefinition/qicore-observation"]},"status":"final","category":[{"coding":[{"system":"http://terminology.hl7.org/CodeSystem/observation-category","code":"exam","display":"exam","userSelected":true}]}],"code":{"coding":[{"system":"http://loinc.org","code":"11884-4"}]},"subject":{"reference":"Patient/5bbc4c9f-8624-412e-bc07-74898e5f41ec"},"effectiveDateTime":"2026-06-08T20:00:00.000+00:00","valueQuantity":{"value":37,"system":"http://unitsofmeasure.org","code":"wk"}},"request":{"method":"PUT","url":"Observation/d6bd6a26-cff1-4da6-a7aa-276582fd5a99"}},{"fullUrl":"https://madie.cms.gov/Observation/8e9cc440-5b2a-4193-a38f-3d03eabfafce","resource":{"resourceType":"Observation","id":"8e9cc440-5b2a-4193-a38f-3d03eabfafce","meta":{"profile":["http://hl7.org/fhir/us/qicore/StructureDefinition/qicore-observation"]},"status":"final","category":[{"coding":[{"system":"http://terminology.hl7.org/CodeSystem/observation-category","code":"exam","display":"exam","userSelected":true}]}],"code":{"coding":[{"system":"http://loinc.org","code":"93857-1"}]},"subject":{"reference":"Patient/5bbc4c9f-8624-412e-bc07-74898e5f41ec"},"effectiveDateTime":"2026-06-08T20:00:00.000+00:00","valueDateTime":"2026-06-08T20:00:00+00:00"},"request":{"method":"PUT","url":"Observation/8e9cc440-5b2a-4193-a38f-3d03eabfafce"}},{"fullUrl":"https://madie.cms.gov/Encounter/2129b1f1-0d13-4fcc-b737-a67df05eb8b1","resource":{"resourceType":"Encounter","id":"2129b1f1-0d13-4fcc-b737-a67df05eb8b1","meta":{"profile":["http://hl7.org/fhir/us/qicore/StructureDefinition/qicore-encounter"]},"status":"finished","class":{"system":"http://terminology.hl7.org/CodeSystem/v3-ActCode","code":"IMP","display":"inpatient encounter"},"type":[{"coding":[{"system":"http://snomed.info/sct","code":"8715000"}]}],"subject":{"reference":"Patient/5bbc4c9f-8624-412e-bc07-74898e5f41ec"},"period":{"start":"2026-06-08T08:00:00.000Z","end":"2026-06-10T08:15:00.000Z"},"length":{"value":2,"unit":"days"},"diagnosis":[{"condition":{"reference":"Condition/delivery-of-singleton-f83c"},"use":{"coding":[{"system":"http://snomed.info/sct","code":"169826009","display":"Delivery of Singleton"}]}},{"condition":{"reference":"Condition/9d95c2c8-5013-48a4-96b0-01e5de1bc13f"}}]},"request":{"method":"PUT","url":"Encounter/2129b1f1-0d13-4fcc-b737-a67df05eb8b1"}},{"fullUrl":"https://madie.cms.gov/Procedure/cb9bdd63-2687-4ff8-ac65-c7ea2fec34d0","resource":{"resourceType":"Procedure","id":"cb9bdd63-2687-4ff8-ac65-c7ea2fec34d0","meta":{"profile":["http://hl7.org/fhir/us/qicore/StructureDefinition/qicore-procedure"]},"extension":[{"url":"http://hl7.org/fhir/us/qicore/StructureDefinition/qicore-recorded","valueDateTime":"2014-04-05T09:35:00-04:00"}],"status":"completed","code":{"coding":[{"system":"http://www.cms.gov/Medicare/Coding/ICD10","code":"10D00Z0"},{"system":"http://snomed.info/sct","code":"4504004"},{"system":"http://www.icd10data.com/icd10pcs","code":"10D00Z1","userSelected":true}]},"subject":{"reference":"Patient/5bbc4c9f-8624-412e-bc07-74898e5f41ec"},"performedPeriod":{"start":"2026-06-08T20:00:00.000Z","end":"2026-06-08T20:15:00.000Z"}},"request":{"method":"PUT","url":"Procedure/cb9bdd63-2687-4ff8-ac65-c7ea2fec34d0"}},{"fullUrl":"https://madie.cms.gov/Condition/9d95c2c8-5013-48a4-96b0-01e5de1bc13f","resource":{"resourceType":"Condition","id":"9d95c2c8-5013-48a4-96b0-01e5de1bc13f","meta":{"profile":["http://hl7.org/fhir/us/qicore/StructureDefinition/qicore-condition"]},"category":[{"coding":[{"system":"http://terminology.hl7.org/CodeSystem/condition-category","code":"encounter-diagnosis","display":"Encounter Diagnosis"}]}],"code":{"coding":[{"system":"http://snomed.info/sct","version":"2022-09","code":"169826009","display":"Single live birth (finding)","userSelected":true}]},"subject":{"reference":"Patient/5bbc4c9f-8624-412e-bc07-74898e5f41ec"},"recordedDate":"2026-10-20T08:00:00.000+00:00"},"request":{"method":"PUT","url":"Condition/9d95c2c8-5013-48a4-96b0-01e5de1bc13f"}},{"fullUrl":"https://madie.cms.gov/Coverage/13074a3e-c489-4200-8f9f-b88d49af1091","resource":{"resourceType":"Coverage","id":"13074a3e-c489-4200-8f9f-b88d49af1091","meta":{"profile":["http://hl7.org/fhir/us/qicore/StructureDefinition/qicore-coverage"]},"status":"active","beneficiary":{"reference":"Patient/5bbc4c9f-8624-412e-bc07-74898e5f41ec"},"payor":[{"reference":"Organization/3e899f33-84eb-4634-a770-a5a0bd7a80e7"}]},"request":{"method":"PUT","url":"Coverage/13074a3e-c489-4200-8f9f-b88d49af1091"}},{"fullUrl":"https://madie.cms.gov/Organization/641fe85b-a251-4484-9546-102efbcae694","resource":{"resourceType":"Organization","id":"3e899f33-84eb-4634-a770-a5a0bd7a80e7","meta":{"profile":["http://hl7.org/fhir/us/qicore/StructureDefinition/qicore-organization"]},"identifier":[{"use":"temp","system":"urn:oid:2.16.840.1.113883.4.4","value":"21-3259825"}],"active":true,"type":[{"coding":[{"system":"http://terminology.hl7.org/CodeSystem/organization-type","code":"pay","display":"Payer"}]}],"name":"Blue Cross Blue Shield of Texas","telecom":[{"system":"phone","value":"(+1) 972-766-6900"}],"address":[{"use":"billing","type":"postal","line":["P.O. Box 660044"],"city":"Dallas","state":"TX","postalCode":"75266-0044","country":"USA"}]},"request":{"method":"PUT","url":"Organization/3e899f33-84eb-4634-a770-a5a0bd7a80e7"}},{"fullUrl":"https://madie.cms.gov/Practitioner/92062f25-1b56-44f3-8574-b18eb944498f","resource":{"resourceType":"Practitioner","id":"92062f25-1b56-44f3-8574-b18eb944498f","identifier":[{"system":"http://hl7.org/fhir/sid/us-npi","value":"123456"}],"name":[{"family":"Evil","prefix":["Dr"]}]},"request":{"method":"PUT","url":"Practitioner/92062f25-1b56-44f3-8574-b18eb944498f"}},{"fullUrl":"https://madie.cms.gov/MeasureReport/2407f2be-15cf-4971-a0f8-59f6cf4acfdd","resource":{"resourceType":"MeasureReport","id":"2407f2be-15cf-4971-a0f8-59f6cf4acfdd","meta":{"profile":["http://hl7.org/fhir/us/cqfmeasures/StructureDefinition/test-case-cqfm"]},"contained":[{"resourceType":"Parameters","id":"31c71e0c-3dea-4952-a7d5-39b3e063429a-parameters","parameter":[{"name":"subject","valueString":"5bbc4c9f-8624-412e-bc07-74898e5f41ec"}]}],"extension":[{"url":"http://hl7.org/fhir/us/cqfmeasures/StructureDefinition/cqfm-inputParameters","valueReference":{"reference":"#31c71e0c-3dea-4952-a7d5-39b3e063429a-parameters"}},{"url":"http://hl7.org/fhir/us/cqfmeasures/StructureDefinition/cqfm-testCaseDescription","valueMarkdown":"Testing relevant period start time for Assess PreTerm\n"}],"modifierExtension":[{"url":"http://hl7.org/fhir/us/cqfmeasures/StructureDefinition/cqfm-isTestCase","valueBoolean":true}],"status":"complete","type":"individual","measure":"https://madie.cms.gov/Measure/CMS334FHIRPCCesareanBirth","period":{"start":"2026-01-01","end":"2026-12-31"},"group":[{"population":[{"code":{"coding":[{"system":"http://terminology.hl7.org/CodeSystem/measure-population","code":"initial-population","display":"Initial Population"}]},"count":1},{"code":{"coding":[{"system":"http://terminology.hl7.org/CodeSystem/measure-population","code":"denominator","display":"Denominator"}]},"count":1},{"code":{"coding":[{"system":"http://terminology.hl7.org/CodeSystem/measure-population","code":"denominator-exclusion","display":"Denominator Exclusion"}]},"count":0},{"code":{"coding":[{"system":"http://terminology.hl7.org/CodeSystem/measure-population","code":"numerator","display":"Numerator"}]},"count":1}]}]},"request":{"method":"PUT","url":"MeasureReport/2407f2be-15cf-4971-a0f8-59f6cf4acfdd"}}]}