{"resourceType":"Bundle","id":"tests-f75e88bd-763c-45ee-9926-da176be47cd9-bundle","type":"transaction","entry":[{"fullUrl":"https://madie.cms.gov/Patient/f75e88bd-763c-45ee-9926-da176be47cd9","resource":{"resourceType":"Patient","id":"f75e88bd-763c-45ee-9926-da176be47cd9","meta":{"profile":["http://hl7.org/fhir/us/qicore/StructureDefinition/qicore-patient"]},"text":{"status":"generated","div":"<div xmlns=\"http://www.w3.org/1999/xhtml\"><div class=\"hapiHeaderText\">EGABadUnit <b>DENFAIL </b></div><table class=\"hapiPropertyTable\"><tbody><tr><td>Identifier</td><td>73d161bbd72a0b8d656073de21758ea0022c984462702bb844daf97a7291f479</td></tr><tr><td>Date of birth</td><td><span>14 February 1985</span></td></tr></tbody></table></div>"},"extension":[{"url":"http://hl7.org/fhir/us/core/StructureDefinition/us-core-race","extension":[{"url":"ombCategory","valueCoding":{"system":"urn:oid:2.16.840.1.113883.6.238","code":"1002-5","display":"American Indian or Alaska Native","userSelected":true}},{"url":"text","valueString":"American Indian or Alaska Native"}]},{"url":"http://hl7.org/fhir/us/core/StructureDefinition/us-core-ethnicity","extension":[{"url":"ombCategory","valueCoding":{"system":"urn:oid:2.16.840.1.113883.6.238","code":"2135-2","display":"Hispanic or Latino","userSelected":true}},{"url":"text","valueString":"Hispanic or Latino"}]}],"identifier":[{"type":{"coding":[{"system":"http://terminology.hl7.org/CodeSystem/v2-0203","code":"MR"}]},"system":"https://bonnie-fhir.healthit.gov/","value":"63487c2f0968f801225401a2"}],"active":true,"name":[{"use":"usual","family":"DENFail","given":["EGABadUnit"]}],"gender":"female","birthDate":"1998-02-14"},"request":{"method":"PUT","url":"Patient/f75e88bd-763c-45ee-9926-da176be47cd9"}},{"fullUrl":"https://madie.cms.gov/Observation/7d9139ec-7c80-4c59-a96b-a6127ee0bce4","resource":{"resourceType":"Observation","id":"7d9139ec-7c80-4c59-a96b-a6127ee0bce4","meta":{"profile":["http://hl7.org/fhir/us/qicore/StructureDefinition/qicore-observation"]},"status":"final","category":[{"coding":[{"system":"http://terminology.hl7.org/CodeSystem/observation-category","code":"exam","display":"exam","userSelected":true}]}],"code":{"coding":[{"system":"http://loinc.org","code":"11996-6"}]},"subject":{"reference":"Patient/f75e88bd-763c-45ee-9926-da176be47cd9"},"effectiveDateTime":"2026-06-08T08:00:00.000+00:00","valueInteger":1},"request":{"method":"PUT","url":"Observation/7d9139ec-7c80-4c59-a96b-a6127ee0bce4"}},{"fullUrl":"https://madie.cms.gov/Observation/58121281-cf2c-48ab-8e92-38371f7af088","resource":{"resourceType":"Observation","id":"58121281-cf2c-48ab-8e92-38371f7af088","meta":{"profile":["http://hl7.org/fhir/us/qicore/StructureDefinition/qicore-observation"]},"status":"final","category":[{"coding":[{"system":"http://terminology.hl7.org/CodeSystem/observation-category","code":"exam","display":"exam","userSelected":true}]}],"code":{"coding":[{"system":"http://loinc.org","code":"11884-4"}]},"subject":{"reference":"Patient/f75e88bd-763c-45ee-9926-da176be47cd9"},"effectiveDateTime":"2026-06-08T09:15:00.000+00:00","valueQuantity":{"value":37.0,"system":"http://unitsofmeasure.org","code":"cm"}},"request":{"method":"PUT","url":"Observation/58121281-cf2c-48ab-8e92-38371f7af088"}},{"fullUrl":"https://madie.cms.gov/Observation/6f3cfdfc-1ea3-4988-b951-669600556626","resource":{"resourceType":"Observation","id":"6f3cfdfc-1ea3-4988-b951-669600556626","meta":{"profile":["http://hl7.org/fhir/us/qicore/StructureDefinition/qicore-observation"]},"status":"final","category":[{"coding":[{"system":"http://terminology.hl7.org/CodeSystem/observation-category","code":"exam","display":"exam","userSelected":true}]}],"code":{"coding":[{"system":"http://loinc.org","code":"93857-1"}]},"subject":{"reference":"Patient/f75e88bd-763c-45ee-9926-da176be47cd9"},"effectiveDateTime":"2026-06-08T09:15:00.000+00:00","valueDateTime":"2026-06-08T09:15:00+00:00"},"request":{"method":"PUT","url":"Observation/6f3cfdfc-1ea3-4988-b951-669600556626"}},{"fullUrl":"https://madie.cms.gov/Encounter/546bf558-63b1-4b62-9aa6-8825ac6e51c3","resource":{"resourceType":"Encounter","id":"546bf558-63b1-4b62-9aa6-8825ac6e51c3","meta":{"profile":["http://hl7.org/fhir/us/qicore/StructureDefinition/qicore-encounter"]},"status":"finished","class":{"system":"http://terminology.hl7.org/CodeSystem/v3-ActCode","code":"IMP","display":"inpatient encounter"},"type":[{"coding":[{"system":"http://snomed.info/sct","code":"183452005"}]}],"subject":{"reference":"Patient/f75e88bd-763c-45ee-9926-da176be47cd9"},"period":{"start":"2026-06-08T08:00:00.000Z","end":"2026-06-10T08:15:00.000Z"},"length":{"value":2.0,"unit":"days"},"diagnosis":[{"condition":{"reference":"Condition/delivery-of-singleton-f83c"},"use":{"coding":[{"system":"http://snomed.info/sct","code":"169826009","display":"Delivery of Singleton"}]}},{"condition":{"reference":"Condition/ac9d04d3-ca45-4300-93cf-4925fad6987f"}}]},"request":{"method":"PUT","url":"Encounter/546bf558-63b1-4b62-9aa6-8825ac6e51c3"}},{"fullUrl":"https://madie.cms.gov/Procedure/b04c739e-2786-4b6b-88ca-591cad5f35b9","resource":{"resourceType":"Procedure","id":"b04c739e-2786-4b6b-88ca-591cad5f35b9","meta":{"profile":["http://hl7.org/fhir/us/qicore/StructureDefinition/qicore-procedure"]},"extension":[{"url":"http://hl7.org/fhir/us/qicore/StructureDefinition/qicore-recorded","valueDateTime":"2014-04-05T09:35:00-04:00"}],"status":"completed","code":{"coding":[{"system":"http://www.cms.gov/Medicare/Coding/ICD10","code":"10D00Z0"},{"system":"http://www.icd10data.com/icd10pcs","code":"10D00Z0","userSelected":true}]},"subject":{"reference":"Patient/f75e88bd-763c-45ee-9926-da176be47cd9"},"performedPeriod":{"start":"2026-06-08T08:00:00.000Z","end":"2026-06-08T09:15:00.000Z"}},"request":{"method":"PUT","url":"Procedure/b04c739e-2786-4b6b-88ca-591cad5f35b9"}},{"fullUrl":"https://madie.cms.gov/Condition/ac9d04d3-ca45-4300-93cf-4925fad6987f","resource":{"resourceType":"Condition","id":"ac9d04d3-ca45-4300-93cf-4925fad6987f","meta":{"profile":["http://hl7.org/fhir/us/qicore/StructureDefinition/qicore-condition"]},"category":[{"coding":[{"system":"http://terminology.hl7.org/CodeSystem/condition-category","code":"encounter-diagnosis","display":"Encounter Diagnosis"}]}],"code":{"coding":[{"system":"http://snomed.info/sct","version":"2022-09","code":"169826009","display":"Single live birth (finding)","userSelected":true}]},"subject":{"reference":"Patient/f75e88bd-763c-45ee-9926-da176be47cd9"},"recordedDate":"2026-10-21T08:00:00.000+00:00"},"request":{"method":"PUT","url":"Condition/ac9d04d3-ca45-4300-93cf-4925fad6987f"}},{"fullUrl":"https://madie.cms.gov/Coverage/63f1e9f8-e306-456b-9516-4795bf355ec1","resource":{"resourceType":"Coverage","id":"63f1e9f8-e306-456b-9516-4795bf355ec1","meta":{"profile":["http://hl7.org/fhir/us/qicore/StructureDefinition/qicore-coverage"]},"status":"active","beneficiary":{"reference":"Patient/f75e88bd-763c-45ee-9926-da176be47cd9"},"payor":[{"reference":"Organization/f4907415-83c5-4eae-ab0b-cb63a840880d"}]},"request":{"method":"PUT","url":"Coverage/63f1e9f8-e306-456b-9516-4795bf355ec1"}},{"fullUrl":"https://madie.cms.gov/Organization/f98c3a5f-2ed4-4e2d-988d-fa81e22ad0ef","resource":{"resourceType":"Organization","id":"f4907415-83c5-4eae-ab0b-cb63a840880d","meta":{"profile":["http://hl7.org/fhir/us/qicore/StructureDefinition/qicore-organization"]},"identifier":[{"use":"temp","system":"urn:oid:2.16.840.1.113883.4.4","value":"21-3259825"}],"active":true,"type":[{"coding":[{"system":"http://terminology.hl7.org/CodeSystem/organization-type","code":"pay","display":"Payer"}]}],"name":"Blue Cross Blue Shield of Texas","telecom":[{"system":"phone","value":"(+1) 972-766-6900"}],"address":[{"use":"billing","type":"postal","line":["P.O. Box 660044"],"city":"Dallas","state":"TX","postalCode":"75266-0044","country":"USA"}]},"request":{"method":"PUT","url":"Organization/f4907415-83c5-4eae-ab0b-cb63a840880d"}},{"fullUrl":"https://madie.cms.gov/Practitioner/422fabd6-5e99-464b-a655-72cf76e91f0e","resource":{"resourceType":"Practitioner","id":"422fabd6-5e99-464b-a655-72cf76e91f0e","identifier":[{"system":"http://hl7.org/fhir/sid/us-npi","value":"123456"}],"name":[{"family":"Evil","prefix":["Dr"]}]},"request":{"method":"PUT","url":"Practitioner/422fabd6-5e99-464b-a655-72cf76e91f0e"}},{"fullUrl":"https://madie.cms.gov/MeasureReport/9cf25eec-c4ab-412f-8b45-612dc18dc965","resource":{"resourceType":"MeasureReport","id":"9cf25eec-c4ab-412f-8b45-612dc18dc965","meta":{"profile":["http://hl7.org/fhir/us/cqfmeasures/StructureDefinition/test-case-cqfm"]},"contained":[{"resourceType":"Parameters","id":"22d46f8d-c689-4d97-897e-2d494b3409fc-parameters","parameter":[{"name":"subject","valueString":"f75e88bd-763c-45ee-9926-da176be47cd9"}]}],"extension":[{"url":"http://hl7.org/fhir/us/cqfmeasures/StructureDefinition/cqfm-inputParameters","valueReference":{"reference":"#22d46f8d-c689-4d97-897e-2d494b3409fc-parameters"}},{"url":"http://hl7.org/fhir/us/cqfmeasures/StructureDefinition/cqfm-testCaseDescription","valueMarkdown":"Passes: IP, Fails DENOM  Pt is 27 years of age,  encounter dx of delivery of singleton, gravida, EGA @ 37 but the units are bad (not wk or weeks)\n"}],"modifierExtension":[{"url":"http://hl7.org/fhir/us/cqfmeasures/StructureDefinition/cqfm-isTestCase","valueBoolean":true}],"status":"complete","type":"individual","measure":"https://madie.cms.gov/Measure/CMS334FHIRPCCesareanBirth","period":{"start":"2026-01-01","end":"2026-12-31"},"group":[{"population":[{"code":{"coding":[{"system":"http://terminology.hl7.org/CodeSystem/measure-population","code":"initial-population","display":"Initial Population"}]},"count":1},{"code":{"coding":[{"system":"http://terminology.hl7.org/CodeSystem/measure-population","code":"denominator","display":"Denominator"}]},"count":0},{"code":{"coding":[{"system":"http://terminology.hl7.org/CodeSystem/measure-population","code":"denominator-exclusion","display":"Denominator Exclusion"}]},"count":0},{"code":{"coding":[{"system":"http://terminology.hl7.org/CodeSystem/measure-population","code":"numerator","display":"Numerator"}]},"count":0}]}]},"request":{"method":"PUT","url":"MeasureReport/9cf25eec-c4ab-412f-8b45-612dc18dc965"}}]}