{"resourceType":"Bundle","id":"tests-c24efa29-0d0b-42d0-b07e-3c0ed4fcc873-bundle","type":"transaction","entry":[{"fullUrl":"https://madie.cms.gov/Patient/c24efa29-0d0b-42d0-b07e-3c0ed4fcc873","resource":{"resourceType":"Patient","id":"c24efa29-0d0b-42d0-b07e-3c0ed4fcc873","meta":{"profile":["http://hl7.org/fhir/us/qicore/StructureDefinition/qicore-patient"]},"text":{"status":"generated","div":"<div xmlns=\"http://www.w3.org/1999/xhtml\"><div class=\"hapiHeaderText\">AssessPerfAbnPresRelvtPeriodB4TimeOfDeliv_DuringEnc <b>DENEXPASS </b></div><table class=\"hapiPropertyTable\"><tbody><tr><td>Identifier</td><td>db09244543fe550232b604cb7d87decbeb851047882e641e3fe736fdce398a0a</td></tr><tr><td>Date of birth</td><td><span>14 February 1985</span></td></tr></tbody></table></div>"},"extension":[{"url":"http://hl7.org/fhir/us/core/StructureDefinition/us-core-race","extension":[{"url":"ombCategory","valueCoding":{"system":"urn:oid:2.16.840.1.113883.6.238","code":"1002-5","display":"American Indian or Alaska Native","userSelected":true}},{"url":"text","valueString":"American Indian or Alaska Native"}]},{"url":"http://hl7.org/fhir/us/core/StructureDefinition/us-core-ethnicity","extension":[{"url":"ombCategory","valueCoding":{"system":"urn:oid:2.16.840.1.113883.6.238","code":"2135-2","display":"Hispanic or Latino","userSelected":true}},{"url":"text","valueString":"Hispanic or Latino"}]}],"identifier":[{"type":{"coding":[{"system":"http://terminology.hl7.org/CodeSystem/v2-0203","code":"MR"}]},"system":"https://bonnie-fhir.healthit.gov/","value":"63487c300968f801225401ce"}],"active":true,"name":[{"use":"usual","family":"DENEXPass","given":["AssessPerfAbnPresRelvtPeriodB4TimeOfDeliv_DuringEnc"]}],"gender":"female","birthDate":"1998-02-14"},"request":{"method":"PUT","url":"Patient/c24efa29-0d0b-42d0-b07e-3c0ed4fcc873"}},{"fullUrl":"https://madie.cms.gov/Observation/74b452b2-fa3e-4b8b-b60f-082642fb998a","resource":{"resourceType":"Observation","id":"74b452b2-fa3e-4b8b-b60f-082642fb998a","meta":{"profile":["http://hl7.org/fhir/us/qicore/StructureDefinition/qicore-observation"]},"status":"final","category":[{"coding":[{"system":"http://terminology.hl7.org/CodeSystem/observation-category","code":"exam","display":"exam","userSelected":true}]}],"code":{"coding":[{"system":"http://loinc.org","code":"11996-6"}]},"subject":{"reference":"Patient/c24efa29-0d0b-42d0-b07e-3c0ed4fcc873"},"effectiveDateTime":"2026-06-08T08:00:00.000+00:00","valueInteger":1},"request":{"method":"PUT","url":"Observation/74b452b2-fa3e-4b8b-b60f-082642fb998a"}},{"fullUrl":"https://madie.cms.gov/Observation/1a09c955-fda9-45c5-a893-3736b6d30378","resource":{"resourceType":"Observation","id":"1a09c955-fda9-45c5-a893-3736b6d30378","meta":{"profile":["http://hl7.org/fhir/us/qicore/StructureDefinition/qicore-observation"]},"status":"final","category":[{"coding":[{"system":"http://terminology.hl7.org/CodeSystem/observation-category","code":"exam","display":"exam","userSelected":true}]}],"code":{"coding":[{"system":"http://loinc.org","code":"11884-4"}]},"subject":{"reference":"Patient/c24efa29-0d0b-42d0-b07e-3c0ed4fcc873"},"effectiveDateTime":"2026-06-08T08:00:00.000+00:00","valueQuantity":{"value":43,"system":"http://unitsofmeasure.org","code":"wk"}},"request":{"method":"PUT","url":"Observation/1a09c955-fda9-45c5-a893-3736b6d30378"}},{"fullUrl":"https://madie.cms.gov/Observation/30d4c797-d383-43ed-bd2a-c102fd7567b4","resource":{"resourceType":"Observation","id":"30d4c797-d383-43ed-bd2a-c102fd7567b4","meta":{"profile":["http://hl7.org/fhir/us/qicore/StructureDefinition/qicore-observation"]},"status":"final","category":[{"coding":[{"system":"http://terminology.hl7.org/CodeSystem/observation-category","code":"exam","display":"exam","userSelected":true}]}],"code":{"coding":[{"system":"http://loinc.org","code":"93857-1"}]},"subject":{"reference":"Patient/c24efa29-0d0b-42d0-b07e-3c0ed4fcc873"},"effectiveDateTime":"2026-06-08T20:30:00.000+00:00","valueDateTime":"2026-06-08T08:30:00+00:00"},"request":{"method":"PUT","url":"Observation/30d4c797-d383-43ed-bd2a-c102fd7567b4"}},{"fullUrl":"https://madie.cms.gov/Observation/7dd7a1ab-7f0d-4101-a25c-85384d90cb53","resource":{"resourceType":"Observation","id":"7dd7a1ab-7f0d-4101-a25c-85384d90cb53","meta":{"profile":["http://hl7.org/fhir/us/qicore/StructureDefinition/qicore-observation"]},"status":"final","category":[{"coding":[{"system":"http://terminology.hl7.org/CodeSystem/observation-category","code":"exam","display":"exam","userSelected":true}]}],"code":{"coding":[{"system":"http://snomed.info/sct","code":"18559007"}]},"subject":{"reference":"Patient/c24efa29-0d0b-42d0-b07e-3c0ed4fcc873"},"effectiveDateTime":"2026-06-08T08:29:00.000+00:00"},"request":{"method":"PUT","url":"Observation/7dd7a1ab-7f0d-4101-a25c-85384d90cb53"}},{"fullUrl":"https://madie.cms.gov/Encounter/056a239e-7c7f-4bef-93ee-c3ae148f5135","resource":{"resourceType":"Encounter","id":"056a239e-7c7f-4bef-93ee-c3ae148f5135","meta":{"profile":["http://hl7.org/fhir/us/qicore/StructureDefinition/qicore-encounter"]},"status":"finished","class":{"system":"http://terminology.hl7.org/CodeSystem/v3-ActCode","code":"IMP","display":"inpatient encounter"},"type":[{"coding":[{"system":"http://snomed.info/sct","code":"8715000"}]}],"subject":{"reference":"Patient/c24efa29-0d0b-42d0-b07e-3c0ed4fcc873"},"period":{"start":"2026-06-08T08:00:00.000Z","end":"2026-06-10T08:15:00.000Z"},"diagnosis":[{"condition":{"reference":"Condition/528df337-ac51-4244-8229-4dc850c72519"}}]},"request":{"method":"PUT","url":"Encounter/056a239e-7c7f-4bef-93ee-c3ae148f5135"}},{"fullUrl":"https://madie.cms.gov/Procedure/ee9afb9b-98af-467d-a843-d415289fddda","resource":{"resourceType":"Procedure","id":"ee9afb9b-98af-467d-a843-d415289fddda","meta":{"profile":["http://hl7.org/fhir/us/qicore/StructureDefinition/qicore-procedure"]},"extension":[{"url":"http://hl7.org/fhir/us/qicore/StructureDefinition/qicore-recorded","valueDateTime":"2014-04-05T09:35:00-04:00"}],"status":"completed","code":{"coding":[{"system":"http://snomed.info/sct","code":"4504004"}]},"subject":{"reference":"Patient/c24efa29-0d0b-42d0-b07e-3c0ed4fcc873"},"performedPeriod":{"start":"2026-06-08T20:00:00.000Z","end":"2026-06-18T20:00:00.000Z"}},"request":{"method":"PUT","url":"Procedure/ee9afb9b-98af-467d-a843-d415289fddda"}},{"fullUrl":"https://madie.cms.gov/Condition/528df337-ac51-4244-8229-4dc850c72519","resource":{"resourceType":"Condition","id":"528df337-ac51-4244-8229-4dc850c72519","meta":{"profile":["http://hl7.org/fhir/us/qicore/StructureDefinition/qicore-condition"]},"category":[{"coding":[{"system":"http://terminology.hl7.org/CodeSystem/condition-category","code":"encounter-diagnosis","display":"Encounter Diagnosis"}]}],"code":{"coding":[{"system":"http://snomed.info/sct","version":"2022-09","code":"169826009","display":"Single live birth (finding)","userSelected":true}]},"subject":{"reference":"Patient/c24efa29-0d0b-42d0-b07e-3c0ed4fcc873"},"recordedDate":"2026-10-17T08:00:00.000+00:00"},"request":{"method":"PUT","url":"Condition/528df337-ac51-4244-8229-4dc850c72519"}},{"fullUrl":"https://madie.cms.gov/Coverage/98cde5af-8eab-4c93-a9f1-6d41bd9dc014","resource":{"resourceType":"Coverage","id":"98cde5af-8eab-4c93-a9f1-6d41bd9dc014","meta":{"profile":["http://hl7.org/fhir/us/qicore/StructureDefinition/qicore-coverage"]},"status":"active","beneficiary":{"reference":"Patient/c24efa29-0d0b-42d0-b07e-3c0ed4fcc873"},"payor":[{"reference":"Organization/607fdef9-3983-4cef-ab1a-95434d29b463"}]},"request":{"method":"PUT","url":"Coverage/98cde5af-8eab-4c93-a9f1-6d41bd9dc014"}},{"fullUrl":"https://madie.cms.gov/Organization/e203537e-25fe-4661-9b3f-df754e9f4ca8","resource":{"resourceType":"Organization","id":"607fdef9-3983-4cef-ab1a-95434d29b463","meta":{"profile":["http://hl7.org/fhir/us/qicore/StructureDefinition/qicore-organization"]},"identifier":[{"use":"temp","system":"urn:oid:2.16.840.1.113883.4.4","value":"21-3259825"}],"active":true,"type":[{"coding":[{"system":"http://terminology.hl7.org/CodeSystem/organization-type","code":"pay","display":"Payer"}]}],"name":"Blue Cross Blue Shield of Texas","telecom":[{"system":"phone","value":"(+1) 972-766-6900"}],"address":[{"use":"billing","type":"postal","line":["P.O. Box 660044"],"city":"Dallas","state":"TX","postalCode":"75266-0044","country":"USA"}]},"request":{"method":"PUT","url":"Organization/607fdef9-3983-4cef-ab1a-95434d29b463"}},{"fullUrl":"https://madie.cms.gov/Practitioner/395ae291-1c3d-439b-9572-9c09aa49d899","resource":{"resourceType":"Practitioner","id":"395ae291-1c3d-439b-9572-9c09aa49d899","identifier":[{"system":"http://hl7.org/fhir/sid/us-npi","value":"123456"}],"name":[{"family":"Evil","prefix":["Dr"]}]},"request":{"method":"PUT","url":"Practitioner/395ae291-1c3d-439b-9572-9c09aa49d899"}},{"fullUrl":"https://madie.cms.gov/MeasureReport/5f79340e-61cb-437d-9b7e-ef2b542f88fe","resource":{"resourceType":"MeasureReport","id":"5f79340e-61cb-437d-9b7e-ef2b542f88fe","meta":{"profile":["http://hl7.org/fhir/us/cqfmeasures/StructureDefinition/test-case-cqfm"]},"contained":[{"resourceType":"Parameters","id":"929a36a6-f33b-4a93-adfe-3d06adf77e86-parameters","parameter":[{"name":"subject","valueString":"c24efa29-0d0b-42d0-b07e-3c0ed4fcc873"}]}],"extension":[{"url":"http://hl7.org/fhir/us/cqfmeasures/StructureDefinition/cqfm-inputParameters","valueReference":{"reference":"#929a36a6-f33b-4a93-adfe-3d06adf77e86-parameters"}},{"url":"http://hl7.org/fhir/us/cqfmeasures/StructureDefinition/cqfm-testCaseDescription","valueMarkdown":"EGA 43 weeks; Assessment performed Abnormal presentation relevant Period  before time of delivery and during Enc \n"}],"modifierExtension":[{"url":"http://hl7.org/fhir/us/cqfmeasures/StructureDefinition/cqfm-isTestCase","valueBoolean":true}],"status":"complete","type":"individual","measure":"https://madie.cms.gov/Measure/CMS334FHIRPCCesareanBirth","period":{"start":"2026-01-01","end":"2026-12-31"},"group":[{"population":[{"code":{"coding":[{"system":"http://terminology.hl7.org/CodeSystem/measure-population","code":"initial-population","display":"Initial Population"}]},"count":1},{"code":{"coding":[{"system":"http://terminology.hl7.org/CodeSystem/measure-population","code":"denominator","display":"Denominator"}]},"count":1},{"code":{"coding":[{"system":"http://terminology.hl7.org/CodeSystem/measure-population","code":"denominator-exclusion","display":"Denominator Exclusion"}]},"count":1},{"code":{"coding":[{"system":"http://terminology.hl7.org/CodeSystem/measure-population","code":"numerator","display":"Numerator"}]},"count":0}]}]},"request":{"method":"PUT","url":"MeasureReport/5f79340e-61cb-437d-9b7e-ef2b542f88fe"}}]}