{"resourceType":"Bundle","id":"tests-b07a53d3-c3a2-4cf8-ad34-3a4615dfe3d3-bundle","type":"transaction","entry":[{"fullUrl":"https://madie.cms.gov/Patient/b07a53d3-c3a2-4cf8-ad34-3a4615dfe3d3","resource":{"resourceType":"Patient","id":"b07a53d3-c3a2-4cf8-ad34-3a4615dfe3d3","meta":{"profile":["http://hl7.org/fhir/us/qicore/StructureDefinition/qicore-patient"]},"extension":[{"url":"http://hl7.org/fhir/us/core/StructureDefinition/us-core-race","extension":[{"url":"ombCategory","valueCoding":{"system":"urn:oid:2.16.840.1.113883.6.238","code":"1002-5","display":"American Indian or Alaska Native","userSelected":true}},{"url":"text","valueString":"American Indian or Alaska Native"}]},{"url":"http://hl7.org/fhir/us/core/StructureDefinition/us-core-ethnicity","extension":[{"url":"ombCategory","valueCoding":{"system":"urn:oid:2.16.840.1.113883.6.238","code":"2186-5","display":"Not Hispanic or Latino","userSelected":true}},{"url":"text","valueString":"Not Hispanic or Latino"}]}],"identifier":[{"type":{"coding":[{"system":"http://terminology.hl7.org/CodeSystem/v2-0203","code":"MR"}]},"system":"https://bonnie-fhir.healthit.gov/","value":"632326a2414ba67d4e1d1c26"}],"name":[{"family":"DENOMFail","given":["OpioidNoEncounterAge18"]}],"gender":"female","birthDate":"2005-01-01"},"request":{"method":"PUT","url":"Patient/b07a53d3-c3a2-4cf8-ad34-3a4615dfe3d3"}},{"fullUrl":"https://madie.cms.gov/MedicationRequest/0c776730-a3ab-48a3-a0d0-14bbbd79b782","resource":{"resourceType":"MedicationRequest","id":"0c776730-a3ab-48a3-a0d0-14bbbd79b782","meta":{"profile":["http://hl7.org/fhir/us/qicore/StructureDefinition/qicore-medicationrequest"]},"status":"active","intent":"plan","category":[{"coding":[{"system":"http://terminology.hl7.org/CodeSystem/medicationrequest-category","code":"community","display":"Community","userSelected":true}]}],"medicationCodeableConcept":{"coding":[{"system":"http://www.nlm.nih.gov/research/umls/rxnorm","code":"1014599","display":"acetaminophen 300 MG / oxycodone hydrochloride 10 MG Oral Tablet","userSelected":true}]},"subject":{"reference":"Patient/b07a53d3-c3a2-4cf8-ad34-3a4615dfe3d3"},"authoredOn":"2026-01-01T00:10:00.000+00:00","requester":{"reference":"Practitioner/f007","display":"Patrick Pump"}},"request":{"method":"PUT","url":"MedicationRequest/0c776730-a3ab-48a3-a0d0-14bbbd79b782"}},{"fullUrl":"https://madie.cms.gov/Coverage/b52821de-3f5d-4b78-b975-71065fd7e163","resource":{"resourceType":"Coverage","id":"b52821de-3f5d-4b78-b975-71065fd7e163","meta":{"profile":["http://hl7.org/fhir/us/qicore/StructureDefinition/qicore-coverage"]},"status":"active","beneficiary":{"reference":"Patient/b07a53d3-c3a2-4cf8-ad34-3a4615dfe3d3"},"payor":[{"reference":"Organization/4da248b0-6e59-49b7-b80e-338aa21d299f"}]},"request":{"method":"PUT","url":"Coverage/b52821de-3f5d-4b78-b975-71065fd7e163"}},{"fullUrl":"https://madie.cms.gov/Organization/6a109608-69bc-481b-847f-ff092ff64384","resource":{"resourceType":"Organization","id":"4da248b0-6e59-49b7-b80e-338aa21d299f","meta":{"profile":["http://hl7.org/fhir/us/qicore/StructureDefinition/qicore-organization"]},"identifier":[{"use":"temp","system":"urn:oid:2.16.840.1.113883.4.4","value":"21-3259825"}],"active":true,"type":[{"coding":[{"system":"http://terminology.hl7.org/CodeSystem/organization-type","code":"pay","display":"Payer"}]}],"name":"Blue Cross Blue Shield of Texas","telecom":[{"system":"phone","value":"(+1) 972-766-6900"}],"address":[{"use":"billing","type":"postal","line":["P.O. Box 660044"],"city":"Dallas","state":"TX","postalCode":"75266-0044","country":"USA"}]},"request":{"method":"PUT","url":"Organization/4da248b0-6e59-49b7-b80e-338aa21d299f"}},{"fullUrl":"https://madie.cms.gov/MeasureReport/72f6a35e-305a-4feb-866e-0f387681fb45","resource":{"resourceType":"MeasureReport","id":"72f6a35e-305a-4feb-866e-0f387681fb45","meta":{"profile":["http://hl7.org/fhir/us/cqfmeasures/StructureDefinition/test-case-cqfm"]},"contained":[{"resourceType":"Parameters","id":"e92fe007-c133-4825-b4df-adfbe31f0cb2-parameters","parameter":[{"name":"subject","valueString":"b07a53d3-c3a2-4cf8-ad34-3a4615dfe3d3"}]}],"extension":[{"url":"http://hl7.org/fhir/us/cqfmeasures/StructureDefinition/cqfm-inputParameters","valueReference":{"reference":"#e92fe007-c133-4825-b4df-adfbe31f0cb2-parameters"}},{"url":"http://hl7.org/fhir/us/cqfmeasures/StructureDefinition/cqfm-testCaseDescription","valueMarkdown":"No Encounter, age 18,  1 opioid prescribed on 1/1"}],"modifierExtension":[{"url":"http://hl7.org/fhir/us/cqfmeasures/StructureDefinition/cqfm-isTestCase","valueBoolean":true}],"status":"complete","type":"individual","measure":"https://madie.cms.gov/Measure/CMS506FHIRSafeUseofOpioids","period":{"start":"2026-01-01","end":"2026-12-31"},"group":[{"population":[{"code":{"coding":[{"system":"http://terminology.hl7.org/CodeSystem/measure-population","code":"initial-population","display":"Initial Population"}]},"count":0},{"code":{"coding":[{"system":"http://terminology.hl7.org/CodeSystem/measure-population","code":"denominator","display":"Denominator"}]},"count":0},{"code":{"coding":[{"system":"http://terminology.hl7.org/CodeSystem/measure-population","code":"denominator-exclusion","display":"Denominator Exclusion"}]},"count":0},{"code":{"coding":[{"system":"http://terminology.hl7.org/CodeSystem/measure-population","code":"numerator","display":"Numerator"}]},"count":0}]}]},"request":{"method":"PUT","url":"MeasureReport/72f6a35e-305a-4feb-866e-0f387681fb45"}}]}