{"resourceType":"Bundle","id":"tests-d1355827-93ec-465f-b776-b9129495acb7-bundle","type":"transaction","entry":[{"fullUrl":"https://madie.cms.gov/Patient/d1355827-93ec-465f-b776-b9129495acb7","resource":{"resourceType":"Patient","id":"d1355827-93ec-465f-b776-b9129495acb7","meta":{"profile":["http://hl7.org/fhir/us/qicore/StructureDefinition/qicore-patient"]},"extension":[{"url":"http://hl7.org/fhir/us/core/StructureDefinition/us-core-race","extension":[{"url":"ombCategory","valueCoding":{"system":"urn:oid:2.16.840.1.113883.6.238","code":"2106-3","display":"White","userSelected":true}},{"url":"text","valueString":"Other Race"}]},{"url":"http://hl7.org/fhir/us/core/StructureDefinition/us-core-ethnicity","extension":[{"url":"ombCategory","valueCoding":{"system":"urn:oid:2.16.840.1.113883.6.238","code":"2135-2","display":"Hispanic or Latino","userSelected":true}},{"url":"text","valueString":"Hispanic or Latino"}]}],"identifier":[{"type":{"coding":[{"system":"http://terminology.hl7.org/CodeSystem/v2-0203","code":"MR"}]},"system":"https://bonnie-fhir.healthit.gov/","value":"632336b2414ba67d4e1d1c36"}],"name":[{"family":"IPPFail","given":["EncounterAndBenzoAfterMP"]}],"gender":"male","birthDate":"2006-12-31"},"request":{"method":"PUT","url":"Patient/d1355827-93ec-465f-b776-b9129495acb7"}},{"fullUrl":"https://madie.cms.gov/Encounter/194927f4-1417-44bb-9d54-a4b2c660c84d","resource":{"resourceType":"Encounter","id":"194927f4-1417-44bb-9d54-a4b2c660c84d","meta":{"profile":["http://hl7.org/fhir/us/qicore/StructureDefinition/qicore-encounter"]},"status":"finished","class":{"system":"http://terminology.hl7.org/CodeSystem/v3-ActCode","code":"AMB","display":"ambulatory"},"type":[{"coding":[{"system":"http://snomed.info/sct","version":"2022-03","code":"183452005","display":"Emergency hospital admission (procedure)","userSelected":true}]}],"subject":{"reference":"Patient/d1355827-93ec-465f-b776-b9129495acb7"},"period":{"start":"2027-01-01T12:00:00.000+00:00","end":"2027-01-05T12:30:00.000+00:00"}},"request":{"method":"PUT","url":"Encounter/194927f4-1417-44bb-9d54-a4b2c660c84d"}},{"fullUrl":"https://madie.cms.gov/MedicationRequest/dedc74cb-e445-4d56-aab0-2577edc1b9d4","resource":{"resourceType":"MedicationRequest","id":"dedc74cb-e445-4d56-aab0-2577edc1b9d4","meta":{"profile":["http://hl7.org/fhir/us/qicore/StructureDefinition/qicore-medicationrequest"]},"status":"completed","intent":"order","category":[{"coding":[{"system":"http://terminology.hl7.org/CodeSystem/medicationrequest-category","code":"discharge","display":"Discharge","userSelected":true}]}],"doNotPerform":false,"medicationCodeableConcept":{"coding":[{"system":"http://www.nlm.nih.gov/research/umls/rxnorm","version":"2022-08","code":"1551393","display":"2 ML midazolam 5 MG/ML Prefilled Syringe","userSelected":true}]},"subject":{"reference":"Patient/d1355827-93ec-465f-b776-b9129495acb7"},"authoredOn":"2027-01-05T12:29:00.000+00:00","requester":{"reference":"Practitioner/f007","display":"Patrick Pump"}},"request":{"method":"PUT","url":"MedicationRequest/dedc74cb-e445-4d56-aab0-2577edc1b9d4"}},{"fullUrl":"https://madie.cms.gov/Coverage/3467637d-d5e0-4d4c-b229-3021a899450b","resource":{"resourceType":"Coverage","id":"3467637d-d5e0-4d4c-b229-3021a899450b","meta":{"profile":["http://hl7.org/fhir/us/qicore/StructureDefinition/qicore-coverage"]},"status":"active","beneficiary":{"reference":"Patient/d1355827-93ec-465f-b776-b9129495acb7"},"payor":[{"reference":"Organization/18ca435c-cae6-4c34-8033-af717477f9fc"}]},"request":{"method":"PUT","url":"Coverage/3467637d-d5e0-4d4c-b229-3021a899450b"}},{"fullUrl":"https://madie.cms.gov/Organization/a9a23815-2a66-4402-88e2-e5bba0fc9be9","resource":{"resourceType":"Organization","id":"18ca435c-cae6-4c34-8033-af717477f9fc","meta":{"profile":["http://hl7.org/fhir/us/qicore/StructureDefinition/qicore-organization"]},"identifier":[{"use":"temp","system":"urn:oid:2.16.840.1.113883.4.4","value":"21-3259825"}],"active":true,"type":[{"coding":[{"system":"http://terminology.hl7.org/CodeSystem/organization-type","code":"pay","display":"Payer"}]}],"name":"Blue Cross Blue Shield of Texas","telecom":[{"system":"phone","value":"(+1) 972-766-6900"}],"address":[{"use":"billing","type":"postal","line":["P.O. Box 660044"],"city":"Dallas","state":"TX","postalCode":"75266-0044","country":"USA"}]},"request":{"method":"PUT","url":"Organization/18ca435c-cae6-4c34-8033-af717477f9fc"}},{"fullUrl":"https://madie.cms.gov/MeasureReport/2c6adc29-4e73-4aea-a90a-336479a3f4dd","resource":{"resourceType":"MeasureReport","id":"2c6adc29-4e73-4aea-a90a-336479a3f4dd","meta":{"profile":["http://hl7.org/fhir/us/cqfmeasures/StructureDefinition/test-case-cqfm"]},"contained":[{"resourceType":"Parameters","id":"9c3003cd-e746-46cd-a07c-9db275083da3-parameters","parameter":[{"name":"subject","valueString":"d1355827-93ec-465f-b776-b9129495acb7"}]}],"extension":[{"url":"http://hl7.org/fhir/us/cqfmeasures/StructureDefinition/cqfm-inputParameters","valueReference":{"reference":"#9c3003cd-e746-46cd-a07c-9db275083da3-parameters"}},{"url":"http://hl7.org/fhir/us/cqfmeasures/StructureDefinition/cqfm-testCaseDescription","valueMarkdown":"Encounter and benzo (completed) first day of next year"}],"modifierExtension":[{"url":"http://hl7.org/fhir/us/cqfmeasures/StructureDefinition/cqfm-isTestCase","valueBoolean":true}],"status":"complete","type":"individual","measure":"https://madie.cms.gov/Measure/CMS506FHIRSafeUseofOpioids","period":{"start":"2026-01-01","end":"2026-12-31"},"group":[{"population":[{"code":{"coding":[{"system":"http://terminology.hl7.org/CodeSystem/measure-population","code":"initial-population","display":"Initial Population"}]},"count":0},{"code":{"coding":[{"system":"http://terminology.hl7.org/CodeSystem/measure-population","code":"denominator","display":"Denominator"}]},"count":0},{"code":{"coding":[{"system":"http://terminology.hl7.org/CodeSystem/measure-population","code":"denominator-exclusion","display":"Denominator Exclusion"}]},"count":0},{"code":{"coding":[{"system":"http://terminology.hl7.org/CodeSystem/measure-population","code":"numerator","display":"Numerator"}]},"count":0}]}]},"request":{"method":"PUT","url":"MeasureReport/2c6adc29-4e73-4aea-a90a-336479a3f4dd"}}]}