{"resourceType":"Bundle","id":"tests-1f3afad8-e147-4a67-a47a-059f1e13ab1a-bundle","type":"transaction","entry":[{"fullUrl":"https://madie.cms.gov/Patient/1f3afad8-e147-4a67-a47a-059f1e13ab1a","resource":{"resourceType":"Patient","id":"1f3afad8-e147-4a67-a47a-059f1e13ab1a","meta":{"profile":["http://hl7.org/fhir/us/qicore/StructureDefinition/qicore-patient"]},"extension":[{"url":"http://hl7.org/fhir/us/core/StructureDefinition/us-core-race","extension":[{"url":"ombCategory","valueCoding":{"system":"urn:oid:2.16.840.1.113883.6.238","code":"1002-5","display":"American Indian or Alaska Native","userSelected":true}},{"url":"text","valueString":"American Indian or Alaska Native"}]},{"url":"http://hl7.org/fhir/us/core/StructureDefinition/us-core-ethnicity","extension":[{"url":"ombCategory","valueCoding":{"system":"urn:oid:2.16.840.1.113883.6.238","code":"2135-2","display":"Hispanic or Latino","userSelected":true}},{"url":"text","valueString":"Hispanic or Latino"}]}],"identifier":[{"type":{"coding":[{"system":"http://terminology.hl7.org/CodeSystem/v2-0203","code":"MR"}]},"system":"https://bonnie-fhir.healthit.gov/","value":"63233710414ba67d4e1d1c37"}],"name":[{"family":"DENOMFail","given":["Age17Years11Months"]}],"gender":"male","birthDate":"2006-09-16"},"request":{"method":"PUT","url":"Patient/1f3afad8-e147-4a67-a47a-059f1e13ab1a"}},{"fullUrl":"https://madie.cms.gov/Encounter/97a68630-d8ed-4ed5-bf37-876dff9a8d53","resource":{"resourceType":"Encounter","id":"97a68630-d8ed-4ed5-bf37-876dff9a8d53","meta":{"profile":["http://hl7.org/fhir/us/qicore/StructureDefinition/qicore-encounter"]},"status":"finished","class":{"system":"http://terminology.hl7.org/CodeSystem/v3-ActCode","code":"AMB","display":"ambulatory"},"type":[{"coding":[{"system":"http://snomed.info/sct","version":"2022-03","code":"183452005","display":"Emergency hospital admission (procedure)","userSelected":true}]}],"subject":{"reference":"Patient/1f3afad8-e147-4a67-a47a-059f1e13ab1a"},"period":{"start":"2024-01-01T08:00:00.000+00:00","end":"2024-01-03T10:00:00.000+00:00"}},"request":{"method":"PUT","url":"Encounter/97a68630-d8ed-4ed5-bf37-876dff9a8d53"}},{"fullUrl":"https://madie.cms.gov/MedicationRequest/832d9b7b-52c3-4ed1-91bb-65416ac51db1","resource":{"resourceType":"MedicationRequest","id":"832d9b7b-52c3-4ed1-91bb-65416ac51db1","meta":{"profile":["http://hl7.org/fhir/us/qicore/StructureDefinition/qicore-medicationrequest"]},"status":"active","intent":"plan","category":[{"coding":[{"system":"http://terminology.hl7.org/CodeSystem/medicationrequest-category","code":"discharge","display":"Discharge","userSelected":true}]}],"medicationCodeableConcept":{"coding":[{"system":"http://www.nlm.nih.gov/research/umls/rxnorm","version":"2022-08","code":"1014632","display":"acetaminophen 300 MG / oxycodone hydrochloride 7.5 MG Oral Tablet","userSelected":true}]},"subject":{"reference":"Patient/1f3afad8-e147-4a67-a47a-059f1e13ab1a"},"authoredOn":"2024-01-03T08:00:00.000+00:00","requester":{"reference":"Practitioner/f007","display":"Patrick Pump"}},"request":{"method":"PUT","url":"MedicationRequest/832d9b7b-52c3-4ed1-91bb-65416ac51db1"}},{"fullUrl":"https://madie.cms.gov/Coverage/0a9d2b87-7740-4156-96ba-0a96b6e3d2c8","resource":{"resourceType":"Coverage","id":"0a9d2b87-7740-4156-96ba-0a96b6e3d2c8","meta":{"profile":["http://hl7.org/fhir/us/qicore/StructureDefinition/qicore-coverage"]},"status":"active","beneficiary":{"reference":"Patient/1f3afad8-e147-4a67-a47a-059f1e13ab1a"},"payor":[{"reference":"Organization/db141f66-a1cc-407b-9e95-adac27adee14"}]},"request":{"method":"PUT","url":"Coverage/0a9d2b87-7740-4156-96ba-0a96b6e3d2c8"}},{"fullUrl":"https://madie.cms.gov/Organization/455479ed-9086-4d4b-b1e5-725549ccab74","resource":{"resourceType":"Organization","id":"db141f66-a1cc-407b-9e95-adac27adee14","meta":{"profile":["http://hl7.org/fhir/us/qicore/StructureDefinition/qicore-organization"]},"identifier":[{"use":"temp","system":"urn:oid:2.16.840.1.113883.4.4","value":"21-3259825"}],"active":true,"type":[{"coding":[{"system":"http://terminology.hl7.org/CodeSystem/organization-type","code":"pay","display":"Payer"}]}],"name":"Blue Cross Blue Shield of Texas","telecom":[{"system":"phone","value":"(+1) 972-766-6900"}],"address":[{"use":"billing","type":"postal","line":["P.O. Box 660044"],"city":"Dallas","state":"TX","postalCode":"75266-0044","country":"USA"}]},"request":{"method":"PUT","url":"Organization/db141f66-a1cc-407b-9e95-adac27adee14"}},{"fullUrl":"https://madie.cms.gov/MeasureReport/eeaba805-1958-4911-b4b7-24d04ad7a9ce","resource":{"resourceType":"MeasureReport","id":"eeaba805-1958-4911-b4b7-24d04ad7a9ce","meta":{"profile":["http://hl7.org/fhir/us/cqfmeasures/StructureDefinition/test-case-cqfm"]},"contained":[{"resourceType":"Parameters","id":"3dc5d6bf-4126-4a88-807a-4b64343bd3cc-parameters","parameter":[{"name":"subject","valueString":"1f3afad8-e147-4a67-a47a-059f1e13ab1a"}]}],"extension":[{"url":"http://hl7.org/fhir/us/cqfmeasures/StructureDefinition/cqfm-inputParameters","valueReference":{"reference":"#3dc5d6bf-4126-4a88-807a-4b64343bd3cc-parameters"}},{"url":"http://hl7.org/fhir/us/cqfmeasures/StructureDefinition/cqfm-testCaseDescription","valueMarkdown":"Encounter  1/1 - 1/3 of MP, age 17 years, 11 months, one opioid prescribed on day of discharge."}],"modifierExtension":[{"url":"http://hl7.org/fhir/us/cqfmeasures/StructureDefinition/cqfm-isTestCase","valueBoolean":true}],"status":"complete","type":"individual","measure":"https://madie.cms.gov/Measure/CMS506FHIRSafeUseofOpioids","period":{"start":"2026-01-01","end":"2026-12-31"},"group":[{"population":[{"code":{"coding":[{"system":"http://terminology.hl7.org/CodeSystem/measure-population","code":"initial-population","display":"Initial Population"}]},"count":0},{"code":{"coding":[{"system":"http://terminology.hl7.org/CodeSystem/measure-population","code":"denominator","display":"Denominator"}]},"count":0},{"code":{"coding":[{"system":"http://terminology.hl7.org/CodeSystem/measure-population","code":"denominator-exclusion","display":"Denominator Exclusion"}]},"count":0},{"code":{"coding":[{"system":"http://terminology.hl7.org/CodeSystem/measure-population","code":"numerator","display":"Numerator"}]},"count":0}]}]},"request":{"method":"PUT","url":"MeasureReport/eeaba805-1958-4911-b4b7-24d04ad7a9ce"}}]}