{"resourceType":"Bundle","id":"tests-b92d0b5a-a019-4023-9e0b-50a0e5248d07-bundle","type":"transaction","entry":[{"fullUrl":"https://madie.cms.gov/Patient/b92d0b5a-a019-4023-9e0b-50a0e5248d07","resource":{"resourceType":"Patient","id":"b92d0b5a-a019-4023-9e0b-50a0e5248d07","meta":{"profile":["http://hl7.org/fhir/us/qicore/StructureDefinition/qicore-patient"]},"extension":[{"url":"http://hl7.org/fhir/us/core/StructureDefinition/us-core-race","extension":[{"url":"ombCategory","valueCoding":{"system":"urn:oid:2.16.840.1.113883.6.238","code":"1002-5","display":"American Indian or Alaska Native","userSelected":true}},{"url":"text","valueString":"American Indian or Alaska Native"}]},{"url":"http://hl7.org/fhir/us/core/StructureDefinition/us-core-ethnicity","extension":[{"url":"ombCategory","valueCoding":{"system":"urn:oid:2.16.840.1.113883.6.238","code":"2135-2","display":"Hispanic or Latino","userSelected":true}},{"url":"text","valueString":"Hispanic or Latino"}]}],"identifier":[{"type":{"coding":[{"system":"http://terminology.hl7.org/CodeSystem/v2-0203","code":"MR"}]},"system":"https://bonnie-fhir.healthit.gov/","value":"63232f15414ba67d4e1d1c29"}],"name":[{"family":"DENEXPass","given":["ProcedurePalliativeCare"]}],"gender":"male","birthDate":"2006-12-31"},"request":{"method":"PUT","url":"Patient/b92d0b5a-a019-4023-9e0b-50a0e5248d07"}},{"fullUrl":"https://madie.cms.gov/Encounter/16f09b28-3a47-41f2-bdaa-f0a79565c66f","resource":{"resourceType":"Encounter","id":"16f09b28-3a47-41f2-bdaa-f0a79565c66f","meta":{"profile":["http://hl7.org/fhir/us/qicore/StructureDefinition/qicore-encounter"]},"status":"finished","class":{"system":"http://terminology.hl7.org/CodeSystem/v3-ActCode","code":"IMP","display":"inpatient"},"type":[{"coding":[{"system":"http://snomed.info/sct","version":"2022-03","code":"183452005","display":"Emergency hospital admission (procedure)","userSelected":true}]}],"subject":{"reference":"Patient/b92d0b5a-a019-4023-9e0b-50a0e5248d07"},"period":{"start":"2026-01-01T00:00:00.000+00:00","end":"2026-01-03T00:35:00.000+00:00"}},"request":{"method":"PUT","url":"Encounter/16f09b28-3a47-41f2-bdaa-f0a79565c66f"}},{"fullUrl":"https://madie.cms.gov/MedicationRequest/71aa0508-7876-45f7-a1a9-1b746482e5da","resource":{"resourceType":"MedicationRequest","id":"71aa0508-7876-45f7-a1a9-1b746482e5da","meta":{"profile":["http://hl7.org/fhir/us/qicore/StructureDefinition/qicore-medicationrequest"]},"status":"active","intent":"order","category":[{"coding":[{"system":"http://terminology.hl7.org/CodeSystem/medicationrequest-category","code":"discharge","display":"Discharge","userSelected":true}]}],"doNotPerform":false,"medicationCodeableConcept":{"coding":[{"system":"http://www.nlm.nih.gov/research/umls/rxnorm","code":"1298088","display":"flurazepam hydrochloride 15 MG Oral Capsule","userSelected":true}]},"subject":{"reference":"Patient/b92d0b5a-a019-4023-9e0b-50a0e5248d07"},"authoredOn":"2026-01-03T00:05:00.000+00:00","requester":{"reference":"Practitioner/f007","display":"Patrick Pump"}},"request":{"method":"PUT","url":"MedicationRequest/71aa0508-7876-45f7-a1a9-1b746482e5da"}},{"fullUrl":"https://madie.cms.gov/Procedure/9ab960cb-87b8-491d-b8cb-0eb3b0f52e8f","resource":{"resourceType":"Procedure","id":"9ab960cb-87b8-491d-b8cb-0eb3b0f52e8f","meta":{"profile":["http://hl7.org/fhir/us/qicore/StructureDefinition/qicore-procedure"]},"extension":[{"url":"http://hl7.org/fhir/us/qicore/StructureDefinition/qicore-recorded","valueDateTime":"2026-01-03T00:10:00.000+00:00"}],"status":"completed","code":{"coding":[{"system":"http://snomed.info/sct","version":"2022-03","code":"103735009","display":"Palliative care (regime/therapy)","userSelected":true}]},"subject":{"reference":"Patient/b92d0b5a-a019-4023-9e0b-50a0e5248d07"},"performedDateTime":"2026-01-01T00:10:00.000+00:00"},"request":{"method":"PUT","url":"Procedure/9ab960cb-87b8-491d-b8cb-0eb3b0f52e8f"}},{"fullUrl":"https://madie.cms.gov/Coverage/877dc1ab-67df-4687-8e11-92724ea01813","resource":{"resourceType":"Coverage","id":"877dc1ab-67df-4687-8e11-92724ea01813","meta":{"profile":["http://hl7.org/fhir/us/qicore/StructureDefinition/qicore-coverage"]},"status":"active","beneficiary":{"reference":"Patient/b92d0b5a-a019-4023-9e0b-50a0e5248d07"},"payor":[{"reference":"Organization/a6c3e6fa-301e-4714-9d04-3dde9a7e7c49"}]},"request":{"method":"PUT","url":"Coverage/877dc1ab-67df-4687-8e11-92724ea01813"}},{"fullUrl":"https://madie.cms.gov/Organization/e3e41f93-e358-44fd-b462-07b17614ed8a","resource":{"resourceType":"Organization","id":"a6c3e6fa-301e-4714-9d04-3dde9a7e7c49","meta":{"profile":["http://hl7.org/fhir/us/qicore/StructureDefinition/qicore-organization"]},"identifier":[{"use":"temp","system":"urn:oid:2.16.840.1.113883.4.4","value":"21-3259825"}],"active":true,"type":[{"coding":[{"system":"http://terminology.hl7.org/CodeSystem/organization-type","code":"pay","display":"Payer"}]}],"name":"Blue Cross Blue Shield of Texas","telecom":[{"system":"phone","value":"(+1) 972-766-6900"}],"address":[{"use":"billing","type":"postal","line":["P.O. Box 660044"],"city":"Dallas","state":"TX","postalCode":"75266-0044","country":"USA"}]},"request":{"method":"PUT","url":"Organization/a6c3e6fa-301e-4714-9d04-3dde9a7e7c49"}},{"fullUrl":"https://madie.cms.gov/MeasureReport/31afda3b-b212-4192-b9ae-4d81403b6237","resource":{"resourceType":"MeasureReport","id":"31afda3b-b212-4192-b9ae-4d81403b6237","meta":{"profile":["http://hl7.org/fhir/us/cqfmeasures/StructureDefinition/test-case-cqfm"]},"contained":[{"resourceType":"Parameters","id":"4f6e36f7-f6b1-43c7-8604-7295d31def38-parameters","parameter":[{"name":"subject","valueString":"b92d0b5a-a019-4023-9e0b-50a0e5248d07"}]}],"extension":[{"url":"http://hl7.org/fhir/us/cqfmeasures/StructureDefinition/cqfm-inputParameters","valueReference":{"reference":"#4f6e36f7-f6b1-43c7-8604-7295d31def38-parameters"}},{"url":"http://hl7.org/fhir/us/cqfmeasures/StructureDefinition/cqfm-testCaseDescription","valueMarkdown":"Encounter 1/1 - 1/3 , age 18 one day before encounter, Procedure Palliative care performed 1/1 during enc"}],"modifierExtension":[{"url":"http://hl7.org/fhir/us/cqfmeasures/StructureDefinition/cqfm-isTestCase","valueBoolean":true}],"status":"complete","type":"individual","measure":"https://madie.cms.gov/Measure/CMS506FHIRSafeUseofOpioids","period":{"start":"2026-01-01","end":"2026-12-31"},"group":[{"population":[{"code":{"coding":[{"system":"http://terminology.hl7.org/CodeSystem/measure-population","code":"initial-population","display":"Initial Population"}]},"count":1},{"code":{"coding":[{"system":"http://terminology.hl7.org/CodeSystem/measure-population","code":"denominator","display":"Denominator"}]},"count":1},{"code":{"coding":[{"system":"http://terminology.hl7.org/CodeSystem/measure-population","code":"denominator-exclusion","display":"Denominator Exclusion"}]},"count":1},{"code":{"coding":[{"system":"http://terminology.hl7.org/CodeSystem/measure-population","code":"numerator","display":"Numerator"}]},"count":0}]}]},"request":{"method":"PUT","url":"MeasureReport/31afda3b-b212-4192-b9ae-4d81403b6237"}}]}