{"resourceType":"Bundle","id":"tests-6bbda026-cf4e-4843-91cd-30e8e052fc43-bundle","type":"transaction","entry":[{"fullUrl":"https://madie.cms.gov/Patient/6bbda026-cf4e-4843-91cd-30e8e052fc43","resource":{"resourceType":"Patient","id":"6bbda026-cf4e-4843-91cd-30e8e052fc43","meta":{"profile":["http://hl7.org/fhir/us/qicore/StructureDefinition/qicore-patient"]},"extension":[{"url":"http://hl7.org/fhir/us/core/StructureDefinition/us-core-race","extension":[{"url":"ombCategory","valueCoding":{"system":"urn:oid:2.16.840.1.113883.6.238","code":"2054-5","display":"Black or African American","userSelected":true}},{"url":"text","valueString":"Black or African American"}]},{"url":"http://hl7.org/fhir/us/core/StructureDefinition/us-core-ethnicity","extension":[{"url":"ombCategory","valueCoding":{"system":"urn:oid:2.16.840.1.113883.6.238","code":"2186-5","display":"Not Hispanic or Latino","userSelected":true}},{"url":"text","valueString":"Not Hispanic or Latino"}]}],"identifier":[{"type":{"coding":[{"system":"http://terminology.hl7.org/CodeSystem/v2-0203","code":"MR"}]},"system":"https://bonnie-fhir.healthit.gov/","value":"632368e98d26c655c5601f01"}],"name":[{"family":"NUMERPass","given":["OpioidAndBenzodiazepine"]}],"gender":"female","birthDate":"2006-12-31"},"request":{"method":"PUT","url":"Patient/6bbda026-cf4e-4843-91cd-30e8e052fc43"}},{"fullUrl":"https://madie.cms.gov/Encounter/0f772364-806a-4053-b0f0-6545945f423b","resource":{"resourceType":"Encounter","id":"0f772364-806a-4053-b0f0-6545945f423b","meta":{"profile":["http://hl7.org/fhir/us/qicore/StructureDefinition/qicore-encounter"]},"status":"finished","class":{"system":"http://terminology.hl7.org/CodeSystem/v3-ActCode","code":"IMP","display":"inpatient"},"type":[{"coding":[{"system":"http://snomed.info/sct","version":"2022-03","code":"183452005","display":"Emergency hospital admission (procedure)","userSelected":true}]}],"subject":{"reference":"Patient/6bbda026-cf4e-4843-91cd-30e8e052fc43"},"period":{"start":"2026-01-01T00:00:00.000+00:00","end":"2026-01-02T00:15:00.000+00:00"}},"request":{"method":"PUT","url":"Encounter/0f772364-806a-4053-b0f0-6545945f423b"}},{"fullUrl":"https://madie.cms.gov/MedicationRequest/84939ae9-c295-46d2-ac11-7d64eb0de9bf","resource":{"resourceType":"MedicationRequest","id":"84939ae9-c295-46d2-ac11-7d64eb0de9bf","meta":{"profile":["http://hl7.org/fhir/us/qicore/StructureDefinition/qicore-medicationrequest"]},"status":"active","intent":"order","category":[{"coding":[{"system":"http://terminology.hl7.org/CodeSystem/medicationrequest-category","code":"community","display":"Community","userSelected":true}]}],"doNotPerform":false,"medicationCodeableConcept":{"coding":[{"system":"http://www.nlm.nih.gov/research/umls/rxnorm","version":"2022-08","code":"1014632","display":"acetaminophen 300 MG / oxycodone hydrochloride 7.5 MG Oral Tablet","userSelected":true}]},"subject":{"reference":"Patient/6bbda026-cf4e-4843-91cd-30e8e052fc43"},"authoredOn":"2026-01-02T00:15:00.000+00:00","requester":{"reference":"Practitioner/f007","display":"Patrick Pump"}},"request":{"method":"PUT","url":"MedicationRequest/84939ae9-c295-46d2-ac11-7d64eb0de9bf"}},{"fullUrl":"https://madie.cms.gov/MedicationRequest/6ad28b19-5b9e-4e2f-b094-bf28bc7b2848","resource":{"resourceType":"MedicationRequest","id":"6ad28b19-5b9e-4e2f-b094-bf28bc7b2848","meta":{"profile":["http://hl7.org/fhir/us/qicore/StructureDefinition/qicore-medicationrequest"]},"status":"active","intent":"order","category":[{"coding":[{"system":"http://terminology.hl7.org/CodeSystem/medicationrequest-category","code":"community","display":"Community","userSelected":true}]}],"doNotPerform":false,"medicationCodeableConcept":{"coding":[{"system":"http://www.nlm.nih.gov/research/umls/rxnorm","code":"1298088","display":"flurazepam hydrochloride 15 MG Oral Capsule","userSelected":true}]},"subject":{"reference":"Patient/6bbda026-cf4e-4843-91cd-30e8e052fc43"},"authoredOn":"2026-01-02T00:10:00.000+00:00","requester":{"reference":"Practitioner/f007","display":"Patrick Pump"}},"request":{"method":"PUT","url":"MedicationRequest/6ad28b19-5b9e-4e2f-b094-bf28bc7b2848"}},{"fullUrl":"https://madie.cms.gov/Coverage/6ed1adbd-7fb9-4536-a42c-1837e1650639","resource":{"resourceType":"Coverage","id":"6ed1adbd-7fb9-4536-a42c-1837e1650639","meta":{"profile":["http://hl7.org/fhir/us/qicore/StructureDefinition/qicore-coverage"]},"status":"active","beneficiary":{"reference":"Patient/6bbda026-cf4e-4843-91cd-30e8e052fc43"},"payor":[{"reference":"Organization/5224cb12-ed64-4d6d-ab28-40a64f0800f1"}]},"request":{"method":"PUT","url":"Coverage/6ed1adbd-7fb9-4536-a42c-1837e1650639"}},{"fullUrl":"https://madie.cms.gov/Organization/d0cbff54-a9b1-4ce5-b1b6-bfb5cc2941e0","resource":{"resourceType":"Organization","id":"5224cb12-ed64-4d6d-ab28-40a64f0800f1","meta":{"profile":["http://hl7.org/fhir/us/qicore/StructureDefinition/qicore-organization"]},"identifier":[{"use":"temp","system":"urn:oid:2.16.840.1.113883.4.4","value":"21-3259825"}],"active":true,"type":[{"coding":[{"system":"http://terminology.hl7.org/CodeSystem/organization-type","code":"pay","display":"Payer"}]}],"name":"Blue Cross Blue Shield of Texas","telecom":[{"system":"phone","value":"(+1) 972-766-6900"}],"address":[{"use":"billing","type":"postal","line":["P.O. Box 660044"],"city":"Dallas","state":"TX","postalCode":"75266-0044","country":"USA"}]},"request":{"method":"PUT","url":"Organization/5224cb12-ed64-4d6d-ab28-40a64f0800f1"}},{"fullUrl":"https://madie.cms.gov/MeasureReport/e412973c-ecff-4f67-82dc-42933b52ed0e","resource":{"resourceType":"MeasureReport","id":"e412973c-ecff-4f67-82dc-42933b52ed0e","meta":{"profile":["http://hl7.org/fhir/us/cqfmeasures/StructureDefinition/test-case-cqfm"]},"contained":[{"resourceType":"Parameters","id":"ba5659cb-d0fc-4a03-8951-55d9c3c3316f-parameters","parameter":[{"name":"subject","valueString":"6bbda026-cf4e-4843-91cd-30e8e052fc43"}]}],"extension":[{"url":"http://hl7.org/fhir/us/cqfmeasures/StructureDefinition/cqfm-inputParameters","valueReference":{"reference":"#ba5659cb-d0fc-4a03-8951-55d9c3c3316f-parameters"}},{"url":"http://hl7.org/fhir/us/cqfmeasures/StructureDefinition/cqfm-testCaseDescription","valueMarkdown":"Encounter 01/01,  00:00 - 1/2 00:15, age 18, opioid and benzodiazepines at discharge on 1/2"}],"modifierExtension":[{"url":"http://hl7.org/fhir/us/cqfmeasures/StructureDefinition/cqfm-isTestCase","valueBoolean":true}],"status":"complete","type":"individual","measure":"https://madie.cms.gov/Measure/CMS506FHIRSafeUseofOpioids","period":{"start":"2026-01-01","end":"2026-12-31"},"group":[{"population":[{"code":{"coding":[{"system":"http://terminology.hl7.org/CodeSystem/measure-population","code":"initial-population","display":"Initial Population"}]},"count":1},{"code":{"coding":[{"system":"http://terminology.hl7.org/CodeSystem/measure-population","code":"denominator","display":"Denominator"}]},"count":1},{"code":{"coding":[{"system":"http://terminology.hl7.org/CodeSystem/measure-population","code":"denominator-exclusion","display":"Denominator Exclusion"}]},"count":0},{"code":{"coding":[{"system":"http://terminology.hl7.org/CodeSystem/measure-population","code":"numerator","display":"Numerator"}]},"count":1}]}]},"request":{"method":"PUT","url":"MeasureReport/e412973c-ecff-4f67-82dc-42933b52ed0e"}}]}