{"resourceType":"Bundle","id":"tests-f8bc4adf-30b1-405a-89a2-385b302e0106-bundle","type":"transaction","entry":[{"fullUrl":"https://madie.cms.gov/Patient/f8bc4adf-30b1-405a-89a2-385b302e0106","resource":{"resourceType":"Patient","id":"f8bc4adf-30b1-405a-89a2-385b302e0106","meta":{"profile":["http://hl7.org/fhir/us/qicore/StructureDefinition/qicore-patient"]},"extension":[{"url":"http://hl7.org/fhir/us/core/StructureDefinition/us-core-race","extension":[{"url":"ombCategory","valueCoding":{"system":"urn:oid:2.16.840.1.113883.6.238","code":"1002-5","display":"American Indian or Alaska Native","userSelected":true}},{"url":"text","valueString":"American Indian or Alaska Native"}]},{"url":"http://hl7.org/fhir/us/core/StructureDefinition/us-core-ethnicity","extension":[{"url":"ombCategory","valueCoding":{"system":"urn:oid:2.16.840.1.113883.6.238","code":"2135-2","display":"Hispanic or Latino","userSelected":true}},{"url":"text","valueString":"Hispanic or Latino"}]}],"identifier":[{"type":{"coding":[{"system":"http://terminology.hl7.org/CodeSystem/v2-0203","code":"MR"}]},"system":"https://bonnie-fhir.healthit.gov/","value":"63233588414ba67d4e1d1c34"}],"name":[{"family":"DENEXFail","given":["OrderForPalliativeCareB4Enc"]}],"gender":"male","birthDate":"2006-02-01"},"request":{"method":"PUT","url":"Patient/f8bc4adf-30b1-405a-89a2-385b302e0106"}},{"fullUrl":"https://madie.cms.gov/Encounter/47069690-402f-4fcb-9a36-b774d6dc78c5","resource":{"resourceType":"Encounter","id":"47069690-402f-4fcb-9a36-b774d6dc78c5","meta":{"profile":["http://hl7.org/fhir/us/qicore/StructureDefinition/qicore-encounter"]},"status":"finished","class":{"system":"http://terminology.hl7.org/CodeSystem/v3-ActCode","code":"AMB","display":"ambulatory"},"type":[{"coding":[{"system":"http://snomed.info/sct","version":"2022-03","code":"183452005","display":"Emergency hospital admission (procedure)","userSelected":true}]}],"subject":{"reference":"Patient/f8bc4adf-30b1-405a-89a2-385b302e0106"},"period":{"start":"2026-12-29T23:45:00.000+00:00","end":"2026-12-31T23:59:00.000+00:00"}},"request":{"method":"PUT","url":"Encounter/47069690-402f-4fcb-9a36-b774d6dc78c5"}},{"fullUrl":"https://madie.cms.gov/MedicationRequest/e85e0c7b-810a-4e65-9e34-36e10f83d67d","resource":{"resourceType":"MedicationRequest","id":"e85e0c7b-810a-4e65-9e34-36e10f83d67d","meta":{"profile":["http://hl7.org/fhir/us/qicore/StructureDefinition/qicore-medicationrequest"]},"status":"active","intent":"order","category":[{"coding":[{"system":"http://terminology.hl7.org/CodeSystem/medicationrequest-category","code":"discharge","display":"Discharge","userSelected":true}]}],"doNotPerform":false,"medicationCodeableConcept":{"coding":[{"system":"http://www.nlm.nih.gov/research/umls/rxnorm","code":"1298088","display":"flurazepam hydrochloride 15 MG Oral Capsule","userSelected":true}]},"subject":{"reference":"Patient/f8bc4adf-30b1-405a-89a2-385b302e0106"},"authoredOn":"2026-12-31T23:59:00.000+00:00","requester":{"reference":"Practitioner/f007","display":"Patrick Pump"}},"request":{"method":"PUT","url":"MedicationRequest/e85e0c7b-810a-4e65-9e34-36e10f83d67d"}},{"fullUrl":"https://madie.cms.gov/ServiceRequest/df7746ab-0e78-42da-96ae-6f65dc9478a3","resource":{"resourceType":"ServiceRequest","id":"df7746ab-0e78-42da-96ae-6f65dc9478a3","meta":{"profile":["http://hl7.org/fhir/us/qicore/StructureDefinition/qicore-servicerequest"]},"status":"active","intent":"order","code":{"coding":[{"system":"http://snomed.info/sct","version":"2022-03","code":"103735009","display":"Palliative care (regime/therapy)","userSelected":true}]},"subject":{"reference":"Patient/f8bc4adf-30b1-405a-89a2-385b302e0106"},"authoredOn":"2026-01-01T00:55:00.000+00:00"},"request":{"method":"PUT","url":"ServiceRequest/df7746ab-0e78-42da-96ae-6f65dc9478a3"}},{"fullUrl":"https://madie.cms.gov/Coverage/829db6f3-17c0-436f-9407-8b115d54a15b","resource":{"resourceType":"Coverage","id":"829db6f3-17c0-436f-9407-8b115d54a15b","meta":{"profile":["http://hl7.org/fhir/us/qicore/StructureDefinition/qicore-coverage"]},"status":"active","beneficiary":{"reference":"Patient/f8bc4adf-30b1-405a-89a2-385b302e0106"},"payor":[{"reference":"Organization/ec8cac12-7dd8-4c6e-8c44-d6c645085c80"}]},"request":{"method":"PUT","url":"Coverage/829db6f3-17c0-436f-9407-8b115d54a15b"}},{"fullUrl":"https://madie.cms.gov/Organization/b9f27b74-79c5-4dbf-8673-4a6c51bbc136","resource":{"resourceType":"Organization","id":"ec8cac12-7dd8-4c6e-8c44-d6c645085c80","meta":{"profile":["http://hl7.org/fhir/us/qicore/StructureDefinition/qicore-organization"]},"identifier":[{"use":"temp","system":"urn:oid:2.16.840.1.113883.4.4","value":"21-3259825"}],"active":true,"type":[{"coding":[{"system":"http://terminology.hl7.org/CodeSystem/organization-type","code":"pay","display":"Payer"}]}],"name":"Blue Cross Blue Shield of Texas","telecom":[{"system":"phone","value":"(+1) 972-766-6900"}],"address":[{"use":"billing","type":"postal","line":["P.O. Box 660044"],"city":"Dallas","state":"TX","postalCode":"75266-0044","country":"USA"}]},"request":{"method":"PUT","url":"Organization/ec8cac12-7dd8-4c6e-8c44-d6c645085c80"}},{"fullUrl":"https://madie.cms.gov/MeasureReport/7069e830-1cd7-4363-a0fa-c797c400200f","resource":{"resourceType":"MeasureReport","id":"7069e830-1cd7-4363-a0fa-c797c400200f","meta":{"profile":["http://hl7.org/fhir/us/cqfmeasures/StructureDefinition/test-case-cqfm"]},"contained":[{"resourceType":"Parameters","id":"59759e45-3135-4867-8283-4006e351552f-parameters","parameter":[{"name":"subject","valueString":"f8bc4adf-30b1-405a-89a2-385b302e0106"}]}],"extension":[{"url":"http://hl7.org/fhir/us/cqfmeasures/StructureDefinition/cqfm-inputParameters","valueReference":{"reference":"#59759e45-3135-4867-8283-4006e351552f-parameters"}},{"url":"http://hl7.org/fhir/us/cqfmeasures/StructureDefinition/cqfm-testCaseDescription","valueMarkdown":"Encounter 12/29 - 12/31, 23:45 -23:59, age 18, opioids, order for palliative care 1 day before encounter"}],"modifierExtension":[{"url":"http://hl7.org/fhir/us/cqfmeasures/StructureDefinition/cqfm-isTestCase","valueBoolean":true}],"status":"complete","type":"individual","measure":"https://madie.cms.gov/Measure/CMS506FHIRSafeUseofOpioids","period":{"start":"2026-01-01","end":"2026-12-31"},"group":[{"population":[{"code":{"coding":[{"system":"http://terminology.hl7.org/CodeSystem/measure-population","code":"initial-population","display":"Initial Population"}]},"count":1},{"code":{"coding":[{"system":"http://terminology.hl7.org/CodeSystem/measure-population","code":"denominator","display":"Denominator"}]},"count":1},{"code":{"coding":[{"system":"http://terminology.hl7.org/CodeSystem/measure-population","code":"denominator-exclusion","display":"Denominator Exclusion"}]},"count":0},{"code":{"coding":[{"system":"http://terminology.hl7.org/CodeSystem/measure-population","code":"numerator","display":"Numerator"}]},"count":0}]}]},"request":{"method":"PUT","url":"MeasureReport/7069e830-1cd7-4363-a0fa-c797c400200f"}}]}