{"resourceType":"Bundle","id":"tests-5c316557-a562-48e4-94fd-76c02ddc388f-bundle","type":"transaction","entry":[{"fullUrl":"https://madie.cms.gov/Patient/5c316557-a562-48e4-94fd-76c02ddc388f","resource":{"resourceType":"Patient","id":"5c316557-a562-48e4-94fd-76c02ddc388f","meta":{"profile":["http://hl7.org/fhir/us/qicore/StructureDefinition/qicore-patient"]},"extension":[{"url":"http://hl7.org/fhir/us/core/StructureDefinition/us-core-race","extension":[{"url":"ombCategory","valueCoding":{"system":"urn:oid:2.16.840.1.113883.6.238","code":"1002-5","display":"American Indian or Alaska Native","userSelected":true}},{"url":"text","valueString":"American Indian or Alaska Native"}]},{"url":"http://hl7.org/fhir/us/core/StructureDefinition/us-core-ethnicity","extension":[{"url":"ombCategory","valueCoding":{"system":"urn:oid:2.16.840.1.113883.6.238","code":"2135-2","display":"Hispanic or Latino","userSelected":true}},{"url":"text","valueString":"Hispanic or Latino"}]}],"identifier":[{"type":{"coding":[{"system":"http://terminology.hl7.org/CodeSystem/v2-0203","code":"MR"}]},"system":"https://bonnie-fhir.healthit.gov/","value":"6323489059967e30c06d0774"}],"name":[{"family":"NUMERPass","given":["2OpioidsAtDischarge"]}],"gender":"male","birthDate":"2006-09-15"},"request":{"method":"PUT","url":"Patient/5c316557-a562-48e4-94fd-76c02ddc388f"}},{"fullUrl":"https://madie.cms.gov/Encounter/6a4b1f3a-15bc-45aa-826f-f9afc1ac0966","resource":{"resourceType":"Encounter","id":"6a4b1f3a-15bc-45aa-826f-f9afc1ac0966","meta":{"profile":["http://hl7.org/fhir/us/qicore/StructureDefinition/qicore-encounter"]},"status":"finished","class":{"system":"http://terminology.hl7.org/CodeSystem/v3-ActCode","code":"IMP","display":"inpatient"},"type":[{"coding":[{"system":"http://snomed.info/sct","version":"2022-03","code":"183452005","display":"Emergency hospital admission (procedure)","userSelected":true}]}],"subject":{"reference":"Patient/5c316557-a562-48e4-94fd-76c02ddc388f"},"period":{"start":"2026-01-01T00:00:00.000+00:00","end":"2026-01-03T00:00:00.000+00:00"}},"request":{"method":"PUT","url":"Encounter/6a4b1f3a-15bc-45aa-826f-f9afc1ac0966"}},{"fullUrl":"https://madie.cms.gov/MedicationRequest/2b816db9-3f5e-46df-a955-35229e8870af","resource":{"resourceType":"MedicationRequest","id":"2b816db9-3f5e-46df-a955-35229e8870af","meta":{"profile":["http://hl7.org/fhir/us/qicore/StructureDefinition/qicore-medicationrequest"]},"status":"active","intent":"order","category":[{"coding":[{"system":"http://terminology.hl7.org/CodeSystem/medicationrequest-category","code":"discharge","display":"Discharge","userSelected":true}]}],"doNotPerform":false,"medicationCodeableConcept":{"coding":[{"system":"http://www.nlm.nih.gov/research/umls/rxnorm","version":"2022-08","code":"1014632","display":"acetaminophen 300 MG / oxycodone hydrochloride 7.5 MG Oral Tablet","userSelected":true}]},"subject":{"reference":"Patient/5c316557-a562-48e4-94fd-76c02ddc388f"},"authoredOn":"2026-01-03T00:15:00.000+00:00","requester":{"reference":"Practitioner/f007","display":"Patrick Pump"}},"request":{"method":"PUT","url":"MedicationRequest/2b816db9-3f5e-46df-a955-35229e8870af"}},{"fullUrl":"https://madie.cms.gov/MedicationRequest/c20480dc-8fe2-47d2-9444-fdf09bd0e164","resource":{"resourceType":"MedicationRequest","id":"c20480dc-8fe2-47d2-9444-fdf09bd0e164","meta":{"profile":["http://hl7.org/fhir/us/qicore/StructureDefinition/qicore-medicationrequest"]},"status":"active","intent":"order","category":[{"coding":[{"system":"http://terminology.hl7.org/CodeSystem/medicationrequest-category","code":"discharge","display":"Discharge","userSelected":true}]}],"doNotPerform":false,"medicationCodeableConcept":{"coding":[{"system":"http://www.nlm.nih.gov/research/umls/rxnorm","version":"2022-08","code":"863845","display":"Abuse-Deterrent morphine sulfate 100 MG / naltrexone hydrochloride 4 MG Extended Release Oral Capsule","userSelected":true}]},"subject":{"reference":"Patient/5c316557-a562-48e4-94fd-76c02ddc388f"},"authoredOn":"2026-01-03T00:10:00.000+00:00","requester":{"reference":"Practitioner/f007","display":"Patrick Pump"}},"request":{"method":"PUT","url":"MedicationRequest/c20480dc-8fe2-47d2-9444-fdf09bd0e164"}},{"fullUrl":"https://madie.cms.gov/Coverage/d3323d01-b27e-47ee-a1ed-0fc1a435c38a","resource":{"resourceType":"Coverage","id":"d3323d01-b27e-47ee-a1ed-0fc1a435c38a","meta":{"profile":["http://hl7.org/fhir/us/qicore/StructureDefinition/qicore-coverage"]},"status":"active","beneficiary":{"reference":"Patient/5c316557-a562-48e4-94fd-76c02ddc388f"},"payor":[{"reference":"Organization/f4907415-83c5-4eae-ab0b-cb63a840880d"}]},"request":{"method":"PUT","url":"Coverage/d3323d01-b27e-47ee-a1ed-0fc1a435c38a"}},{"fullUrl":"https://madie.cms.gov/Organization/ba99e0cc-dcf5-4d84-b0b1-aa0817ce1135","resource":{"resourceType":"Organization","id":"f4907415-83c5-4eae-ab0b-cb63a840880d","meta":{"profile":["http://hl7.org/fhir/us/qicore/StructureDefinition/qicore-organization"]},"identifier":[{"use":"temp","system":"urn:oid:2.16.840.1.113883.4.4","value":"21-3259825"}],"active":true,"type":[{"coding":[{"system":"http://terminology.hl7.org/CodeSystem/organization-type","code":"pay","display":"Payer"}]}],"name":"Blue Cross Blue Shield of Texas","telecom":[{"system":"phone","value":"(+1) 972-766-6900"}],"address":[{"use":"billing","type":"postal","line":["P.O. Box 660044"],"city":"Dallas","state":"TX","postalCode":"75266-0044","country":"USA"}]},"request":{"method":"PUT","url":"Organization/f4907415-83c5-4eae-ab0b-cb63a840880d"}},{"fullUrl":"https://madie.cms.gov/MeasureReport/bb2bdbf1-2f66-4460-b52c-7d3336b33df8","resource":{"resourceType":"MeasureReport","id":"bb2bdbf1-2f66-4460-b52c-7d3336b33df8","meta":{"profile":["http://hl7.org/fhir/us/cqfmeasures/StructureDefinition/test-case-cqfm"]},"contained":[{"resourceType":"Parameters","id":"61c90eb5-afbe-474a-a97a-6dad90ffaa79-parameters","parameter":[{"name":"subject","valueString":"5c316557-a562-48e4-94fd-76c02ddc388f"}]}],"extension":[{"url":"http://hl7.org/fhir/us/cqfmeasures/StructureDefinition/cqfm-inputParameters","valueReference":{"reference":"#61c90eb5-afbe-474a-a97a-6dad90ffaa79-parameters"}},{"url":"http://hl7.org/fhir/us/cqfmeasures/StructureDefinition/cqfm-testCaseDescription","valueMarkdown":"Encounter 1/1,  00:00- 1/3,  00:00;  age 18, 2 opioids at discharge 1/3,  00:00"}],"modifierExtension":[{"url":"http://hl7.org/fhir/us/cqfmeasures/StructureDefinition/cqfm-isTestCase","valueBoolean":true}],"status":"complete","type":"individual","measure":"https://madie.cms.gov/Measure/CMS506FHIRSafeUseofOpioids","period":{"start":"2026-01-01","end":"2026-12-31"},"group":[{"population":[{"code":{"coding":[{"system":"http://terminology.hl7.org/CodeSystem/measure-population","code":"initial-population","display":"Initial Population"}]},"count":1},{"code":{"coding":[{"system":"http://terminology.hl7.org/CodeSystem/measure-population","code":"denominator","display":"Denominator"}]},"count":1},{"code":{"coding":[{"system":"http://terminology.hl7.org/CodeSystem/measure-population","code":"denominator-exclusion","display":"Denominator Exclusion"}]},"count":0},{"code":{"coding":[{"system":"http://terminology.hl7.org/CodeSystem/measure-population","code":"numerator","display":"Numerator"}]},"count":1}]}]},"request":{"method":"PUT","url":"MeasureReport/bb2bdbf1-2f66-4460-b52c-7d3336b33df8"}}]}