{"resourceType":"Bundle","id":"tests-3425eac5-be2b-457f-8db1-cdc0c9f01f5e-bundle","type":"transaction","entry":[{"fullUrl":"https://madie.cms.gov/Patient/3425eac5-be2b-457f-8db1-cdc0c9f01f5e","resource":{"resourceType":"Patient","id":"3425eac5-be2b-457f-8db1-cdc0c9f01f5e","meta":{"profile":["http://hl7.org/fhir/us/qicore/StructureDefinition/qicore-patient"]},"extension":[{"url":"http://hl7.org/fhir/us/core/StructureDefinition/us-core-race","extension":[{"url":"ombCategory","valueCoding":{"system":"urn:oid:2.16.840.1.113883.6.238","code":"1002-5","display":"American Indian or Alaska Native","userSelected":true}},{"url":"text","valueString":"American Indian or Alaska Native"}]},{"url":"http://hl7.org/fhir/us/core/StructureDefinition/us-core-ethnicity","extension":[{"url":"ombCategory","valueCoding":{"system":"urn:oid:2.16.840.1.113883.6.238","code":"2135-2","display":"Hispanic or Latino","userSelected":true}},{"url":"text","valueString":"Hispanic or Latino"}]}],"identifier":[{"type":{"coding":[{"system":"http://terminology.hl7.org/CodeSystem/v2-0203","code":"MR"}]},"system":"https://bonnie-fhir.healthit.gov/","value":"6323360e414ba67d4e1d1c35"}],"name":[{"family":"DENEXFail","given":["ProcedurePalliativeCareAfterEnc"]}],"gender":"male","birthDate":"2006-02-01"},"request":{"method":"PUT","url":"Patient/3425eac5-be2b-457f-8db1-cdc0c9f01f5e"}},{"fullUrl":"https://madie.cms.gov/Encounter/b924b9fb-972c-4673-bdf5-f0bad4ce8c71","resource":{"resourceType":"Encounter","id":"b924b9fb-972c-4673-bdf5-f0bad4ce8c71","meta":{"profile":["http://hl7.org/fhir/us/qicore/StructureDefinition/qicore-encounter"]},"status":"finished","class":{"system":"http://terminology.hl7.org/CodeSystem/v3-ActCode","code":"AMB","display":"ambulatory"},"type":[{"coding":[{"system":"http://snomed.info/sct","version":"2022-03","code":"183452005","display":"Emergency hospital admission (procedure)","userSelected":true}]}],"subject":{"reference":"Patient/3425eac5-be2b-457f-8db1-cdc0c9f01f5e"},"period":{"start":"2026-12-29T23:45:00.000+00:00","end":"2026-12-31T23:59:00.000+00:00"}},"request":{"method":"PUT","url":"Encounter/b924b9fb-972c-4673-bdf5-f0bad4ce8c71"}},{"fullUrl":"https://madie.cms.gov/MedicationRequest/bddc3f7a-778a-4ea6-944b-7a333d87b4a4","resource":{"resourceType":"MedicationRequest","id":"bddc3f7a-778a-4ea6-944b-7a333d87b4a4","meta":{"profile":["http://hl7.org/fhir/us/qicore/StructureDefinition/qicore-medicationrequest"]},"status":"active","intent":"order","category":[{"coding":[{"system":"http://terminology.hl7.org/CodeSystem/medicationrequest-category","code":"discharge","display":"Discharge","userSelected":true}]}],"doNotPerform":false,"medicationCodeableConcept":{"coding":[{"system":"http://www.nlm.nih.gov/research/umls/rxnorm","code":"2103192","display":"sufentanil 0.03 MG Sublingual Tablet","userSelected":true}]},"subject":{"reference":"Patient/3425eac5-be2b-457f-8db1-cdc0c9f01f5e"},"authoredOn":"2026-12-31T23:55:00.000+00:00","requester":{"reference":"Practitioner/f007","display":"Patrick Pump"}},"request":{"method":"PUT","url":"MedicationRequest/bddc3f7a-778a-4ea6-944b-7a333d87b4a4"}},{"fullUrl":"https://madie.cms.gov/Procedure/3621b2ea-dfd3-47a1-acc4-3f329ddc5cf8","resource":{"resourceType":"Procedure","id":"3621b2ea-dfd3-47a1-acc4-3f329ddc5cf8","meta":{"profile":["http://hl7.org/fhir/us/qicore/StructureDefinition/qicore-procedure"]},"extension":[{"url":"http://hl7.org/fhir/us/qicore/StructureDefinition/qicore-recorded","valueDateTime":"2026-01-01T00:00:00.000+00:00"}],"status":"completed","code":{"coding":[{"system":"http://snomed.info/sct","version":"2022-03","code":"103735009","display":"Palliative care (regime/therapy)","userSelected":true}]},"subject":{"reference":"Patient/3425eac5-be2b-457f-8db1-cdc0c9f01f5e"},"performedDateTime":"2026-01-01T00:00:00.000+00:00"},"request":{"method":"PUT","url":"Procedure/3621b2ea-dfd3-47a1-acc4-3f329ddc5cf8"}},{"fullUrl":"https://madie.cms.gov/Coverage/7a278208-3004-45f4-a685-16790f7a7b8f","resource":{"resourceType":"Coverage","id":"7a278208-3004-45f4-a685-16790f7a7b8f","meta":{"profile":["http://hl7.org/fhir/us/qicore/StructureDefinition/qicore-coverage"]},"status":"active","beneficiary":{"reference":"Patient/3425eac5-be2b-457f-8db1-cdc0c9f01f5e"},"payor":[{"reference":"Organization/890316dc-a4ad-43b4-ba6f-9fb9e6eca282"}]},"request":{"method":"PUT","url":"Coverage/7a278208-3004-45f4-a685-16790f7a7b8f"}},{"fullUrl":"https://madie.cms.gov/Organization/39a9e1c7-b1ec-4f6f-93c2-695f75dd32dc","resource":{"resourceType":"Organization","id":"890316dc-a4ad-43b4-ba6f-9fb9e6eca282","meta":{"profile":["http://hl7.org/fhir/us/qicore/StructureDefinition/qicore-organization"]},"identifier":[{"use":"temp","system":"urn:oid:2.16.840.1.113883.4.4","value":"21-3259825"}],"active":true,"type":[{"coding":[{"system":"http://terminology.hl7.org/CodeSystem/organization-type","code":"pay","display":"Payer"}]}],"name":"Blue Cross Blue Shield of Texas","telecom":[{"system":"phone","value":"(+1) 972-766-6900"}],"address":[{"use":"billing","type":"postal","line":["P.O. Box 660044"],"city":"Dallas","state":"TX","postalCode":"75266-0044","country":"USA"}]},"request":{"method":"PUT","url":"Organization/890316dc-a4ad-43b4-ba6f-9fb9e6eca282"}},{"fullUrl":"https://madie.cms.gov/MeasureReport/f21658f2-a4e4-4bce-80d0-649f0eb12315","resource":{"resourceType":"MeasureReport","id":"f21658f2-a4e4-4bce-80d0-649f0eb12315","meta":{"profile":["http://hl7.org/fhir/us/cqfmeasures/StructureDefinition/test-case-cqfm"]},"contained":[{"resourceType":"Parameters","id":"2a96a938-9897-4fad-96ce-c42a06df478f-parameters","parameter":[{"name":"subject","valueString":"3425eac5-be2b-457f-8db1-cdc0c9f01f5e"}]}],"extension":[{"url":"http://hl7.org/fhir/us/cqfmeasures/StructureDefinition/cqfm-inputParameters","valueReference":{"reference":"#2a96a938-9897-4fad-96ce-c42a06df478f-parameters"}},{"url":"http://hl7.org/fhir/us/cqfmeasures/StructureDefinition/cqfm-testCaseDescription","valueMarkdown":"Encounter 1/29 - 1/31, age 18,  palliative care performed 1 min after encounter ended, has one opioid\n\n"}],"modifierExtension":[{"url":"http://hl7.org/fhir/us/cqfmeasures/StructureDefinition/cqfm-isTestCase","valueBoolean":true}],"status":"complete","type":"individual","measure":"https://madie.cms.gov/Measure/CMS506FHIRSafeUseofOpioids","period":{"start":"2026-01-01","end":"2026-12-31"},"group":[{"population":[{"code":{"coding":[{"system":"http://terminology.hl7.org/CodeSystem/measure-population","code":"initial-population","display":"Initial Population"}]},"count":1},{"code":{"coding":[{"system":"http://terminology.hl7.org/CodeSystem/measure-population","code":"denominator","display":"Denominator"}]},"count":1},{"code":{"coding":[{"system":"http://terminology.hl7.org/CodeSystem/measure-population","code":"denominator-exclusion","display":"Denominator Exclusion"}]},"count":0},{"code":{"coding":[{"system":"http://terminology.hl7.org/CodeSystem/measure-population","code":"numerator","display":"Numerator"}]},"count":0}]}]},"request":{"method":"PUT","url":"MeasureReport/f21658f2-a4e4-4bce-80d0-649f0eb12315"}}]}