{"resourceType":"Bundle","id":"tests-b792f3b9-b8f5-4d5c-ad66-f580b47ebffd-bundle","type":"transaction","entry":[{"fullUrl":"https://madie.cms.gov/Patient/b792f3b9-b8f5-4d5c-ad66-f580b47ebffd","resource":{"resourceType":"Patient","id":"b792f3b9-b8f5-4d5c-ad66-f580b47ebffd","meta":{"profile":["http://hl7.org/fhir/us/qicore/StructureDefinition/qicore-patient"]},"extension":[{"url":"http://hl7.org/fhir/us/core/StructureDefinition/us-core-race","extension":[{"url":"ombCategory","valueCoding":{"system":"urn:oid:2.16.840.1.113883.6.238","code":"1002-5","display":"American Indian or Alaska Native","userSelected":true}},{"url":"text","valueString":"American Indian or Alaska Native"}]},{"url":"http://hl7.org/fhir/us/core/StructureDefinition/us-core-ethnicity","extension":[{"url":"ombCategory","valueCoding":{"system":"urn:oid:2.16.840.1.113883.6.238","code":"2135-2","display":"Hispanic or Latino","userSelected":true}},{"url":"text","valueString":"Hispanic or Latino"}]}],"identifier":[{"type":{"coding":[{"system":"http://terminology.hl7.org/CodeSystem/v2-0203","code":"MR"}]},"system":"https://bonnie-fhir.healthit.gov/","value":"6323489059967e30c06d0774"}],"name":[{"family":"NUMERFail","given":["MedicationIntentPlan"]}],"gender":"male","birthDate":"2006-09-15"},"request":{"method":"PUT","url":"Patient/b792f3b9-b8f5-4d5c-ad66-f580b47ebffd"}},{"fullUrl":"https://madie.cms.gov/Encounter/0595fede-1cbf-421d-8fe6-5f708188cbdb","resource":{"resourceType":"Encounter","id":"0595fede-1cbf-421d-8fe6-5f708188cbdb","meta":{"profile":["http://hl7.org/fhir/us/qicore/StructureDefinition/qicore-encounter"]},"status":"finished","class":{"system":"http://terminology.hl7.org/CodeSystem/v3-ActCode","code":"IMP","display":"inpatient"},"type":[{"coding":[{"system":"http://snomed.info/sct","version":"2022-03","code":"183452005","display":"Emergency hospital admission (procedure)","userSelected":true}]}],"subject":{"reference":"Patient/b792f3b9-b8f5-4d5c-ad66-f580b47ebffd"},"period":{"start":"2026-01-01T00:00:00.000+00:00","end":"2026-01-03T00:00:00.000+00:00"}},"request":{"method":"PUT","url":"Encounter/0595fede-1cbf-421d-8fe6-5f708188cbdb"}},{"fullUrl":"https://madie.cms.gov/MedicationRequest/6f1b28f5-4449-44a3-a42e-5df1e2be5180","resource":{"resourceType":"MedicationRequest","id":"6f1b28f5-4449-44a3-a42e-5df1e2be5180","meta":{"profile":["http://hl7.org/fhir/us/qicore/StructureDefinition/qicore-medicationrequest"]},"status":"active","intent":"plan","category":[{"coding":[{"system":"http://terminology.hl7.org/CodeSystem/medicationrequest-category","code":"discharge","display":"Discharge","userSelected":true}]}],"doNotPerform":false,"medicationCodeableConcept":{"coding":[{"system":"http://www.nlm.nih.gov/research/umls/rxnorm","version":"2022-08","code":"1014632","display":"acetaminophen 300 MG / oxycodone hydrochloride 7.5 MG Oral Tablet","userSelected":true}]},"subject":{"reference":"Patient/b792f3b9-b8f5-4d5c-ad66-f580b47ebffd"},"authoredOn":"2026-01-03T00:15:00.000+00:00","requester":{"reference":"Practitioner/f007","display":"Patrick Pump"}},"request":{"method":"PUT","url":"MedicationRequest/6f1b28f5-4449-44a3-a42e-5df1e2be5180"}},{"fullUrl":"https://madie.cms.gov/MedicationRequest/ce3f065e-a691-4716-b1d1-5d2ace656ec7","resource":{"resourceType":"MedicationRequest","id":"ce3f065e-a691-4716-b1d1-5d2ace656ec7","meta":{"profile":["http://hl7.org/fhir/us/qicore/StructureDefinition/qicore-medicationrequest"]},"status":"active","intent":"order","category":[{"coding":[{"system":"http://terminology.hl7.org/CodeSystem/medicationrequest-category","code":"discharge","display":"Discharge","userSelected":true}]}],"doNotPerform":false,"medicationCodeableConcept":{"coding":[{"system":"http://www.nlm.nih.gov/research/umls/rxnorm","version":"2022-08","code":"863845","display":"Abuse-Deterrent morphine sulfate 100 MG / naltrexone hydrochloride 4 MG Extended Release Oral Capsule","userSelected":true}]},"subject":{"reference":"Patient/b792f3b9-b8f5-4d5c-ad66-f580b47ebffd"},"authoredOn":"2026-01-03T00:10:00.000+00:00","requester":{"reference":"Practitioner/f007","display":"Patrick Pump"}},"request":{"method":"PUT","url":"MedicationRequest/ce3f065e-a691-4716-b1d1-5d2ace656ec7"}},{"fullUrl":"https://madie.cms.gov/Coverage/ee960857-6a34-4588-b66e-53f9c99b9cf6","resource":{"resourceType":"Coverage","id":"ee960857-6a34-4588-b66e-53f9c99b9cf6","meta":{"profile":["http://hl7.org/fhir/us/qicore/StructureDefinition/qicore-coverage"]},"status":"active","beneficiary":{"reference":"Patient/b792f3b9-b8f5-4d5c-ad66-f580b47ebffd"},"payor":[{"reference":"Organization/f7da4368-fb6d-4d73-a75b-f78024cbb18d"}]},"request":{"method":"PUT","url":"Coverage/ee960857-6a34-4588-b66e-53f9c99b9cf6"}},{"fullUrl":"https://madie.cms.gov/Organization/2c000737-d1cc-4858-8c0c-25fc388b71c4","resource":{"resourceType":"Organization","id":"f7da4368-fb6d-4d73-a75b-f78024cbb18d","meta":{"profile":["http://hl7.org/fhir/us/qicore/StructureDefinition/qicore-organization"]},"identifier":[{"use":"temp","system":"urn:oid:2.16.840.1.113883.4.4","value":"21-3259825"}],"active":true,"type":[{"coding":[{"system":"http://terminology.hl7.org/CodeSystem/organization-type","code":"pay","display":"Payer"}]}],"name":"Blue Cross Blue Shield of Texas","telecom":[{"system":"phone","value":"(+1) 972-766-6900"}],"address":[{"use":"billing","type":"postal","line":["P.O. Box 660044"],"city":"Dallas","state":"TX","postalCode":"75266-0044","country":"USA"}]},"request":{"method":"PUT","url":"Organization/f7da4368-fb6d-4d73-a75b-f78024cbb18d"}},{"fullUrl":"https://madie.cms.gov/MeasureReport/edef1380-7719-4015-94ff-1bd8331f5366","resource":{"resourceType":"MeasureReport","id":"edef1380-7719-4015-94ff-1bd8331f5366","meta":{"profile":["http://hl7.org/fhir/us/cqfmeasures/StructureDefinition/test-case-cqfm"]},"contained":[{"resourceType":"Parameters","id":"141337d1-14da-485e-9a3c-ce01f7a9878e-parameters","parameter":[{"name":"subject","valueString":"b792f3b9-b8f5-4d5c-ad66-f580b47ebffd"}]}],"extension":[{"url":"http://hl7.org/fhir/us/cqfmeasures/StructureDefinition/cqfm-inputParameters","valueReference":{"reference":"#141337d1-14da-485e-9a3c-ce01f7a9878e-parameters"}},{"url":"http://hl7.org/fhir/us/cqfmeasures/StructureDefinition/cqfm-testCaseDescription","valueMarkdown":"Encounter during MP, 2 opioids but on has an intent of 'plan' instead of order"}],"modifierExtension":[{"url":"http://hl7.org/fhir/us/cqfmeasures/StructureDefinition/cqfm-isTestCase","valueBoolean":true}],"status":"complete","type":"individual","measure":"https://madie.cms.gov/Measure/CMS506FHIRSafeUseofOpioids","period":{"start":"2026-01-01","end":"2026-12-31"},"group":[{"population":[{"code":{"coding":[{"system":"http://terminology.hl7.org/CodeSystem/measure-population","code":"initial-population","display":"Initial Population"}]},"count":1},{"code":{"coding":[{"system":"http://terminology.hl7.org/CodeSystem/measure-population","code":"denominator","display":"Denominator"}]},"count":1},{"code":{"coding":[{"system":"http://terminology.hl7.org/CodeSystem/measure-population","code":"denominator-exclusion","display":"Denominator Exclusion"}]},"count":0},{"code":{"coding":[{"system":"http://terminology.hl7.org/CodeSystem/measure-population","code":"numerator","display":"Numerator"}]},"count":0}]}]},"request":{"method":"PUT","url":"MeasureReport/edef1380-7719-4015-94ff-1bd8331f5366"}}]}