{"resourceType":"Bundle","id":"tests-3dfa6b2c-e7e1-46a4-a2cc-54602538c44e-bundle","type":"transaction","entry":[{"fullUrl":"https://madie.cms.gov/Patient/3dfa6b2c-e7e1-46a4-a2cc-54602538c44e","resource":{"resourceType":"Patient","id":"3dfa6b2c-e7e1-46a4-a2cc-54602538c44e","meta":{"profile":["http://hl7.org/fhir/us/qicore/StructureDefinition/qicore-patient"]},"extension":[{"url":"http://hl7.org/fhir/us/core/StructureDefinition/us-core-race","extension":[{"url":"ombCategory","valueCoding":{"system":"urn:oid:2.16.840.1.113883.6.238","code":"2054-5","display":"Black or African American","userSelected":true}},{"url":"text","valueString":"Black or African American"}]},{"url":"http://hl7.org/fhir/us/core/StructureDefinition/us-core-ethnicity","extension":[{"url":"ombCategory","valueCoding":{"system":"urn:oid:2.16.840.1.113883.6.238","code":"2186-5","display":"Not Hispanic or Latino","userSelected":true}},{"url":"text","valueString":"Not Hispanic or Latino"}]}],"identifier":[{"type":{"coding":[{"system":"http://terminology.hl7.org/CodeSystem/v2-0203","code":"MR"}]},"system":"https://bonnie-fhir.healthit.gov/","value":"63236a248d26c655c5601f03"}],"name":[{"family":"NUMERFail","given":["2Benzodiazepines"]}],"gender":"female","birthDate":"2006-09-15"},"request":{"method":"PUT","url":"Patient/3dfa6b2c-e7e1-46a4-a2cc-54602538c44e"}},{"fullUrl":"https://madie.cms.gov/Encounter/1b737e24-eae1-4319-a954-7a8e743c1761","resource":{"resourceType":"Encounter","id":"1b737e24-eae1-4319-a954-7a8e743c1761","meta":{"profile":["http://hl7.org/fhir/us/qicore/StructureDefinition/qicore-encounter"]},"status":"finished","class":{"system":"http://terminology.hl7.org/CodeSystem/v3-ActCode","code":"AMB","display":"ambulatory"},"type":[{"coding":[{"system":"http://snomed.info/sct","version":"2022-03","code":"183452005","display":"Emergency hospital admission (procedure)","userSelected":true}]}],"subject":{"reference":"Patient/3dfa6b2c-e7e1-46a4-a2cc-54602538c44e"},"period":{"start":"2026-12-29T00:00:00.000+00:00","end":"2026-12-31T00:30:00.000+00:00"}},"request":{"method":"PUT","url":"Encounter/1b737e24-eae1-4319-a954-7a8e743c1761"}},{"fullUrl":"https://madie.cms.gov/MedicationRequest/f61d3e5c-521e-45c7-8863-cb2122fa9803","resource":{"resourceType":"MedicationRequest","id":"f61d3e5c-521e-45c7-8863-cb2122fa9803","meta":{"profile":["http://hl7.org/fhir/us/qicore/StructureDefinition/qicore-medicationrequest"]},"status":"active","intent":"order","category":[{"coding":[{"system":"http://terminology.hl7.org/CodeSystem/medicationrequest-category","code":"discharge","display":"Discharge","userSelected":true}]}],"doNotPerform":false,"medicationCodeableConcept":{"coding":[{"system":"http://www.nlm.nih.gov/research/umls/rxnorm","code":"1298088","display":"flurazepam hydrochloride 15 MG Oral Capsule","userSelected":true}]},"subject":{"reference":"Patient/3dfa6b2c-e7e1-46a4-a2cc-54602538c44e"},"authoredOn":"2026-12-31T00:05:00.000+00:00","requester":{"reference":"Practitioner/f007","display":"Patrick Pump"}},"request":{"method":"PUT","url":"MedicationRequest/f61d3e5c-521e-45c7-8863-cb2122fa9803"}},{"fullUrl":"https://madie.cms.gov/MedicationRequest/21436b41-e357-4948-b83f-1e93437e2157","resource":{"resourceType":"MedicationRequest","id":"21436b41-e357-4948-b83f-1e93437e2157","meta":{"profile":["http://hl7.org/fhir/us/qicore/StructureDefinition/qicore-medicationrequest"]},"status":"active","intent":"order","category":[{"coding":[{"system":"http://terminology.hl7.org/CodeSystem/medicationrequest-category","code":"community","display":"Community","userSelected":true}]}],"doNotPerform":false,"medicationCodeableConcept":{"coding":[{"system":"http://www.nlm.nih.gov/research/umls/rxnorm","code":"1298088","display":"flurazepam hydrochloride 15 MG Oral Capsule","userSelected":true}]},"subject":{"reference":"Patient/3dfa6b2c-e7e1-46a4-a2cc-54602538c44e"},"authoredOn":"2025-12-31T09:00:00.000+00:00","requester":{"reference":"Practitioner/f007","display":"Patrick Pump"}},"request":{"method":"PUT","url":"MedicationRequest/21436b41-e357-4948-b83f-1e93437e2157"}},{"fullUrl":"https://madie.cms.gov/Coverage/d01e38a1-ad9b-45a6-b22a-63b2afcc0bb5","resource":{"resourceType":"Coverage","id":"d01e38a1-ad9b-45a6-b22a-63b2afcc0bb5","meta":{"profile":["http://hl7.org/fhir/us/qicore/StructureDefinition/qicore-coverage"]},"status":"active","beneficiary":{"reference":"Patient/3dfa6b2c-e7e1-46a4-a2cc-54602538c44e"},"payor":[{"reference":"Organization/80e3e0d1-b2aa-43a6-b1d2-00bfa3164a0f"}]},"request":{"method":"PUT","url":"Coverage/d01e38a1-ad9b-45a6-b22a-63b2afcc0bb5"}},{"fullUrl":"https://madie.cms.gov/Organization/21394197-a2c3-4690-9d66-0300506a833f","resource":{"resourceType":"Organization","id":"80e3e0d1-b2aa-43a6-b1d2-00bfa3164a0f","meta":{"profile":["http://hl7.org/fhir/us/qicore/StructureDefinition/qicore-organization"]},"identifier":[{"use":"temp","system":"urn:oid:2.16.840.1.113883.4.4","value":"21-3259825"}],"active":true,"type":[{"coding":[{"system":"http://terminology.hl7.org/CodeSystem/organization-type","code":"pay","display":"Payer"}]}],"name":"Blue Cross Blue Shield of Texas","telecom":[{"system":"phone","value":"(+1) 972-766-6900"}],"address":[{"use":"billing","type":"postal","line":["P.O. Box 660044"],"city":"Dallas","state":"TX","postalCode":"75266-0044","country":"USA"}]},"request":{"method":"PUT","url":"Organization/80e3e0d1-b2aa-43a6-b1d2-00bfa3164a0f"}},{"fullUrl":"https://madie.cms.gov/MeasureReport/ae6edeaa-a3a0-4d36-97f9-1f177671c827","resource":{"resourceType":"MeasureReport","id":"ae6edeaa-a3a0-4d36-97f9-1f177671c827","meta":{"profile":["http://hl7.org/fhir/us/cqfmeasures/StructureDefinition/test-case-cqfm"]},"contained":[{"resourceType":"Parameters","id":"7c26fd48-4a8a-4223-af0d-cb1132d745f2-parameters","parameter":[{"name":"subject","valueString":"3dfa6b2c-e7e1-46a4-a2cc-54602538c44e"}]}],"extension":[{"url":"http://hl7.org/fhir/us/cqfmeasures/StructureDefinition/cqfm-inputParameters","valueReference":{"reference":"#7c26fd48-4a8a-4223-af0d-cb1132d745f2-parameters"}},{"url":"http://hl7.org/fhir/us/cqfmeasures/StructureDefinition/cqfm-testCaseDescription","valueMarkdown":"Encounter 12/29 @  0000- 12/31, -0030, age 18, 2 benzodiazepine (not and opioid/benzo nor opioid and an opioid) \nfixed to false,  unable to test if doNotPerform is true a red validation error appears"}],"modifierExtension":[{"url":"http://hl7.org/fhir/us/cqfmeasures/StructureDefinition/cqfm-isTestCase","valueBoolean":true}],"status":"complete","type":"individual","measure":"https://madie.cms.gov/Measure/CMS506FHIRSafeUseofOpioids","period":{"start":"2026-01-01","end":"2026-12-31"},"group":[{"population":[{"code":{"coding":[{"system":"http://terminology.hl7.org/CodeSystem/measure-population","code":"initial-population","display":"Initial Population"}]},"count":1},{"code":{"coding":[{"system":"http://terminology.hl7.org/CodeSystem/measure-population","code":"denominator","display":"Denominator"}]},"count":1},{"code":{"coding":[{"system":"http://terminology.hl7.org/CodeSystem/measure-population","code":"denominator-exclusion","display":"Denominator Exclusion"}]},"count":0},{"code":{"coding":[{"system":"http://terminology.hl7.org/CodeSystem/measure-population","code":"numerator","display":"Numerator"}]},"count":0}]}]},"request":{"method":"PUT","url":"MeasureReport/ae6edeaa-a3a0-4d36-97f9-1f177671c827"}}]}