{"resourceType":"Bundle","id":"tests-81dc5bb4-3273-492a-beff-2f7b0394f3c8-bundle","type":"transaction","entry":[{"fullUrl":"https://madie.cms.gov/Patient/81dc5bb4-3273-492a-beff-2f7b0394f3c8","resource":{"resourceType":"Patient","id":"81dc5bb4-3273-492a-beff-2f7b0394f3c8","meta":{"profile":["http://hl7.org/fhir/us/qicore/StructureDefinition/qicore-patient"]},"extension":[{"url":"http://hl7.org/fhir/us/core/StructureDefinition/us-core-race","extension":[{"url":"ombCategory","valueCoding":{"system":"urn:oid:2.16.840.1.113883.6.238","code":"2028-9","display":"Asian","userSelected":true}},{"url":"text","valueString":"Asian"}]},{"url":"http://hl7.org/fhir/us/core/StructureDefinition/us-core-ethnicity","extension":[{"url":"ombCategory","valueCoding":{"system":"urn:oid:2.16.840.1.113883.6.238","code":"2186-5","display":"Not Hispanic or Latino","userSelected":true}},{"url":"text","valueString":"Not Hispanic or Latino"}]}],"identifier":[{"type":{"coding":[{"system":"http://terminology.hl7.org/CodeSystem/v2-0203","code":"MR"}]},"system":"https://bonnie-fhir.healthit.gov/","value":"63233350414ba67d4e1d1c2f"}],"name":[{"family":"DENEXPass","given":["HasCancerPainHealthConcern"]}],"gender":"female","birthDate":"1944-02-01"},"request":{"method":"PUT","url":"Patient/81dc5bb4-3273-492a-beff-2f7b0394f3c8"}},{"fullUrl":"https://madie.cms.gov/Encounter/ee7b7f5f-57ae-4136-a5ea-0f6a68151d73","resource":{"resourceType":"Encounter","id":"ee7b7f5f-57ae-4136-a5ea-0f6a68151d73","meta":{"profile":["http://hl7.org/fhir/us/qicore/StructureDefinition/qicore-encounter"]},"status":"finished","class":{"system":"http://terminology.hl7.org/CodeSystem/v3-ActCode","code":"AMB","display":"ambulatory"},"type":[{"coding":[{"system":"http://snomed.info/sct","version":"2022-03","code":"183452005","display":"Emergency hospital admission (procedure)","userSelected":true}]}],"subject":{"reference":"Patient/81dc5bb4-3273-492a-beff-2f7b0394f3c8"},"period":{"start":"2026-01-01T11:45:00.000+00:00","end":"2026-01-03T11:59:00.000+00:00"}},"request":{"method":"PUT","url":"Encounter/ee7b7f5f-57ae-4136-a5ea-0f6a68151d73"}},{"fullUrl":"https://madie.cms.gov/MedicationRequest/9e0c76a5-98ca-4a2e-b899-8faeed0f5ab4","resource":{"resourceType":"MedicationRequest","id":"9e0c76a5-98ca-4a2e-b899-8faeed0f5ab4","meta":{"profile":["http://hl7.org/fhir/us/qicore/StructureDefinition/qicore-medicationrequest"]},"status":"active","intent":"order","category":[{"coding":[{"system":"http://terminology.hl7.org/CodeSystem/medicationrequest-category","code":"discharge","display":"Discharge","userSelected":true}]}],"doNotPerform":false,"medicationCodeableConcept":{"coding":[{"system":"http://www.nlm.nih.gov/research/umls/rxnorm","code":"2103192","display":"sufentanil 0.03 MG Sublingual Tablet","userSelected":true}]},"subject":{"reference":"Patient/81dc5bb4-3273-492a-beff-2f7b0394f3c8"},"authoredOn":"2026-01-03T11:59:00.000+00:00","requester":{"reference":"Practitioner/f007","display":"Patrick Pump"}},"request":{"method":"PUT","url":"MedicationRequest/9e0c76a5-98ca-4a2e-b899-8faeed0f5ab4"}},{"fullUrl":"https://madie.cms.gov/Condition/8d5330d6-007b-4f16-b1b2-61e12970a3ad","resource":{"resourceType":"Condition","id":"8d5330d6-007b-4f16-b1b2-61e12970a3ad","meta":{"profile":["http://hl7.org/fhir/us/qicore/StructureDefinition/qicore-condition"]},"clinicalStatus":{"coding":[{"system":"http://terminology.hl7.org/CodeSystem/condition-clinical","code":"active","display":"active","userSelected":true}]},"category":[{"coding":[{"system":"http://hl7.org/fhir/us/core/CodeSystem/condition-category","code":"health-concern","display":"Health Concern"},{"system":"http://snomed.info/sct","code":"439401001","display":"Diagnosis"}]}],"code":{"coding":[{"system":"http://snomed.info/sct","version":"2022-03","code":"879973007","display":"Breakthrough cancer pain (finding)","userSelected":true}]},"subject":{"reference":"Patient/81dc5bb4-3273-492a-beff-2f7b0394f3c8"},"onsetPeriod":{"start":"2024-12-31T08:00:00.000+00:00"}},"request":{"method":"PUT","url":"Condition/8d5330d6-007b-4f16-b1b2-61e12970a3ad"}},{"fullUrl":"https://madie.cms.gov/Coverage/78ec0e8e-1144-48c2-8078-cbb1f979de6a","resource":{"resourceType":"Coverage","id":"78ec0e8e-1144-48c2-8078-cbb1f979de6a","meta":{"profile":["http://hl7.org/fhir/us/qicore/StructureDefinition/qicore-coverage"]},"status":"active","beneficiary":{"reference":"Patient/81dc5bb4-3273-492a-beff-2f7b0394f3c8"},"payor":[{"reference":"Organization/33ead57e-5e04-40e4-95ea-bc3cdbd58917"}]},"request":{"method":"PUT","url":"Coverage/78ec0e8e-1144-48c2-8078-cbb1f979de6a"}},{"fullUrl":"https://madie.cms.gov/Organization/bb0a685c-9ddc-4039-a9ad-5398c75096e0","resource":{"resourceType":"Organization","id":"33ead57e-5e04-40e4-95ea-bc3cdbd58917","meta":{"profile":["http://hl7.org/fhir/us/qicore/StructureDefinition/qicore-organization"]},"identifier":[{"use":"temp","system":"urn:oid:2.16.840.1.113883.4.4","value":"21-3259825"}],"active":true,"type":[{"coding":[{"system":"http://terminology.hl7.org/CodeSystem/organization-type","code":"pay","display":"Payer"}]}],"name":"Blue Cross Blue Shield of Texas","telecom":[{"system":"phone","value":"(+1) 972-766-6900"}],"address":[{"use":"billing","type":"postal","line":["P.O. Box 660044"],"city":"Dallas","state":"TX","postalCode":"75266-0044","country":"USA"}]},"request":{"method":"PUT","url":"Organization/33ead57e-5e04-40e4-95ea-bc3cdbd58917"}},{"fullUrl":"https://madie.cms.gov/MeasureReport/18d2ad9e-ba79-4b9b-bde3-5279f948c9f1","resource":{"resourceType":"MeasureReport","id":"18d2ad9e-ba79-4b9b-bde3-5279f948c9f1","meta":{"profile":["http://hl7.org/fhir/us/cqfmeasures/StructureDefinition/test-case-cqfm"]},"contained":[{"resourceType":"Parameters","id":"c2e13c36-f81e-4a71-b04c-4baa37bf16d0-parameters","parameter":[{"name":"subject","valueString":"81dc5bb4-3273-492a-beff-2f7b0394f3c8"}]}],"extension":[{"url":"http://hl7.org/fhir/us/cqfmeasures/StructureDefinition/cqfm-inputParameters","valueReference":{"reference":"#c2e13c36-f81e-4a71-b04c-4baa37bf16d0-parameters"}},{"url":"http://hl7.org/fhir/us/cqfmeasures/StructureDefinition/cqfm-testCaseDescription","valueMarkdown":"Encounter 1/1 - 1/3 , age 18,  1 opioid at dc, has cancer that started last day of prior year"}],"modifierExtension":[{"url":"http://hl7.org/fhir/us/cqfmeasures/StructureDefinition/cqfm-isTestCase","valueBoolean":true}],"status":"complete","type":"individual","measure":"https://madie.cms.gov/Measure/CMS506FHIRSafeUseofOpioids","period":{"start":"2026-01-01","end":"2026-12-31"},"group":[{"population":[{"code":{"coding":[{"system":"http://terminology.hl7.org/CodeSystem/measure-population","code":"initial-population","display":"Initial Population"}]},"count":1},{"code":{"coding":[{"system":"http://terminology.hl7.org/CodeSystem/measure-population","code":"denominator","display":"Denominator"}]},"count":1},{"code":{"coding":[{"system":"http://terminology.hl7.org/CodeSystem/measure-population","code":"denominator-exclusion","display":"Denominator Exclusion"}]},"count":1},{"code":{"coding":[{"system":"http://terminology.hl7.org/CodeSystem/measure-population","code":"numerator","display":"Numerator"}]},"count":0}]}]},"request":{"method":"PUT","url":"MeasureReport/18d2ad9e-ba79-4b9b-bde3-5279f948c9f1"}}]}