{"resourceType":"Bundle","id":"tests-f049e76a-aef1-4e8f-a8bd-dfdb419de551-bundle","type":"transaction","entry":[{"fullUrl":"https://madie.cms.gov/Patient/f049e76a-aef1-4e8f-a8bd-dfdb419de551","resource":{"resourceType":"Patient","id":"f049e76a-aef1-4e8f-a8bd-dfdb419de551","meta":{"profile":["http://hl7.org/fhir/us/qicore/StructureDefinition/qicore-patient"]},"extension":[{"url":"http://hl7.org/fhir/us/core/StructureDefinition/us-core-race","extension":[{"url":"ombCategory","valueCoding":{"system":"urn:oid:2.16.840.1.113883.6.238","code":"2054-5","display":"Black or African American","userSelected":true}},{"url":"text","valueString":"Black or African American"}]},{"url":"http://hl7.org/fhir/us/core/StructureDefinition/us-core-ethnicity","extension":[{"url":"ombCategory","valueCoding":{"system":"urn:oid:2.16.840.1.113883.6.238","code":"2186-5","display":"Not Hispanic or Latino","userSelected":true}},{"url":"text","valueString":"Not Hispanic or Latino"}]}],"identifier":[{"type":{"coding":[{"system":"http://terminology.hl7.org/CodeSystem/v2-0203","code":"MR"}]},"system":"https://bonnie-fhir.healthit.gov/","value":"63233443414ba67d4e1d1c31"}],"name":[{"family":"DENEXPass","given":["DischargeToAcuteCare"]}],"gender":"male","birthDate":"2006-12-28"},"request":{"method":"PUT","url":"Patient/f049e76a-aef1-4e8f-a8bd-dfdb419de551"}},{"fullUrl":"https://madie.cms.gov/Encounter/0365e9c2-9f7a-41a0-a645-1c31eafea071","resource":{"resourceType":"Encounter","id":"0365e9c2-9f7a-41a0-a645-1c31eafea071","meta":{"profile":["http://hl7.org/fhir/us/qicore/StructureDefinition/qicore-encounter"]},"status":"finished","class":{"system":"http://terminology.hl7.org/CodeSystem/v3-ActCode","code":"AMB","display":"ambulatory"},"type":[{"coding":[{"system":"http://snomed.info/sct","version":"2022-03","code":"183452005","display":"Emergency hospital admission (procedure)","userSelected":true}]}],"subject":{"reference":"Patient/f049e76a-aef1-4e8f-a8bd-dfdb419de551"},"period":{"start":"2026-12-29T12:00:00.000+00:00","end":"2026-12-31T12:15:00.000+00:00"},"hospitalization":{"dischargeDisposition":{"coding":[{"system":"http://snomed.info/sct","code":"306701001","display":"Discharge to community hospital (procedure)","userSelected":true}]}}},"request":{"method":"PUT","url":"Encounter/0365e9c2-9f7a-41a0-a645-1c31eafea071"}},{"fullUrl":"https://madie.cms.gov/MedicationRequest/62d51c70-e41f-4049-bfd1-8d68ae0ec9ce","resource":{"resourceType":"MedicationRequest","id":"62d51c70-e41f-4049-bfd1-8d68ae0ec9ce","meta":{"profile":["http://hl7.org/fhir/us/qicore/StructureDefinition/qicore-medicationrequest"]},"status":"active","intent":"order","category":[{"coding":[{"system":"http://terminology.hl7.org/CodeSystem/medicationrequest-category","code":"discharge","display":"Discharge","userSelected":true}]}],"doNotPerform":false,"medicationCodeableConcept":{"coding":[{"system":"http://www.nlm.nih.gov/research/umls/rxnorm","code":"1049604","display":"oxycodone hydrochloride 1 MG/ML Oral Solution","userSelected":true}]},"subject":{"reference":"Patient/f049e76a-aef1-4e8f-a8bd-dfdb419de551"},"authoredOn":"2026-12-31T12:10:00.000+00:00","requester":{"reference":"Practitioner/f007","display":"Patrick Pump"}},"request":{"method":"PUT","url":"MedicationRequest/62d51c70-e41f-4049-bfd1-8d68ae0ec9ce"}},{"fullUrl":"https://madie.cms.gov/Coverage/ebd6e11b-99b1-4fcc-a221-b1e9b60efa93","resource":{"resourceType":"Coverage","id":"ebd6e11b-99b1-4fcc-a221-b1e9b60efa93","meta":{"profile":["http://hl7.org/fhir/us/qicore/StructureDefinition/qicore-coverage"]},"status":"active","beneficiary":{"reference":"Patient/f049e76a-aef1-4e8f-a8bd-dfdb419de551"},"payor":[{"reference":"Organization/18ca435c-cae6-4c34-8033-af717477f9fc"}]},"request":{"method":"PUT","url":"Coverage/ebd6e11b-99b1-4fcc-a221-b1e9b60efa93"}},{"fullUrl":"https://madie.cms.gov/Organization/4c84bea6-89ed-4eff-805d-a06cfd611911","resource":{"resourceType":"Organization","id":"18ca435c-cae6-4c34-8033-af717477f9fc","meta":{"profile":["http://hl7.org/fhir/us/qicore/StructureDefinition/qicore-organization"]},"identifier":[{"use":"temp","system":"urn:oid:2.16.840.1.113883.4.4","value":"21-3259825"}],"active":true,"type":[{"coding":[{"system":"http://terminology.hl7.org/CodeSystem/organization-type","code":"pay","display":"Payer"}]}],"name":"Blue Cross Blue Shield of Texas","telecom":[{"system":"phone","value":"(+1) 972-766-6900"}],"address":[{"use":"billing","type":"postal","line":["P.O. Box 660044"],"city":"Dallas","state":"TX","postalCode":"75266-0044","country":"USA"}]},"request":{"method":"PUT","url":"Organization/18ca435c-cae6-4c34-8033-af717477f9fc"}},{"fullUrl":"https://madie.cms.gov/MeasureReport/2c46a8e0-4774-4922-9643-c46880b36f82","resource":{"resourceType":"MeasureReport","id":"2c46a8e0-4774-4922-9643-c46880b36f82","meta":{"profile":["http://hl7.org/fhir/us/cqfmeasures/StructureDefinition/test-case-cqfm"]},"contained":[{"resourceType":"Parameters","id":"7a72e05f-1c6f-4e2c-93d5-ccfe59b3ee0a-parameters","parameter":[{"name":"subject","valueString":"f049e76a-aef1-4e8f-a8bd-dfdb419de551"}]}],"extension":[{"url":"http://hl7.org/fhir/us/cqfmeasures/StructureDefinition/cqfm-inputParameters","valueReference":{"reference":"#7a72e05f-1c6f-4e2c-93d5-ccfe59b3ee0a-parameters"}},{"url":"http://hl7.org/fhir/us/cqfmeasures/StructureDefinition/cqfm-testCaseDescription","valueMarkdown":"Encounter, age 18 day before encounter, has opioid, discharged to acute care"}],"modifierExtension":[{"url":"http://hl7.org/fhir/us/cqfmeasures/StructureDefinition/cqfm-isTestCase","valueBoolean":true}],"status":"complete","type":"individual","measure":"https://madie.cms.gov/Measure/CMS506FHIRSafeUseofOpioids","period":{"start":"2026-01-01","end":"2026-12-31"},"group":[{"population":[{"code":{"coding":[{"system":"http://terminology.hl7.org/CodeSystem/measure-population","code":"initial-population","display":"Initial Population"}]},"count":1},{"code":{"coding":[{"system":"http://terminology.hl7.org/CodeSystem/measure-population","code":"denominator","display":"Denominator"}]},"count":1},{"code":{"coding":[{"system":"http://terminology.hl7.org/CodeSystem/measure-population","code":"denominator-exclusion","display":"Denominator Exclusion"}]},"count":1},{"code":{"coding":[{"system":"http://terminology.hl7.org/CodeSystem/measure-population","code":"numerator","display":"Numerator"}]},"count":0}]}]},"request":{"method":"PUT","url":"MeasureReport/2c46a8e0-4774-4922-9643-c46880b36f82"}}]}