{"resourceType":"Bundle","id":"tests-55a556cf-2cfa-4bc1-99cf-b3faa7a554ba-bundle","type":"transaction","entry":[{"fullUrl":"https://madie.cms.gov/Patient/55a556cf-2cfa-4bc1-99cf-b3faa7a554ba","resource":{"resourceType":"Patient","id":"55a556cf-2cfa-4bc1-99cf-b3faa7a554ba","meta":{"profile":["http://hl7.org/fhir/us/qicore/StructureDefinition/qicore-patient"]},"extension":[{"url":"http://hl7.org/fhir/us/core/StructureDefinition/us-core-race","extension":[{"url":"ombCategory","valueCoding":{"system":"urn:oid:2.16.840.1.113883.6.238","code":"1002-5","display":"American Indian or Alaska Native","userSelected":true}},{"url":"text","valueString":"American Indian or Alaska Native"}]},{"url":"http://hl7.org/fhir/us/core/StructureDefinition/us-core-ethnicity","extension":[{"url":"ombCategory","valueCoding":{"system":"urn:oid:2.16.840.1.113883.6.238","code":"2135-2","display":"Hispanic or Latino","userSelected":true}},{"url":"text","valueString":"Hispanic or Latino"}]}],"identifier":[{"type":{"coding":[{"system":"http://terminology.hl7.org/CodeSystem/v2-0203","code":"MR"}]},"system":"https://bonnie-fhir.healthit.gov/","value":"63236aa88d26c655c5601f05"}],"name":[{"family":"NUMERFail","given":["2OpioidsSameCode"]}],"gender":"male","birthDate":"2006-12-31"},"request":{"method":"PUT","url":"Patient/55a556cf-2cfa-4bc1-99cf-b3faa7a554ba"}},{"fullUrl":"https://madie.cms.gov/Encounter/2e11a73d-8147-4554-a050-78616ff842aa","resource":{"resourceType":"Encounter","id":"2e11a73d-8147-4554-a050-78616ff842aa","meta":{"profile":["http://hl7.org/fhir/us/qicore/StructureDefinition/qicore-encounter"]},"status":"finished","class":{"system":"http://terminology.hl7.org/CodeSystem/v3-ActCode","code":"AMB","display":"ambulatory"},"type":[{"coding":[{"system":"http://snomed.info/sct","version":"2022-03","code":"183452005","display":"Emergency hospital admission (procedure)","userSelected":true}]}],"subject":{"reference":"Patient/55a556cf-2cfa-4bc1-99cf-b3faa7a554ba"},"period":{"start":"2026-12-29T23:45:00.000+00:00","end":"2026-12-31T23:59:00.000+00:00"}},"request":{"method":"PUT","url":"Encounter/2e11a73d-8147-4554-a050-78616ff842aa"}},{"fullUrl":"https://madie.cms.gov/MedicationRequest/aa11eddd-b624-4e29-a626-d095821d9a5e","resource":{"resourceType":"MedicationRequest","id":"aa11eddd-b624-4e29-a626-d095821d9a5e","meta":{"profile":["http://hl7.org/fhir/us/qicore/StructureDefinition/qicore-medicationrequest"]},"status":"active","intent":"order","category":[{"coding":[{"system":"http://terminology.hl7.org/CodeSystem/medicationrequest-category","code":"discharge","display":"Discharge","userSelected":true}]}],"doNotPerform":false,"medicationCodeableConcept":{"coding":[{"system":"http://www.nlm.nih.gov/research/umls/rxnorm","version":"2022-08","code":"1014632","display":"acetaminophen 300 MG / oxycodone hydrochloride 7.5 MG Oral Tablet","userSelected":true}]},"subject":{"reference":"Patient/55a556cf-2cfa-4bc1-99cf-b3faa7a554ba"},"authoredOn":"2026-12-31T23:50:00.000+00:00","requester":{"reference":"Practitioner/f007","display":"Patrick Pump"}},"request":{"method":"PUT","url":"MedicationRequest/aa11eddd-b624-4e29-a626-d095821d9a5e"}},{"fullUrl":"https://madie.cms.gov/MedicationRequest/20401cbd-f907-4645-8c6a-24d0f311172e","resource":{"resourceType":"MedicationRequest","id":"20401cbd-f907-4645-8c6a-24d0f311172e","meta":{"profile":["http://hl7.org/fhir/us/qicore/StructureDefinition/qicore-medicationrequest"]},"status":"active","intent":"order","category":[{"coding":[{"system":"http://terminology.hl7.org/CodeSystem/medicationrequest-category","code":"discharge","display":"Discharge","userSelected":true}]}],"doNotPerform":false,"medicationCodeableConcept":{"coding":[{"system":"http://www.nlm.nih.gov/research/umls/rxnorm","version":"2022-08","code":"1014632","display":"acetaminophen 300 MG / oxycodone hydrochloride 7.5 MG Oral Tablet","userSelected":true}]},"subject":{"reference":"Patient/55a556cf-2cfa-4bc1-99cf-b3faa7a554ba"},"authoredOn":"2026-01-31T23:58:00.000+00:00","requester":{"reference":"Practitioner/f007","display":"Patrick Pump"}},"request":{"method":"PUT","url":"MedicationRequest/20401cbd-f907-4645-8c6a-24d0f311172e"}},{"fullUrl":"https://madie.cms.gov/Coverage/3ad44cfc-28ad-469c-8db1-436c6b480b5e","resource":{"resourceType":"Coverage","id":"3ad44cfc-28ad-469c-8db1-436c6b480b5e","meta":{"profile":["http://hl7.org/fhir/us/qicore/StructureDefinition/qicore-coverage"]},"status":"active","beneficiary":{"reference":"Patient/55a556cf-2cfa-4bc1-99cf-b3faa7a554ba"},"payor":[{"reference":"Organization/5224cb12-ed64-4d6d-ab28-40a64f0800f1"}]},"request":{"method":"PUT","url":"Coverage/3ad44cfc-28ad-469c-8db1-436c6b480b5e"}},{"fullUrl":"https://madie.cms.gov/Organization/ae17b1bc-aed5-49d4-bc7e-4fad25aa63db","resource":{"resourceType":"Organization","id":"5224cb12-ed64-4d6d-ab28-40a64f0800f1","meta":{"profile":["http://hl7.org/fhir/us/qicore/StructureDefinition/qicore-organization"]},"identifier":[{"use":"temp","system":"urn:oid:2.16.840.1.113883.4.4","value":"21-3259825"}],"active":true,"type":[{"coding":[{"system":"http://terminology.hl7.org/CodeSystem/organization-type","code":"pay","display":"Payer"}]}],"name":"Blue Cross Blue Shield of Texas","telecom":[{"system":"phone","value":"(+1) 972-766-6900"}],"address":[{"use":"billing","type":"postal","line":["P.O. Box 660044"],"city":"Dallas","state":"TX","postalCode":"75266-0044","country":"USA"}]},"request":{"method":"PUT","url":"Organization/5224cb12-ed64-4d6d-ab28-40a64f0800f1"}},{"fullUrl":"https://madie.cms.gov/MeasureReport/61dfa3d3-a851-4a54-951e-9497a73a63fe","resource":{"resourceType":"MeasureReport","id":"61dfa3d3-a851-4a54-951e-9497a73a63fe","meta":{"profile":["http://hl7.org/fhir/us/cqfmeasures/StructureDefinition/test-case-cqfm"]},"contained":[{"resourceType":"Parameters","id":"f0015399-2670-43fe-9873-a03c758d255d-parameters","parameter":[{"name":"subject","valueString":"55a556cf-2cfa-4bc1-99cf-b3faa7a554ba"}]}],"extension":[{"url":"http://hl7.org/fhir/us/cqfmeasures/StructureDefinition/cqfm-inputParameters","valueReference":{"reference":"#f0015399-2670-43fe-9873-a03c758d255d-parameters"}},{"url":"http://hl7.org/fhir/us/cqfmeasures/StructureDefinition/cqfm-testCaseDescription","valueMarkdown":"Encounter  12/29-12/31, 23:45-23:59,  2 opioids, same RxNorm code (not distinct)"}],"modifierExtension":[{"url":"http://hl7.org/fhir/us/cqfmeasures/StructureDefinition/cqfm-isTestCase","valueBoolean":true}],"status":"complete","type":"individual","measure":"https://madie.cms.gov/Measure/CMS506FHIRSafeUseofOpioids","period":{"start":"2026-01-01","end":"2026-12-31"},"group":[{"population":[{"code":{"coding":[{"system":"http://terminology.hl7.org/CodeSystem/measure-population","code":"initial-population","display":"Initial Population"}]},"count":1},{"code":{"coding":[{"system":"http://terminology.hl7.org/CodeSystem/measure-population","code":"denominator","display":"Denominator"}]},"count":1},{"code":{"coding":[{"system":"http://terminology.hl7.org/CodeSystem/measure-population","code":"denominator-exclusion","display":"Denominator Exclusion"}]},"count":0},{"code":{"coding":[{"system":"http://terminology.hl7.org/CodeSystem/measure-population","code":"numerator","display":"Numerator"}]},"count":0}]}]},"request":{"method":"PUT","url":"MeasureReport/61dfa3d3-a851-4a54-951e-9497a73a63fe"}}]}