{"resourceType":"Bundle","id":"tests-26b12d5b-823a-4a45-9f1d-d52aa26d27a7-bundle","type":"transaction","entry":[{"fullUrl":"https://madie.cms.gov/Patient/26b12d5b-823a-4a45-9f1d-d52aa26d27a7","resource":{"resourceType":"Patient","id":"26b12d5b-823a-4a45-9f1d-d52aa26d27a7","meta":{"profile":["http://hl7.org/fhir/us/qicore/StructureDefinition/qicore-patient"]},"extension":[{"url":"http://hl7.org/fhir/us/core/StructureDefinition/us-core-race","extension":[{"url":"ombCategory","valueCoding":{"system":"urn:oid:2.16.840.1.113883.6.238","code":"2054-5","display":"Black or African American","userSelected":true}},{"url":"text","valueString":"Black or African American"}]},{"url":"http://hl7.org/fhir/us/core/StructureDefinition/us-core-ethnicity","extension":[{"url":"ombCategory","valueCoding":{"system":"urn:oid:2.16.840.1.113883.6.238","code":"2186-5","display":"Not Hispanic or Latino","userSelected":true}},{"url":"text","valueString":"Not Hispanic or Latino"}]}],"identifier":[{"type":{"coding":[{"system":"http://terminology.hl7.org/CodeSystem/v2-0203","code":"MR"}]},"system":"https://bonnie-fhir.healthit.gov/","value":"632368e98d26c655c5601f01"}],"name":[{"family":"NUMERFail","given":["OpioidDuringEncBenzoAtDC"]}],"gender":"female","birthDate":"2006-12-31"},"request":{"method":"PUT","url":"Patient/26b12d5b-823a-4a45-9f1d-d52aa26d27a7"}},{"fullUrl":"https://madie.cms.gov/Encounter/df12ce5a-093c-410e-bcb4-2276af32e62a","resource":{"resourceType":"Encounter","id":"df12ce5a-093c-410e-bcb4-2276af32e62a","meta":{"profile":["http://hl7.org/fhir/us/qicore/StructureDefinition/qicore-encounter"]},"status":"finished","class":{"system":"http://terminology.hl7.org/CodeSystem/v3-ActCode","code":"IMP","display":"inpatient"},"type":[{"coding":[{"system":"http://snomed.info/sct","version":"2022-03","code":"183452005","display":"Emergency hospital admission (procedure)","userSelected":true}]}],"subject":{"reference":"Patient/26b12d5b-823a-4a45-9f1d-d52aa26d27a7"},"period":{"start":"2026-01-01T00:00:00.000+00:00","end":"2026-01-02T00:15:00.000+00:00"}},"request":{"method":"PUT","url":"Encounter/df12ce5a-093c-410e-bcb4-2276af32e62a"}},{"fullUrl":"https://madie.cms.gov/MedicationRequest/3f3ede15-1a77-4ac0-9d29-ac13932456db","resource":{"resourceType":"MedicationRequest","id":"3f3ede15-1a77-4ac0-9d29-ac13932456db","meta":{"profile":["http://hl7.org/fhir/us/qicore/StructureDefinition/qicore-medicationrequest"]},"status":"active","intent":"order","category":[{"coding":[{"system":"http://terminology.hl7.org/CodeSystem/medicationrequest-category","code":"inpatient","display":"Inpatient","userSelected":true}]}],"doNotPerform":false,"medicationCodeableConcept":{"coding":[{"system":"http://www.nlm.nih.gov/research/umls/rxnorm","version":"2022-08","code":"1014632","display":"acetaminophen 300 MG / oxycodone hydrochloride 7.5 MG Oral Tablet","userSelected":true}]},"subject":{"reference":"Patient/26b12d5b-823a-4a45-9f1d-d52aa26d27a7"},"authoredOn":"2026-01-02T00:15:00.000+00:00","requester":{"reference":"Practitioner/f007","display":"Patrick Pump"}},"request":{"method":"PUT","url":"MedicationRequest/3f3ede15-1a77-4ac0-9d29-ac13932456db"}},{"fullUrl":"https://madie.cms.gov/MedicationRequest/33ea92bc-59b3-4b55-85af-035b9c46ab93","resource":{"resourceType":"MedicationRequest","id":"33ea92bc-59b3-4b55-85af-035b9c46ab93","meta":{"profile":["http://hl7.org/fhir/us/qicore/StructureDefinition/qicore-medicationrequest"]},"status":"active","intent":"order","category":[{"coding":[{"system":"http://terminology.hl7.org/CodeSystem/medicationrequest-category","code":"community","display":"Community","userSelected":true}]}],"doNotPerform":false,"medicationCodeableConcept":{"coding":[{"system":"http://www.nlm.nih.gov/research/umls/rxnorm","code":"1298088","display":"flurazepam hydrochloride 15 MG Oral Capsule","userSelected":true}]},"subject":{"reference":"Patient/26b12d5b-823a-4a45-9f1d-d52aa26d27a7"},"authoredOn":"2026-01-02T00:10:00.000+00:00","requester":{"reference":"Practitioner/f007","display":"Patrick Pump"}},"request":{"method":"PUT","url":"MedicationRequest/33ea92bc-59b3-4b55-85af-035b9c46ab93"}},{"fullUrl":"https://madie.cms.gov/Coverage/0dfccd1d-2e64-4ee3-9d5f-f41fb8f5e4e3","resource":{"resourceType":"Coverage","id":"0dfccd1d-2e64-4ee3-9d5f-f41fb8f5e4e3","meta":{"profile":["http://hl7.org/fhir/us/qicore/StructureDefinition/qicore-coverage"]},"status":"active","beneficiary":{"reference":"Patient/26b12d5b-823a-4a45-9f1d-d52aa26d27a7"},"payor":[{"reference":"Organization/9e9b3f13-a353-4173-b29b-947d6f1f2031"}]},"request":{"method":"PUT","url":"Coverage/0dfccd1d-2e64-4ee3-9d5f-f41fb8f5e4e3"}},{"fullUrl":"https://madie.cms.gov/Organization/ae2e65a6-8c2f-4b65-b5c4-c3caee65ad76","resource":{"resourceType":"Organization","id":"9e9b3f13-a353-4173-b29b-947d6f1f2031","meta":{"profile":["http://hl7.org/fhir/us/qicore/StructureDefinition/qicore-organization"]},"identifier":[{"use":"temp","system":"urn:oid:2.16.840.1.113883.4.4","value":"21-3259825"}],"active":true,"type":[{"coding":[{"system":"http://terminology.hl7.org/CodeSystem/organization-type","code":"pay","display":"Payer"}]}],"name":"Blue Cross Blue Shield of Texas","telecom":[{"system":"phone","value":"(+1) 972-766-6900"}],"address":[{"use":"billing","type":"postal","line":["P.O. Box 660044"],"city":"Dallas","state":"TX","postalCode":"75266-0044","country":"USA"}]},"request":{"method":"PUT","url":"Organization/9e9b3f13-a353-4173-b29b-947d6f1f2031"}},{"fullUrl":"https://madie.cms.gov/MeasureReport/cef9b3f7-cf02-4232-b6a6-7ee66d483956","resource":{"resourceType":"MeasureReport","id":"cef9b3f7-cf02-4232-b6a6-7ee66d483956","meta":{"profile":["http://hl7.org/fhir/us/cqfmeasures/StructureDefinition/test-case-cqfm"]},"contained":[{"resourceType":"Parameters","id":"d2ccb88c-bcb2-4c69-b412-307166887e94-parameters","parameter":[{"name":"subject","valueString":"26b12d5b-823a-4a45-9f1d-d52aa26d27a7"}]}],"extension":[{"url":"http://hl7.org/fhir/us/cqfmeasures/StructureDefinition/cqfm-inputParameters","valueReference":{"reference":"#d2ccb88c-bcb2-4c69-b412-307166887e94-parameters"}},{"url":"http://hl7.org/fhir/us/cqfmeasures/StructureDefinition/cqfm-testCaseDescription","valueMarkdown":"Inpatient enc first day of MP. Opioid category \"inpatient\" (consumed in inpatient setting) and Benzo prescribed at discharge. "}],"modifierExtension":[{"url":"http://hl7.org/fhir/us/cqfmeasures/StructureDefinition/cqfm-isTestCase","valueBoolean":true}],"status":"complete","type":"individual","measure":"https://madie.cms.gov/Measure/CMS506FHIRSafeUseofOpioids","period":{"start":"2026-01-01","end":"2026-12-31"},"group":[{"population":[{"code":{"coding":[{"system":"http://terminology.hl7.org/CodeSystem/measure-population","code":"initial-population","display":"Initial Population"}]},"count":1},{"code":{"coding":[{"system":"http://terminology.hl7.org/CodeSystem/measure-population","code":"denominator","display":"Denominator"}]},"count":1},{"code":{"coding":[{"system":"http://terminology.hl7.org/CodeSystem/measure-population","code":"denominator-exclusion","display":"Denominator Exclusion"}]},"count":0},{"code":{"coding":[{"system":"http://terminology.hl7.org/CodeSystem/measure-population","code":"numerator","display":"Numerator"}]},"count":0}]}]},"request":{"method":"PUT","url":"MeasureReport/cef9b3f7-cf02-4232-b6a6-7ee66d483956"}}]}