{"resourceType":"Bundle","id":"tests-d2a44b64-1c9e-4e36-855b-8451803afcf2-bundle","type":"transaction","entry":[{"fullUrl":"https://madie.cms.gov/Patient/d2a44b64-1c9e-4e36-855b-8451803afcf2","resource":{"resourceType":"Patient","id":"d2a44b64-1c9e-4e36-855b-8451803afcf2","meta":{"profile":["http://hl7.org/fhir/us/qicore/StructureDefinition/qicore-patient"]},"extension":[{"url":"http://hl7.org/fhir/us/core/StructureDefinition/us-core-race","extension":[{"url":"ombCategory","valueCoding":{"system":"urn:oid:2.16.840.1.113883.6.238","code":"1002-5","display":"American Indian or Alaska Native","userSelected":true}},{"url":"text","valueString":"American Indian or Alaska Native"}]},{"url":"http://hl7.org/fhir/us/core/StructureDefinition/us-core-ethnicity","extension":[{"url":"ombCategory","valueCoding":{"system":"urn:oid:2.16.840.1.113883.6.238","code":"2135-2","display":"Hispanic or Latino","userSelected":true}},{"url":"text","valueString":"Hispanic or Latino"}]}],"identifier":[{"type":{"coding":[{"system":"http://terminology.hl7.org/CodeSystem/v2-0203","code":"MR"}]},"system":"https://bonnie-fhir.healthit.gov/","value":"63231ae12a56ae63756a53ee"}],"name":[{"family":"IPPFail","given":["EncounterInProgress"]}],"gender":"male","birthDate":"2006-12-31"},"request":{"method":"PUT","url":"Patient/d2a44b64-1c9e-4e36-855b-8451803afcf2"}},{"fullUrl":"https://madie.cms.gov/Encounter/17cac392-cfa4-41a3-bd67-d1a605a1fae9","resource":{"resourceType":"Encounter","id":"17cac392-cfa4-41a3-bd67-d1a605a1fae9","meta":{"profile":["http://hl7.org/fhir/us/qicore/StructureDefinition/qicore-encounter"]},"status":"in-progress","class":{"system":"http://terminology.hl7.org/CodeSystem/v3-ActCode","code":"AMB","display":"ambulatory"},"type":[{"coding":[{"system":"http://snomed.info/sct","version":"2022-03","code":"183452005","display":"Emergency hospital admission (procedure)","userSelected":true}]}],"subject":{"reference":"Patient/d2a44b64-1c9e-4e36-855b-8451803afcf2"},"period":{"start":"2026-01-01T00:01:00.000+00:00","end":"2026-01-05T00:30:00.000+00:00"}},"request":{"method":"PUT","url":"Encounter/17cac392-cfa4-41a3-bd67-d1a605a1fae9"}},{"fullUrl":"https://madie.cms.gov/MedicationRequest/c58c7a58-4176-4c15-b779-d9d56ebdcba7","resource":{"resourceType":"MedicationRequest","id":"c58c7a58-4176-4c15-b779-d9d56ebdcba7","meta":{"profile":["http://hl7.org/fhir/us/qicore/StructureDefinition/qicore-medicationrequest"]},"status":"active","intent":"order","category":[{"coding":[{"system":"http://terminology.hl7.org/CodeSystem/medicationrequest-category","code":"discharge","display":"Discharge","userSelected":true}]}],"doNotPerform":false,"medicationCodeableConcept":{"coding":[{"system":"http://www.nlm.nih.gov/research/umls/rxnorm","version":"2022-08","code":"1014632","display":"acetaminophen 300 MG / oxycodone hydrochloride 7.5 MG Oral Tablet","userSelected":true}]},"subject":{"reference":"Patient/d2a44b64-1c9e-4e36-855b-8451803afcf2"},"authoredOn":"2026-01-05T00:29:00.000+00:00","requester":{"reference":"Practitioner/f007","display":"Patrick Pump"}},"request":{"method":"PUT","url":"MedicationRequest/c58c7a58-4176-4c15-b779-d9d56ebdcba7"}},{"fullUrl":"https://madie.cms.gov/Coverage/8566dc92-1037-4aed-a2cb-85a9bbf73694","resource":{"resourceType":"Coverage","id":"8566dc92-1037-4aed-a2cb-85a9bbf73694","meta":{"profile":["http://hl7.org/fhir/us/qicore/StructureDefinition/qicore-coverage"]},"status":"active","beneficiary":{"reference":"Patient/d2a44b64-1c9e-4e36-855b-8451803afcf2"},"payor":[{"reference":"Organization/3778262e-e084-4bb5-9a47-1a144735f786"}]},"request":{"method":"PUT","url":"Coverage/8566dc92-1037-4aed-a2cb-85a9bbf73694"}},{"fullUrl":"https://madie.cms.gov/Organization/b6d5380e-3ff0-4d09-a93b-2e884ead8d46","resource":{"resourceType":"Organization","id":"3778262e-e084-4bb5-9a47-1a144735f786","meta":{"profile":["http://hl7.org/fhir/us/qicore/StructureDefinition/qicore-organization"]},"identifier":[{"use":"temp","system":"urn:oid:2.16.840.1.113883.4.4","value":"21-3259825"}],"active":true,"type":[{"coding":[{"system":"http://terminology.hl7.org/CodeSystem/organization-type","code":"pay","display":"Payer"}]}],"name":"Blue Cross Blue Shield of Texas","telecom":[{"system":"phone","value":"(+1) 972-766-6900"}],"address":[{"use":"billing","type":"postal","line":["P.O. Box 660044"],"city":"Dallas","state":"TX","postalCode":"75266-0044","country":"USA"}]},"request":{"method":"PUT","url":"Organization/3778262e-e084-4bb5-9a47-1a144735f786"}},{"fullUrl":"https://madie.cms.gov/MeasureReport/60133e83-482c-437e-ae0f-aaa056c1ad40","resource":{"resourceType":"MeasureReport","id":"60133e83-482c-437e-ae0f-aaa056c1ad40","meta":{"profile":["http://hl7.org/fhir/us/cqfmeasures/StructureDefinition/test-case-cqfm"]},"contained":[{"resourceType":"Parameters","id":"b7e3aa1f-b55a-49c8-b332-f2c16abd0eb9-parameters","parameter":[{"name":"subject","valueString":"d2a44b64-1c9e-4e36-855b-8451803afcf2"}]}],"extension":[{"url":"http://hl7.org/fhir/us/cqfmeasures/StructureDefinition/cqfm-inputParameters","valueReference":{"reference":"#b7e3aa1f-b55a-49c8-b332-f2c16abd0eb9-parameters"}},{"url":"http://hl7.org/fhir/us/cqfmeasures/StructureDefinition/cqfm-testCaseDescription","valueMarkdown":"Encounter during the MP but status is \"in-progress\", opioid prescribed day of encounter"}],"modifierExtension":[{"url":"http://hl7.org/fhir/us/cqfmeasures/StructureDefinition/cqfm-isTestCase","valueBoolean":true}],"status":"complete","type":"individual","measure":"https://madie.cms.gov/Measure/CMS506FHIRSafeUseofOpioids","period":{"start":"2026-01-01","end":"2026-12-31"},"group":[{"population":[{"code":{"coding":[{"system":"http://terminology.hl7.org/CodeSystem/measure-population","code":"initial-population","display":"Initial Population"}]},"count":0},{"code":{"coding":[{"system":"http://terminology.hl7.org/CodeSystem/measure-population","code":"denominator","display":"Denominator"}]},"count":0},{"code":{"coding":[{"system":"http://terminology.hl7.org/CodeSystem/measure-population","code":"denominator-exclusion","display":"Denominator Exclusion"}]},"count":0},{"code":{"coding":[{"system":"http://terminology.hl7.org/CodeSystem/measure-population","code":"numerator","display":"Numerator"}]},"count":0}]}]},"request":{"method":"PUT","url":"MeasureReport/60133e83-482c-437e-ae0f-aaa056c1ad40"}}]}