{"resourceType":"Bundle","id":"tests-c76109c0-69a9-4e18-9edf-0419890e09e6-bundle","type":"transaction","entry":[{"fullUrl":"https://madie.cms.gov/Patient/c76109c0-69a9-4e18-9edf-0419890e09e6","resource":{"resourceType":"Patient","id":"c76109c0-69a9-4e18-9edf-0419890e09e6","meta":{"profile":["http://hl7.org/fhir/us/qicore/StructureDefinition/qicore-patient"]},"extension":[{"url":"http://hl7.org/fhir/us/core/StructureDefinition/us-core-race","extension":[{"url":"ombCategory","valueCoding":{"system":"urn:oid:2.16.840.1.113883.6.238","code":"1002-5","display":"American Indian or Alaska Native","userSelected":true}},{"url":"text","valueString":"American Indian or Alaska Native"}]},{"url":"http://hl7.org/fhir/us/core/StructureDefinition/us-core-ethnicity","extension":[{"url":"ombCategory","valueCoding":{"system":"urn:oid:2.16.840.1.113883.6.238","code":"2186-5","display":"Not Hispanic or Latino","userSelected":true}},{"url":"text","valueString":"Not Hispanic or Latino"}]}],"identifier":[{"type":{"coding":[{"system":"http://terminology.hl7.org/CodeSystem/v2-0203","code":"MR"}]},"system":"https://bonnie-fhir.healthit.gov/","value":"632325cf414ba67d4e1d1c24"}],"name":[{"family":"DENOMFail","given":["EncounterNoOpioid"]}],"gender":"female","birthDate":"2005-01-01"},"request":{"method":"PUT","url":"Patient/c76109c0-69a9-4e18-9edf-0419890e09e6"}},{"fullUrl":"https://madie.cms.gov/Encounter/c206c8c9-0635-48ae-8e97-77b8ba44636f","resource":{"resourceType":"Encounter","id":"c206c8c9-0635-48ae-8e97-77b8ba44636f","meta":{"profile":["http://hl7.org/fhir/us/qicore/StructureDefinition/qicore-encounter"]},"status":"finished","class":{"system":"http://terminology.hl7.org/CodeSystem/v3-ActCode","code":"AMB","display":"ambulatory"},"type":[{"coding":[{"system":"http://snomed.info/sct","version":"2022-03","code":"183452005","display":"Emergency hospital admission (procedure)","userSelected":true}]}],"subject":{"reference":"Patient/c76109c0-69a9-4e18-9edf-0419890e09e6"},"period":{"start":"2026-01-01T00:00:00.000+00:00","end":"2026-01-03T00:30:00.000+00:00"}},"request":{"method":"PUT","url":"Encounter/c206c8c9-0635-48ae-8e97-77b8ba44636f"}},{"fullUrl":"https://madie.cms.gov/Coverage/17a76a40-086a-4dc3-9c6c-750fb3ad384e","resource":{"resourceType":"Coverage","id":"17a76a40-086a-4dc3-9c6c-750fb3ad384e","meta":{"profile":["http://hl7.org/fhir/us/qicore/StructureDefinition/qicore-coverage"]},"status":"active","beneficiary":{"reference":"Patient/c76109c0-69a9-4e18-9edf-0419890e09e6"},"payor":[{"reference":"Organization/aeb2c6be-6577-4bba-a6b6-6eab95111f1b"}]},"request":{"method":"PUT","url":"Coverage/17a76a40-086a-4dc3-9c6c-750fb3ad384e"}},{"fullUrl":"https://madie.cms.gov/Organization/2895e32e-d976-4f01-b1ef-b9ee05c5e643","resource":{"resourceType":"Organization","id":"aeb2c6be-6577-4bba-a6b6-6eab95111f1b","meta":{"profile":["http://hl7.org/fhir/us/qicore/StructureDefinition/qicore-organization"]},"identifier":[{"use":"temp","system":"urn:oid:2.16.840.1.113883.4.4","value":"21-3259825"}],"active":true,"type":[{"coding":[{"system":"http://terminology.hl7.org/CodeSystem/organization-type","code":"pay","display":"Payer"}]}],"name":"Blue Cross Blue Shield of Texas","telecom":[{"system":"phone","value":"(+1) 972-766-6900"}],"address":[{"use":"billing","type":"postal","line":["P.O. Box 660044"],"city":"Dallas","state":"TX","postalCode":"75266-0044","country":"USA"}]},"request":{"method":"PUT","url":"Organization/aeb2c6be-6577-4bba-a6b6-6eab95111f1b"}},{"fullUrl":"https://madie.cms.gov/MeasureReport/4e498e4c-b312-494a-b039-d541cd6a324f","resource":{"resourceType":"MeasureReport","id":"4e498e4c-b312-494a-b039-d541cd6a324f","meta":{"profile":["http://hl7.org/fhir/us/cqfmeasures/StructureDefinition/test-case-cqfm"]},"contained":[{"resourceType":"Parameters","id":"53431f46-91d9-41da-ab97-dd0de2155a91-parameters","parameter":[{"name":"subject","valueString":"c76109c0-69a9-4e18-9edf-0419890e09e6"}]}],"extension":[{"url":"http://hl7.org/fhir/us/cqfmeasures/StructureDefinition/cqfm-inputParameters","valueReference":{"reference":"#53431f46-91d9-41da-ab97-dd0de2155a91-parameters"}},{"url":"http://hl7.org/fhir/us/cqfmeasures/StructureDefinition/cqfm-testCaseDescription","valueMarkdown":"Encounter 1/1 - 1/3,, age 18, no opioid or benzo."}],"modifierExtension":[{"url":"http://hl7.org/fhir/us/cqfmeasures/StructureDefinition/cqfm-isTestCase","valueBoolean":true}],"status":"complete","type":"individual","measure":"https://madie.cms.gov/Measure/CMS506FHIRSafeUseofOpioids","period":{"start":"2026-01-01","end":"2026-12-31"},"group":[{"population":[{"code":{"coding":[{"system":"http://terminology.hl7.org/CodeSystem/measure-population","code":"initial-population","display":"Initial Population"}]},"count":0},{"code":{"coding":[{"system":"http://terminology.hl7.org/CodeSystem/measure-population","code":"denominator","display":"Denominator"}]},"count":0},{"code":{"coding":[{"system":"http://terminology.hl7.org/CodeSystem/measure-population","code":"denominator-exclusion","display":"Denominator Exclusion"}]},"count":0},{"code":{"coding":[{"system":"http://terminology.hl7.org/CodeSystem/measure-population","code":"numerator","display":"Numerator"}]},"count":0}]}]},"request":{"method":"PUT","url":"MeasureReport/4e498e4c-b312-494a-b039-d541cd6a324f"}}]}