{"resourceType":"Bundle","id":"tests-dde136d4-fa51-4b59-9bef-21dc51caf3d5-bundle","type":"transaction","entry":[{"fullUrl":"https://madie.cms.gov/Patient/dde136d4-fa51-4b59-9bef-21dc51caf3d5","resource":{"resourceType":"Patient","id":"dde136d4-fa51-4b59-9bef-21dc51caf3d5","meta":{"profile":["http://hl7.org/fhir/us/qicore/StructureDefinition/qicore-patient"]},"extension":[{"url":"http://hl7.org/fhir/us/core/StructureDefinition/us-core-race","extension":[{"url":"ombCategory","valueCoding":{"system":"urn:oid:2.16.840.1.113883.6.238","code":"1002-5","display":"American Indian or Alaska Native","userSelected":true}},{"url":"text","valueString":"American Indian or Alaska Native"}]},{"url":"http://hl7.org/fhir/us/core/StructureDefinition/us-core-ethnicity","extension":[{"url":"ombCategory","valueCoding":{"system":"urn:oid:2.16.840.1.113883.6.238","code":"2135-2","display":"Hispanic or Latino","userSelected":true}},{"url":"text","valueString":"Hispanic or Latino"}]}],"identifier":[{"type":{"coding":[{"system":"http://terminology.hl7.org/CodeSystem/v2-0203","code":"MR"}]},"system":"https://bonnie-fhir.healthit.gov/","value":"63236cd48d26c655c5601f06"}],"name":[{"family":"NUMERFail","given":["2Opioids1MissingCategory"]}],"gender":"male","birthDate":"2006-12-31"},"request":{"method":"PUT","url":"Patient/dde136d4-fa51-4b59-9bef-21dc51caf3d5"}},{"fullUrl":"https://madie.cms.gov/Encounter/406f866e-12c9-4bc7-9fd5-cbcb802aea7b","resource":{"resourceType":"Encounter","id":"406f866e-12c9-4bc7-9fd5-cbcb802aea7b","meta":{"profile":["http://hl7.org/fhir/us/qicore/StructureDefinition/qicore-encounter"]},"status":"finished","class":{"system":"http://terminology.hl7.org/CodeSystem/v3-ActCode","code":"AMB","display":"ambulatory"},"type":[{"coding":[{"system":"http://snomed.info/sct","version":"2022-03","code":"183452005","display":"Emergency hospital admission (procedure)","userSelected":true}]}],"subject":{"reference":"Patient/dde136d4-fa51-4b59-9bef-21dc51caf3d5"},"period":{"start":"2026-01-01T00:00:00.000+00:00","end":"2026-01-03T00:30:00.000+00:00"}},"request":{"method":"PUT","url":"Encounter/406f866e-12c9-4bc7-9fd5-cbcb802aea7b"}},{"fullUrl":"https://madie.cms.gov/MedicationRequest/15966c7d-ba4b-486d-b65a-c1b581f3bd46","resource":{"resourceType":"MedicationRequest","id":"15966c7d-ba4b-486d-b65a-c1b581f3bd46","meta":{"profile":["http://hl7.org/fhir/us/qicore/StructureDefinition/qicore-medicationrequest"]},"status":"active","intent":"order","category":[{"coding":[{"system":"http://terminology.hl7.org/CodeSystem/medicationrequest-category","code":"discharge","display":"Discharge","userSelected":true}]}],"doNotPerform":false,"medicationCodeableConcept":{"coding":[{"system":"http://www.nlm.nih.gov/research/umls/rxnorm","version":"2022-08","code":"1014632","display":"acetaminophen 300 MG / oxycodone hydrochloride 7.5 MG Oral Tablet","userSelected":true}]},"subject":{"reference":"Patient/dde136d4-fa51-4b59-9bef-21dc51caf3d5"},"authoredOn":"2026-01-03T00:01:00.000+00:00","requester":{"reference":"Practitioner/f007","display":"Patrick Pump"}},"request":{"method":"PUT","url":"MedicationRequest/15966c7d-ba4b-486d-b65a-c1b581f3bd46"}},{"fullUrl":"https://madie.cms.gov/MedicationRequest/1f35c8cf-c1ce-4810-b393-02e55e9cb0b3","resource":{"resourceType":"MedicationRequest","id":"1f35c8cf-c1ce-4810-b393-02e55e9cb0b3","meta":{"profile":["http://hl7.org/fhir/us/qicore/StructureDefinition/qicore-medicationrequest"]},"status":"active","intent":"order","doNotPerform":false,"medicationCodeableConcept":{"coding":[{"system":"http://www.nlm.nih.gov/research/umls/rxnorm","code":"1014599","display":"acetaminophen 300 MG / oxycodone hydrochloride 10 MG Oral Tablet","userSelected":true}]},"subject":{"reference":"Patient/dde136d4-fa51-4b59-9bef-21dc51caf3d5"},"authoredOn":"2026-01-03T00:15:00.000+00:00","requester":{"reference":"Practitioner/f007","display":"Patrick Pump"}},"request":{"method":"PUT","url":"MedicationRequest/1f35c8cf-c1ce-4810-b393-02e55e9cb0b3"}},{"fullUrl":"https://madie.cms.gov/Coverage/1628ad02-fbb3-4b75-ad69-1e04ada37d43","resource":{"resourceType":"Coverage","id":"1628ad02-fbb3-4b75-ad69-1e04ada37d43","meta":{"profile":["http://hl7.org/fhir/us/qicore/StructureDefinition/qicore-coverage"]},"status":"active","beneficiary":{"reference":"Patient/dde136d4-fa51-4b59-9bef-21dc51caf3d5"},"payor":[{"reference":"Organization/4d7da20f-8773-4347-8f6b-80adcdcee1f4"}]},"request":{"method":"PUT","url":"Coverage/1628ad02-fbb3-4b75-ad69-1e04ada37d43"}},{"fullUrl":"https://madie.cms.gov/Organization/b4b23f22-4e82-49ac-9684-a92efdea6d4f","resource":{"resourceType":"Organization","id":"4d7da20f-8773-4347-8f6b-80adcdcee1f4","meta":{"profile":["http://hl7.org/fhir/us/qicore/StructureDefinition/qicore-organization"]},"identifier":[{"use":"temp","system":"urn:oid:2.16.840.1.113883.4.4","value":"21-3259825"}],"active":true,"type":[{"coding":[{"system":"http://terminology.hl7.org/CodeSystem/organization-type","code":"pay","display":"Payer"}]}],"name":"Blue Cross Blue Shield of Texas","telecom":[{"system":"phone","value":"(+1) 972-766-6900"}],"address":[{"use":"billing","type":"postal","line":["P.O. Box 660044"],"city":"Dallas","state":"TX","postalCode":"75266-0044","country":"USA"}]},"request":{"method":"PUT","url":"Organization/4d7da20f-8773-4347-8f6b-80adcdcee1f4"}},{"fullUrl":"https://madie.cms.gov/MeasureReport/76f7acbc-be13-4056-9595-2aa296d8a2d9","resource":{"resourceType":"MeasureReport","id":"76f7acbc-be13-4056-9595-2aa296d8a2d9","meta":{"profile":["http://hl7.org/fhir/us/cqfmeasures/StructureDefinition/test-case-cqfm"]},"contained":[{"resourceType":"Parameters","id":"5779d85f-79cd-4437-9d43-a6d8f35d4194-parameters","parameter":[{"name":"subject","valueString":"dde136d4-fa51-4b59-9bef-21dc51caf3d5"}]}],"extension":[{"url":"http://hl7.org/fhir/us/cqfmeasures/StructureDefinition/cqfm-inputParameters","valueReference":{"reference":"#5779d85f-79cd-4437-9d43-a6d8f35d4194-parameters"}},{"url":"http://hl7.org/fhir/us/cqfmeasures/StructureDefinition/cqfm-testCaseDescription","valueMarkdown":"Encounter 1/1 - 1/3, age 18 one day before MP, 2 distinct opioids, 1 with missing category"}],"modifierExtension":[{"url":"http://hl7.org/fhir/us/cqfmeasures/StructureDefinition/cqfm-isTestCase","valueBoolean":true}],"status":"complete","type":"individual","measure":"https://madie.cms.gov/Measure/CMS506FHIRSafeUseofOpioids","period":{"start":"2026-01-01","end":"2026-12-31"},"group":[{"population":[{"code":{"coding":[{"system":"http://terminology.hl7.org/CodeSystem/measure-population","code":"initial-population","display":"Initial Population"}]},"count":1},{"code":{"coding":[{"system":"http://terminology.hl7.org/CodeSystem/measure-population","code":"denominator","display":"Denominator"}]},"count":1},{"code":{"coding":[{"system":"http://terminology.hl7.org/CodeSystem/measure-population","code":"denominator-exclusion","display":"Denominator Exclusion"}]},"count":0},{"code":{"coding":[{"system":"http://terminology.hl7.org/CodeSystem/measure-population","code":"numerator","display":"Numerator"}]},"count":0}]}]},"request":{"method":"PUT","url":"MeasureReport/76f7acbc-be13-4056-9595-2aa296d8a2d9"}}]}