{"resourceType":"Bundle","id":"tests-412e213e-a1ef-4e5d-ac46-fa7e741cf160-bundle","type":"transaction","entry":[{"fullUrl":"https://madie.cms.gov/Patient/412e213e-a1ef-4e5d-ac46-fa7e741cf160","resource":{"resourceType":"Patient","id":"412e213e-a1ef-4e5d-ac46-fa7e741cf160","meta":{"profile":["http://hl7.org/fhir/us/qicore/StructureDefinition/qicore-patient"]},"extension":[{"url":"http://hl7.org/fhir/us/core/StructureDefinition/us-core-race","extension":[{"url":"ombCategory","valueCoding":{"system":"urn:oid:2.16.840.1.113883.6.238","code":"1002-5","display":"American Indian or Alaska Native","userSelected":true}},{"url":"text","valueString":"American Indian or Alaska Native"}]},{"url":"http://hl7.org/fhir/us/core/StructureDefinition/us-core-ethnicity","extension":[{"url":"ombCategory","valueCoding":{"system":"urn:oid:2.16.840.1.113883.6.238","code":"2135-2","display":"Hispanic or Latino","userSelected":true}},{"url":"text","valueString":"Hispanic or Latino"}]}],"identifier":[{"type":{"coding":[{"system":"http://terminology.hl7.org/CodeSystem/v2-0203","code":"MR"}]},"system":"https://bonnie-fhir.healthit.gov/","value":"6323489059967e30c06d0774"}],"name":[{"family":"NUMERPass","given":["2OpioidsLastMinuteOfMP"]}],"gender":"male","birthDate":"2006-09-15"},"request":{"method":"PUT","url":"Patient/412e213e-a1ef-4e5d-ac46-fa7e741cf160"}},{"fullUrl":"https://madie.cms.gov/Encounter/5c8aefee-dac7-4e38-b146-7e3a24bfe81c","resource":{"resourceType":"Encounter","id":"5c8aefee-dac7-4e38-b146-7e3a24bfe81c","meta":{"profile":["http://hl7.org/fhir/us/qicore/StructureDefinition/qicore-encounter"]},"status":"finished","class":{"system":"http://terminology.hl7.org/CodeSystem/v3-ActCode","code":"IMP","display":"inpatient"},"type":[{"coding":[{"system":"http://snomed.info/sct","version":"2022-03","code":"183452005","display":"Emergency hospital admission (procedure)","userSelected":true}]}],"subject":{"reference":"Patient/412e213e-a1ef-4e5d-ac46-fa7e741cf160"},"period":{"start":"2026-12-31T23:30:00.000+00:00","end":"2026-12-31T23:59:00.000+00:00"}},"request":{"method":"PUT","url":"Encounter/5c8aefee-dac7-4e38-b146-7e3a24bfe81c"}},{"fullUrl":"https://madie.cms.gov/MedicationRequest/daef6581-bf22-4c13-8d7d-834bdbff132a","resource":{"resourceType":"MedicationRequest","id":"daef6581-bf22-4c13-8d7d-834bdbff132a","meta":{"profile":["http://hl7.org/fhir/us/qicore/StructureDefinition/qicore-medicationrequest"]},"status":"active","intent":"order","category":[{"coding":[{"system":"http://terminology.hl7.org/CodeSystem/medicationrequest-category","code":"discharge","display":"Discharge","userSelected":true}]}],"doNotPerform":false,"medicationCodeableConcept":{"coding":[{"system":"http://www.nlm.nih.gov/research/umls/rxnorm","version":"2022-08","code":"1014632","display":"acetaminophen 300 MG / oxycodone hydrochloride 7.5 MG Oral Tablet","userSelected":true}]},"subject":{"reference":"Patient/412e213e-a1ef-4e5d-ac46-fa7e741cf160"},"authoredOn":"2026-12-31T23:59:00.000+00:00","requester":{"reference":"Practitioner/f007","display":"Patrick Pump"}},"request":{"method":"PUT","url":"MedicationRequest/daef6581-bf22-4c13-8d7d-834bdbff132a"}},{"fullUrl":"https://madie.cms.gov/MedicationRequest/00efd84d-a77c-4f1b-ba70-2ecce14dbf80","resource":{"resourceType":"MedicationRequest","id":"00efd84d-a77c-4f1b-ba70-2ecce14dbf80","meta":{"profile":["http://hl7.org/fhir/us/qicore/StructureDefinition/qicore-medicationrequest"]},"status":"active","intent":"order","category":[{"coding":[{"system":"http://terminology.hl7.org/CodeSystem/medicationrequest-category","code":"discharge","display":"Discharge","userSelected":true}]}],"doNotPerform":false,"medicationCodeableConcept":{"coding":[{"system":"http://www.nlm.nih.gov/research/umls/rxnorm","version":"2022-08","code":"863845","display":"Abuse-Deterrent morphine sulfate 100 MG / naltrexone hydrochloride 4 MG Extended Release Oral Capsule","userSelected":true}]},"subject":{"reference":"Patient/412e213e-a1ef-4e5d-ac46-fa7e741cf160"},"authoredOn":"2026-12-31T23:59:00.000+00:00","requester":{"reference":"Practitioner/f007","display":"Patrick Pump"}},"request":{"method":"PUT","url":"MedicationRequest/00efd84d-a77c-4f1b-ba70-2ecce14dbf80"}},{"fullUrl":"https://madie.cms.gov/Coverage/4bb18a21-3681-4c3d-91de-b6f6ce00774d","resource":{"resourceType":"Coverage","id":"4bb18a21-3681-4c3d-91de-b6f6ce00774d","meta":{"profile":["http://hl7.org/fhir/us/qicore/StructureDefinition/qicore-coverage"]},"status":"active","beneficiary":{"reference":"Patient/412e213e-a1ef-4e5d-ac46-fa7e741cf160"},"payor":[{"reference":"Organization/33ead57e-5e04-40e4-95ea-bc3cdbd58917"}]},"request":{"method":"PUT","url":"Coverage/4bb18a21-3681-4c3d-91de-b6f6ce00774d"}},{"fullUrl":"https://madie.cms.gov/Organization/5aae3c5f-6a68-4c02-a420-75286ecf153e","resource":{"resourceType":"Organization","id":"33ead57e-5e04-40e4-95ea-bc3cdbd58917","meta":{"profile":["http://hl7.org/fhir/us/qicore/StructureDefinition/qicore-organization"]},"identifier":[{"use":"temp","system":"urn:oid:2.16.840.1.113883.4.4","value":"21-3259825"}],"active":true,"type":[{"coding":[{"system":"http://terminology.hl7.org/CodeSystem/organization-type","code":"pay","display":"Payer"}]}],"name":"Blue Cross Blue Shield of Texas","telecom":[{"system":"phone","value":"(+1) 972-766-6900"}],"address":[{"use":"billing","type":"postal","line":["P.O. Box 660044"],"city":"Dallas","state":"TX","postalCode":"75266-0044","country":"USA"}]},"request":{"method":"PUT","url":"Organization/33ead57e-5e04-40e4-95ea-bc3cdbd58917"}},{"fullUrl":"https://madie.cms.gov/MeasureReport/1aaf4069-6a92-454e-9c69-4785e7d28b0f","resource":{"resourceType":"MeasureReport","id":"1aaf4069-6a92-454e-9c69-4785e7d28b0f","meta":{"profile":["http://hl7.org/fhir/us/cqfmeasures/StructureDefinition/test-case-cqfm"]},"contained":[{"resourceType":"Parameters","id":"c955b7f1-ce7b-4452-abae-19b44d9bdd1d-parameters","parameter":[{"name":"subject","valueString":"412e213e-a1ef-4e5d-ac46-fa7e741cf160"}]}],"extension":[{"url":"http://hl7.org/fhir/us/cqfmeasures/StructureDefinition/cqfm-inputParameters","valueReference":{"reference":"#c955b7f1-ce7b-4452-abae-19b44d9bdd1d-parameters"}},{"url":"http://hl7.org/fhir/us/cqfmeasures/StructureDefinition/cqfm-testCaseDescription","valueMarkdown":"Encounter last days of MP, opioid prescribed 12/31 @23:59"}],"modifierExtension":[{"url":"http://hl7.org/fhir/us/cqfmeasures/StructureDefinition/cqfm-isTestCase","valueBoolean":true}],"status":"complete","type":"individual","measure":"https://madie.cms.gov/Measure/CMS506FHIRSafeUseofOpioids","period":{"start":"2026-01-01","end":"2026-12-31"},"group":[{"population":[{"code":{"coding":[{"system":"http://terminology.hl7.org/CodeSystem/measure-population","code":"initial-population","display":"Initial Population"}]},"count":1},{"code":{"coding":[{"system":"http://terminology.hl7.org/CodeSystem/measure-population","code":"denominator","display":"Denominator"}]},"count":1},{"code":{"coding":[{"system":"http://terminology.hl7.org/CodeSystem/measure-population","code":"denominator-exclusion","display":"Denominator Exclusion"}]},"count":0},{"code":{"coding":[{"system":"http://terminology.hl7.org/CodeSystem/measure-population","code":"numerator","display":"Numerator"}]},"count":1}]}]},"request":{"method":"PUT","url":"MeasureReport/1aaf4069-6a92-454e-9c69-4785e7d28b0f"}}]}