{"resourceType":"Bundle","id":"tests-57da77da-de92-4ef5-9311-1d86e67c9de4-bundle","type":"transaction","entry":[{"fullUrl":"https://madie.cms.gov/Patient/57da77da-de92-4ef5-9311-1d86e67c9de4","resource":{"resourceType":"Patient","id":"57da77da-de92-4ef5-9311-1d86e67c9de4","meta":{"profile":["http://hl7.org/fhir/us/qicore/StructureDefinition/qicore-patient"]},"extension":[{"url":"http://hl7.org/fhir/us/core/StructureDefinition/us-core-race","extension":[{"url":"ombCategory","valueCoding":{"system":"urn:oid:2.16.840.1.113883.6.238","code":"2028-9","display":"Asian","userSelected":true}},{"url":"text","valueString":"Asian"},{"url":"detailed","valueCoding":{"system":"urn:oid:2.16.840.1.113883.6.238","code":"1653-5","display":"Tohono O'Odham"}}]},{"url":"http://hl7.org/fhir/us/core/StructureDefinition/us-core-ethnicity","extension":[{"url":"ombCategory","valueCoding":{"system":"urn:oid:2.16.840.1.113883.6.238","code":"2186-5","display":"Not Hispanic or Latino","userSelected":true}},{"url":"text","valueString":"Not Hispanic or Latino"},{"url":"detailed","valueCoding":{"system":"urn:oid:2.16.840.1.113883.6.238","code":"2153-5","display":"Mexican American Indian"}}]}],"identifier":[{"type":{"coding":[{"system":"http://terminology.hl7.org/CodeSystem/v2-0203","code":"MR"}]},"system":"https://bonnie-fhir.healthit.gov/","value":"63233350414ba67d4e1d1c2f"}],"name":[{"family":"DENEXPass","given":["CancerProblemList"]}],"gender":"female","birthDate":"1944-02-01"},"request":{"method":"PUT","url":"Patient/57da77da-de92-4ef5-9311-1d86e67c9de4"}},{"fullUrl":"https://madie.cms.gov/Encounter/b303cee4-3d57-47d4-bfcc-697a5a453ac1","resource":{"resourceType":"Encounter","id":"b303cee4-3d57-47d4-bfcc-697a5a453ac1","meta":{"profile":["http://hl7.org/fhir/us/qicore/StructureDefinition/qicore-encounter"]},"status":"finished","class":{"system":"http://terminology.hl7.org/CodeSystem/v3-ActCode","code":"AMB","display":"ambulatory"},"type":[{"coding":[{"system":"http://snomed.info/sct","version":"2022-03","code":"183452005","display":"Emergency hospital admission (procedure)","userSelected":true}]}],"subject":{"reference":"Patient/57da77da-de92-4ef5-9311-1d86e67c9de4"},"period":{"start":"2026-01-01T11:45:00.000+00:00","end":"2026-01-03T11:59:00.000+00:00"}},"request":{"method":"PUT","url":"Encounter/b303cee4-3d57-47d4-bfcc-697a5a453ac1"}},{"fullUrl":"https://madie.cms.gov/MedicationRequest/ae86cf58-e99d-4382-890d-e866d04dabaf","resource":{"resourceType":"MedicationRequest","id":"ae86cf58-e99d-4382-890d-e866d04dabaf","meta":{"profile":["http://hl7.org/fhir/us/qicore/StructureDefinition/qicore-medicationrequest"]},"status":"completed","intent":"order","category":[{"coding":[{"system":"http://terminology.hl7.org/CodeSystem/medicationrequest-category","code":"discharge","display":"Discharge","userSelected":true}]}],"doNotPerform":false,"medicationCodeableConcept":{"coding":[{"system":"http://www.nlm.nih.gov/research/umls/rxnorm","code":"2103192","display":"sufentanil 0.03 MG Sublingual Tablet","userSelected":true}]},"subject":{"reference":"Patient/57da77da-de92-4ef5-9311-1d86e67c9de4"},"authoredOn":"2026-01-03T11:59:00.000+00:00","requester":{"reference":"Practitioner/f007","display":"Patrick Pump"}},"request":{"method":"PUT","url":"MedicationRequest/ae86cf58-e99d-4382-890d-e866d04dabaf"}},{"fullUrl":"https://madie.cms.gov/Condition/2f0f1af6-921d-4b5e-b2c3-04c6d940d3ec","resource":{"resourceType":"Condition","id":"2f0f1af6-921d-4b5e-b2c3-04c6d940d3ec","meta":{"profile":["http://hl7.org/fhir/us/qicore/StructureDefinition/qicore-condition"]},"clinicalStatus":{"coding":[{"system":"http://terminology.hl7.org/CodeSystem/condition-clinical","code":"active","display":"active","userSelected":true}]},"category":[{"coding":[{"system":"http://terminology.hl7.org/CodeSystem/condition-category","code":"problem-list-item","display":"Problem List Item"},{"system":"http://snomed.info/sct","code":"439401001","display":"Diagnosis"}]}],"code":{"coding":[{"system":"http://snomed.info/sct","version":"2022-03","code":"75544000","display":"Opioid dependence (disorder)","userSelected":true}]},"subject":{"reference":"Patient/57da77da-de92-4ef5-9311-1d86e67c9de4"},"onsetPeriod":{"start":"2026-01-02T08:00:00.000+00:00"}},"request":{"method":"PUT","url":"Condition/2f0f1af6-921d-4b5e-b2c3-04c6d940d3ec"}},{"fullUrl":"https://madie.cms.gov/MedicationRequest/4e56ac5e-4fc3-4168-b991-6ebed1b5a1ad","resource":{"resourceType":"MedicationRequest","id":"4e56ac5e-4fc3-4168-b991-6ebed1b5a1ad","meta":{"profile":["http://hl7.org/fhir/us/qicore/StructureDefinition/qicore-medicationrequest"]},"status":"active","intent":"order","category":[{"coding":[{"system":"http://terminology.hl7.org/CodeSystem/medicationrequest-category","code":"discharge","display":"Discharge","userSelected":true}]}],"doNotPerform":false,"medicationCodeableConcept":{"coding":[{"system":"http://www.nlm.nih.gov/research/umls/rxnorm","code":"1010600","display":"buprenorphine 2 MG / naloxone 0.5 MG Sublingual Film","userSelected":true}]},"subject":{"reference":"Patient/57da77da-de92-4ef5-9311-1d86e67c9de4"},"authoredOn":"2026-01-02T00:05:00.000+00:00","requester":{"reference":"Practitioner/f007","display":"Patrick Pump"}},"request":{"method":"PUT","url":"MedicationRequest/4e56ac5e-4fc3-4168-b991-6ebed1b5a1ad"}},{"fullUrl":"https://madie.cms.gov/Coverage/86e1934a-2907-43d3-9bfc-330194d6ebf7","resource":{"resourceType":"Coverage","id":"86e1934a-2907-43d3-9bfc-330194d6ebf7","meta":{"profile":["http://hl7.org/fhir/us/qicore/StructureDefinition/qicore-coverage"]},"status":"active","beneficiary":{"reference":"Patient/57da77da-de92-4ef5-9311-1d86e67c9de4"},"payor":[{"reference":"Organization/607fdef9-3983-4cef-ab1a-95434d29b463"}]},"request":{"method":"PUT","url":"Coverage/86e1934a-2907-43d3-9bfc-330194d6ebf7"}},{"fullUrl":"https://madie.cms.gov/Organization/e926ae28-8ca9-4b1d-9fba-47ef76e29f9f","resource":{"resourceType":"Organization","id":"607fdef9-3983-4cef-ab1a-95434d29b463","meta":{"profile":["http://hl7.org/fhir/us/qicore/StructureDefinition/qicore-organization"]},"identifier":[{"use":"temp","system":"urn:oid:2.16.840.1.113883.4.4","value":"21-3259825"}],"active":true,"type":[{"coding":[{"system":"http://terminology.hl7.org/CodeSystem/organization-type","code":"pay","display":"Payer"}]}],"name":"Blue Cross Blue Shield of Texas","telecom":[{"system":"phone","value":"(+1) 972-766-6900"}],"address":[{"use":"billing","type":"postal","line":["P.O. Box 660044"],"city":"Dallas","state":"TX","postalCode":"75266-0044","country":"USA"}]},"request":{"method":"PUT","url":"Organization/607fdef9-3983-4cef-ab1a-95434d29b463"}},{"fullUrl":"https://madie.cms.gov/MeasureReport/5366255d-85a0-4f12-ad73-1f98091229ee","resource":{"resourceType":"MeasureReport","id":"5366255d-85a0-4f12-ad73-1f98091229ee","meta":{"profile":["http://hl7.org/fhir/us/cqfmeasures/StructureDefinition/test-case-cqfm"]},"contained":[{"resourceType":"Parameters","id":"b40a7c75-dac2-409e-b8b9-9bf10ca14713-parameters","parameter":[{"name":"subject","valueString":"57da77da-de92-4ef5-9311-1d86e67c9de4"}]}],"extension":[{"url":"http://hl7.org/fhir/us/cqfmeasures/StructureDefinition/cqfm-inputParameters","valueReference":{"reference":"#b40a7c75-dac2-409e-b8b9-9bf10ca14713-parameters"}},{"url":"http://hl7.org/fhir/us/cqfmeasures/StructureDefinition/cqfm-testCaseDescription","valueMarkdown":"Enc first day of MP, pt has opioid use disorder"}],"modifierExtension":[{"url":"http://hl7.org/fhir/us/cqfmeasures/StructureDefinition/cqfm-isTestCase","valueBoolean":true}],"status":"complete","type":"individual","measure":"https://madie.cms.gov/Measure/CMS506FHIRSafeUseofOpioids","period":{"start":"2026-01-01","end":"2026-12-31"},"group":[{"population":[{"code":{"coding":[{"system":"http://terminology.hl7.org/CodeSystem/measure-population","code":"initial-population","display":"Initial Population"}]},"count":1},{"code":{"coding":[{"system":"http://terminology.hl7.org/CodeSystem/measure-population","code":"denominator","display":"Denominator"}]},"count":1},{"code":{"coding":[{"system":"http://terminology.hl7.org/CodeSystem/measure-population","code":"denominator-exclusion","display":"Denominator Exclusion"}]},"count":1},{"code":{"coding":[{"system":"http://terminology.hl7.org/CodeSystem/measure-population","code":"numerator","display":"Numerator"}]},"count":0}]}]},"request":{"method":"PUT","url":"MeasureReport/5366255d-85a0-4f12-ad73-1f98091229ee"}}]}