{"resourceType":"Bundle","id":"tests-c9d33132-11ce-455c-9fda-92c433d8c499-bundle","type":"transaction","entry":[{"fullUrl":"https://madie.cms.gov/Patient/c9d33132-11ce-455c-9fda-92c433d8c499","resource":{"resourceType":"Patient","id":"c9d33132-11ce-455c-9fda-92c433d8c499","meta":{"profile":["http://hl7.org/fhir/us/qicore/StructureDefinition/qicore-patient"]},"extension":[{"url":"http://hl7.org/fhir/us/core/StructureDefinition/us-core-race","extension":[{"url":"ombCategory","valueCoding":{"system":"urn:oid:2.16.840.1.113883.6.238","code":"2106-3","display":"White","userSelected":true}},{"url":"text","valueString":"Other Race"}]},{"url":"http://hl7.org/fhir/us/core/StructureDefinition/us-core-ethnicity","extension":[{"url":"ombCategory","valueCoding":{"system":"urn:oid:2.16.840.1.113883.6.238","code":"2135-2","display":"Hispanic or Latino","userSelected":true}},{"url":"text","valueString":"Hispanic or Latino"}]}],"identifier":[{"type":{"coding":[{"system":"http://terminology.hl7.org/CodeSystem/v2-0203","code":"MR"}]},"system":"https://bonnie-fhir.healthit.gov/","value":"632336b2414ba67d4e1d1c36"}],"name":[{"family":"DENOMPass","given":["EncounterWithBenzo"]}],"gender":"male","birthDate":"2006-12-31"},"request":{"method":"PUT","url":"Patient/c9d33132-11ce-455c-9fda-92c433d8c499"}},{"fullUrl":"https://madie.cms.gov/Encounter/0ad6e21e-22ed-47de-8064-e35a34eaafb0","resource":{"resourceType":"Encounter","id":"0ad6e21e-22ed-47de-8064-e35a34eaafb0","meta":{"profile":["http://hl7.org/fhir/us/qicore/StructureDefinition/qicore-encounter"]},"status":"finished","class":{"system":"http://terminology.hl7.org/CodeSystem/v3-ActCode","code":"AMB","display":"ambulatory"},"type":[{"coding":[{"system":"http://snomed.info/sct","version":"2022-03","code":"183452005","display":"Emergency hospital admission (procedure)","userSelected":true}]}],"subject":{"reference":"Patient/c9d33132-11ce-455c-9fda-92c433d8c499"},"period":{"start":"2026-01-01T12:00:00.000+00:00","end":"2026-01-05T12:30:00.000+00:00"}},"request":{"method":"PUT","url":"Encounter/0ad6e21e-22ed-47de-8064-e35a34eaafb0"}},{"fullUrl":"https://madie.cms.gov/MedicationRequest/280196a2-006a-4296-adbb-b87fbb5b0c5c","resource":{"resourceType":"MedicationRequest","id":"280196a2-006a-4296-adbb-b87fbb5b0c5c","meta":{"profile":["http://hl7.org/fhir/us/qicore/StructureDefinition/qicore-medicationrequest"]},"status":"active","intent":"order","category":[{"coding":[{"system":"http://terminology.hl7.org/CodeSystem/medicationrequest-category","code":"discharge","display":"Discharge","userSelected":true}]}],"doNotPerform":false,"medicationCodeableConcept":{"coding":[{"system":"http://www.nlm.nih.gov/research/umls/rxnorm","version":"2022-08","code":"1551393","display":"2 ML midazolam 5 MG/ML Prefilled Syringe","userSelected":true}]},"subject":{"reference":"Patient/c9d33132-11ce-455c-9fda-92c433d8c499"},"authoredOn":"2026-01-05T12:29:00.000+00:00","requester":{"reference":"Practitioner/f007","display":"Patrick Pump"}},"request":{"method":"PUT","url":"MedicationRequest/280196a2-006a-4296-adbb-b87fbb5b0c5c"}},{"fullUrl":"https://madie.cms.gov/Coverage/e06bf87d-ce7e-428a-a586-18be76fe8618","resource":{"resourceType":"Coverage","id":"e06bf87d-ce7e-428a-a586-18be76fe8618","meta":{"profile":["http://hl7.org/fhir/us/qicore/StructureDefinition/qicore-coverage"]},"status":"active","beneficiary":{"reference":"Patient/c9d33132-11ce-455c-9fda-92c433d8c499"},"payor":[{"reference":"Organization/f7da4368-fb6d-4d73-a75b-f78024cbb18d"}]},"request":{"method":"PUT","url":"Coverage/e06bf87d-ce7e-428a-a586-18be76fe8618"}},{"fullUrl":"https://madie.cms.gov/Organization/1203c974-4db2-49a6-90e8-70ecf76a7b90","resource":{"resourceType":"Organization","id":"f7da4368-fb6d-4d73-a75b-f78024cbb18d","meta":{"profile":["http://hl7.org/fhir/us/qicore/StructureDefinition/qicore-organization"]},"identifier":[{"use":"temp","system":"urn:oid:2.16.840.1.113883.4.4","value":"21-3259825"}],"active":true,"type":[{"coding":[{"system":"http://terminology.hl7.org/CodeSystem/organization-type","code":"pay","display":"Payer"}]}],"name":"Blue Cross Blue Shield of Texas","telecom":[{"system":"phone","value":"(+1) 972-766-6900"}],"address":[{"use":"billing","type":"postal","line":["P.O. Box 660044"],"city":"Dallas","state":"TX","postalCode":"75266-0044","country":"USA"}]},"request":{"method":"PUT","url":"Organization/f7da4368-fb6d-4d73-a75b-f78024cbb18d"}},{"fullUrl":"https://madie.cms.gov/MeasureReport/d2130563-ac17-4a77-b897-91374295819b","resource":{"resourceType":"MeasureReport","id":"d2130563-ac17-4a77-b897-91374295819b","meta":{"profile":["http://hl7.org/fhir/us/cqfmeasures/StructureDefinition/test-case-cqfm"]},"contained":[{"resourceType":"Parameters","id":"e2048621-976a-4ce6-bdbb-012ab71c1663-parameters","parameter":[{"name":"subject","valueString":"c9d33132-11ce-455c-9fda-92c433d8c499"}]}],"extension":[{"url":"http://hl7.org/fhir/us/cqfmeasures/StructureDefinition/cqfm-inputParameters","valueReference":{"reference":"#e2048621-976a-4ce6-bdbb-012ab71c1663-parameters"}},{"url":"http://hl7.org/fhir/us/cqfmeasures/StructureDefinition/cqfm-testCaseDescription","valueMarkdown":"Encounter 1/1 - 1/5, Age 18 one day before enc, benzo prescribed on 1/5 @12:29-  1 min for discharged"}],"modifierExtension":[{"url":"http://hl7.org/fhir/us/cqfmeasures/StructureDefinition/cqfm-isTestCase","valueBoolean":true}],"status":"complete","type":"individual","measure":"https://madie.cms.gov/Measure/CMS506FHIRSafeUseofOpioids","period":{"start":"2026-01-01","end":"2026-12-31"},"group":[{"population":[{"code":{"coding":[{"system":"http://terminology.hl7.org/CodeSystem/measure-population","code":"initial-population","display":"Initial Population"}]},"count":1},{"code":{"coding":[{"system":"http://terminology.hl7.org/CodeSystem/measure-population","code":"denominator","display":"Denominator"}]},"count":1},{"code":{"coding":[{"system":"http://terminology.hl7.org/CodeSystem/measure-population","code":"denominator-exclusion","display":"Denominator Exclusion"}]},"count":0},{"code":{"coding":[{"system":"http://terminology.hl7.org/CodeSystem/measure-population","code":"numerator","display":"Numerator"}]},"count":0}]}]},"request":{"method":"PUT","url":"MeasureReport/d2130563-ac17-4a77-b897-91374295819b"}}]}