{"resourceType":"Bundle","id":"tests-ae9b2ef7-b1a1-454e-8ada-811a48fd9008-bundle","type":"transaction","entry":[{"fullUrl":"https://madie.cms.gov/Patient/ae9b2ef7-b1a1-454e-8ada-811a48fd9008","resource":{"resourceType":"Patient","id":"ae9b2ef7-b1a1-454e-8ada-811a48fd9008","meta":{"profile":["http://hl7.org/fhir/us/qicore/StructureDefinition/qicore-patient"]},"extension":[{"url":"http://hl7.org/fhir/us/core/StructureDefinition/us-core-race","extension":[{"url":"ombCategory","valueCoding":{"system":"urn:oid:2.16.840.1.113883.6.238","code":"2076-8","display":"Native Hawaiian or Other Pacific Islander","userSelected":true}},{"url":"text","valueString":"Native Hawaiian or Other Pacific Islander"}]},{"url":"http://hl7.org/fhir/us/core/StructureDefinition/us-core-ethnicity","extension":[{"url":"ombCategory","valueCoding":{"system":"urn:oid:2.16.840.1.113883.6.238","code":"2135-2","display":"Hispanic or Latino","userSelected":true}},{"url":"text","valueString":"Hispanic or Latino"}]}],"identifier":[{"type":{"coding":[{"system":"http://terminology.hl7.org/CodeSystem/v2-0203","code":"MR"}]},"system":"https://bonnie-fhir.healthit.gov/","value":"617bfa581289f5673c8ceff8"}],"name":[{"family":"DenExcl9Fail","given":["AdverseEventStartsAfterED"]}],"gender":"female","birthDate":"1985-12-02"},"request":{"method":"PUT","url":"Patient/ae9b2ef7-b1a1-454e-8ada-811a48fd9008"}},{"fullUrl":"https://madie.cms.gov/Encounter/4c777f8d-8eea-4c2a-9b27-ad195635893c","resource":{"resourceType":"Encounter","id":"4c777f8d-8eea-4c2a-9b27-ad195635893c","meta":{"profile":["http://hl7.org/fhir/us/qicore/StructureDefinition/qicore-encounter"]},"status":"finished","class":{"system":"http://terminology.hl7.org/CodeSystem/v3-ActCode","code":"EMER","display":"emergency","userSelected":true},"type":[{"coding":[{"system":"http://snomed.info/sct","version":"2020-09","code":"4525004","display":"Emergency department patient visit (procedure)","userSelected":true}]}],"subject":{"reference":"Patient/ae9b2ef7-b1a1-454e-8ada-811a48fd9008"},"period":{"start":"2026-10-09T08:05:00.000+00:00","end":"2026-10-10T07:15:00.000+00:00"},"reasonCode":[{"coding":[{"system":"http://hl7.org/fhir/sid/icd-10-cm","version":"2021","code":"I21.21","display":"ST elevation (STEMI) myocardial infarction involving left circumflex coronary artery","userSelected":true}]}]},"request":{"method":"PUT","url":"Encounter/4c777f8d-8eea-4c2a-9b27-ad195635893c"}},{"fullUrl":"https://madie.cms.gov/AdverseEvent/29871ad3-0371-4fd2-b777-298e9f074ec5","resource":{"resourceType":"AdverseEvent","id":"29871ad3-0371-4fd2-b777-298e9f074ec5","meta":{"profile":["http://hl7.org/fhir/us/qicore/StructureDefinition/qicore-adverseevent"]},"actuality":"actual","event":{"coding":[{"system":"http://www.nlm.nih.gov/research/umls/rxnorm","code":"76895","userSelected":true}]},"subject":{"reference":"Patient/ae9b2ef7-b1a1-454e-8ada-811a48fd9008"},"date":"2026-12-09T11:00:00.000+00:00"},"request":{"method":"PUT","url":"AdverseEvent/29871ad3-0371-4fd2-b777-298e9f074ec5"}},{"fullUrl":"https://madie.cms.gov/MeasureReport/f96571cf-8dc8-4cdd-bcff-58552131fad4","resource":{"resourceType":"MeasureReport","id":"f96571cf-8dc8-4cdd-bcff-58552131fad4","meta":{"profile":["http://hl7.org/fhir/us/cqfmeasures/StructureDefinition/test-case-cqfm"]},"contained":[{"resourceType":"Parameters","id":"01f1502e-5bbd-4d57-b000-b49299ef811a-parameters","parameter":[{"name":"subject","valueString":"ae9b2ef7-b1a1-454e-8ada-811a48fd9008"}]}],"extension":[{"url":"http://hl7.org/fhir/us/cqfmeasures/StructureDefinition/cqfm-inputParameters","valueReference":{"reference":"#01f1502e-5bbd-4d57-b000-b49299ef811a-parameters"}},{"url":"http://hl7.org/fhir/us/cqfmeasures/StructureDefinition/cqfm-testCaseDescription","valueMarkdown":"Patient has adverse event starts after ED"}],"modifierExtension":[{"url":"http://hl7.org/fhir/us/cqfmeasures/StructureDefinition/cqfm-isTestCase","valueBoolean":true}],"status":"complete","type":"individual","measure":"https://madie.cms.gov/Measure/CMS996FHIRAptTxforSTEMI","period":{"start":"2026-01-01","end":"2026-12-31"},"group":[{"population":[{"code":{"coding":[{"system":"http://terminology.hl7.org/CodeSystem/measure-population","code":"initial-population","display":"Initial Population"}]},"count":1},{"code":{"coding":[{"system":"http://terminology.hl7.org/CodeSystem/measure-population","code":"denominator","display":"Denominator"}]},"count":1},{"code":{"coding":[{"system":"http://terminology.hl7.org/CodeSystem/measure-population","code":"denominator-exclusion","display":"Denominator Exclusion"}]},"count":0},{"code":{"coding":[{"system":"http://terminology.hl7.org/CodeSystem/measure-population","code":"numerator","display":"Numerator"}]},"count":0},{"code":{"coding":[{"system":"http://terminology.hl7.org/CodeSystem/measure-population","code":"denominator-exception","display":"Denominator Exception"}]},"count":0}]}]},"request":{"method":"PUT","url":"MeasureReport/f96571cf-8dc8-4cdd-bcff-58552131fad4"}}]}