{"resourceType":"Bundle","id":"tests-f6c7dbc1-9ca7-46cd-bcbe-29d8fae4e847-bundle","type":"transaction","entry":[{"fullUrl":"https://madie.cms.gov/Patient/f6c7dbc1-9ca7-46cd-bcbe-29d8fae4e847","resource":{"resourceType":"Patient","id":"f6c7dbc1-9ca7-46cd-bcbe-29d8fae4e847","meta":{"profile":["http://hl7.org/fhir/us/qicore/StructureDefinition/qicore-patient"]},"extension":[{"url":"http://hl7.org/fhir/us/core/StructureDefinition/us-core-race","extension":[{"url":"ombCategory","valueCoding":{"system":"urn:oid:2.16.840.1.113883.6.238","code":"2028-9","display":"Asian","userSelected":true}},{"url":"text","valueString":"Asian"}]},{"url":"http://hl7.org/fhir/us/core/StructureDefinition/us-core-ethnicity","extension":[{"url":"ombCategory","valueCoding":{"system":"urn:oid:2.16.840.1.113883.6.238","code":"2135-2","display":"Hispanic or Latino","userSelected":true}},{"url":"text","valueString":"Hispanic or Latino"}]}],"identifier":[{"type":{"coding":[{"system":"http://terminology.hl7.org/CodeSystem/v2-0203","code":"MR"}]},"system":"https://bonnie-fhir.healthit.gov/","value":"617bf36b1619a529957d62ca"}],"name":[{"family":"DenExcl8Fail","given":["AllergyStartsBeforeEndsBeforeED"]}],"gender":"male","birthDate":"1985-12-02"},"request":{"method":"PUT","url":"Patient/f6c7dbc1-9ca7-46cd-bcbe-29d8fae4e847"}},{"fullUrl":"https://madie.cms.gov/Encounter/94f9254d-ed81-42f7-b5a4-352a7848dd6e","resource":{"resourceType":"Encounter","id":"94f9254d-ed81-42f7-b5a4-352a7848dd6e","meta":{"profile":["http://hl7.org/fhir/us/qicore/StructureDefinition/qicore-encounter"]},"status":"finished","class":{"system":"http://terminology.hl7.org/CodeSystem/v3-ActCode","code":"EMER","display":"emergency","userSelected":true},"type":[{"coding":[{"system":"http://snomed.info/sct","version":"2020-09","code":"4525004","display":"Emergency department patient visit (procedure)","userSelected":true}]}],"subject":{"reference":"Patient/f6c7dbc1-9ca7-46cd-bcbe-29d8fae4e847"},"period":{"start":"2026-10-09T08:05:00.000+00:00","end":"2026-10-10T07:15:00.000+00:00"},"reasonCode":[{"coding":[{"system":"http://snomed.info/sct","version":"2020-09","code":"703211006","display":"Subsequent ST segment elevation myocardial infarction (disorder)","userSelected":true}]}]},"request":{"method":"PUT","url":"Encounter/94f9254d-ed81-42f7-b5a4-352a7848dd6e"}},{"fullUrl":"https://madie.cms.gov/AllergyIntolerance/8f598d21-b2d9-4412-8f24-149dda4454cf","resource":{"resourceType":"AllergyIntolerance","id":"8f598d21-b2d9-4412-8f24-149dda4454cf","meta":{"profile":["http://hl7.org/fhir/us/qicore/StructureDefinition/qicore-allergyintolerance"]},"clinicalStatus":{"coding":[{"system":"http://terminology.hl7.org/CodeSystem/allergyintolerance-clinical","code":"active","display":"allergy-active","userSelected":true}]},"code":{"coding":[{"system":"http://www.nlm.nih.gov/research/umls/rxnorm","version":"2021-01","code":"10106","display":"streptokinase","userSelected":true}]},"patient":{"reference":"Patient/f6c7dbc1-9ca7-46cd-bcbe-29d8fae4e847"},"onsetPeriod":{"start":"2021-01-10T08:00:00.000+00:00","end":"2026-09-09T10:15:00.000+00:00"}},"request":{"method":"PUT","url":"AllergyIntolerance/8f598d21-b2d9-4412-8f24-149dda4454cf"}},{"fullUrl":"https://madie.cms.gov/MeasureReport/105e5380-63d6-4bd2-9e85-a69c9e5cf7fe","resource":{"resourceType":"MeasureReport","id":"105e5380-63d6-4bd2-9e85-a69c9e5cf7fe","meta":{"profile":["http://hl7.org/fhir/us/cqfmeasures/StructureDefinition/test-case-cqfm"]},"contained":[{"resourceType":"Parameters","id":"2332b824-81b3-44ff-934d-7d496be3b7d0-parameters","parameter":[{"name":"subject","valueString":"f6c7dbc1-9ca7-46cd-bcbe-29d8fae4e847"}]}],"extension":[{"url":"http://hl7.org/fhir/us/cqfmeasures/StructureDefinition/cqfm-inputParameters","valueReference":{"reference":"#2332b824-81b3-44ff-934d-7d496be3b7d0-parameters"}},{"url":"http://hl7.org/fhir/us/cqfmeasures/StructureDefinition/cqfm-testCaseDescription","valueMarkdown":"Patient has allergy to medication ingredient starts before and ends before ED"}],"modifierExtension":[{"url":"http://hl7.org/fhir/us/cqfmeasures/StructureDefinition/cqfm-isTestCase","valueBoolean":true}],"status":"complete","type":"individual","measure":"https://madie.cms.gov/Measure/CMS996FHIRAptTxforSTEMI","period":{"start":"2026-01-01","end":"2026-12-31"},"group":[{"population":[{"code":{"coding":[{"system":"http://terminology.hl7.org/CodeSystem/measure-population","code":"initial-population","display":"Initial Population"}]},"count":1},{"code":{"coding":[{"system":"http://terminology.hl7.org/CodeSystem/measure-population","code":"denominator","display":"Denominator"}]},"count":1},{"code":{"coding":[{"system":"http://terminology.hl7.org/CodeSystem/measure-population","code":"denominator-exclusion","display":"Denominator Exclusion"}]},"count":0},{"code":{"coding":[{"system":"http://terminology.hl7.org/CodeSystem/measure-population","code":"numerator","display":"Numerator"}]},"count":0},{"code":{"coding":[{"system":"http://terminology.hl7.org/CodeSystem/measure-population","code":"denominator-exception","display":"Denominator Exception"}]},"count":0}]}]},"request":{"method":"PUT","url":"MeasureReport/105e5380-63d6-4bd2-9e85-a69c9e5cf7fe"}}]}