{"resourceType":"Bundle","id":"tests-55a3b23f-dda9-4622-9b9f-ff3351923941-bundle","type":"transaction","entry":[{"fullUrl":"https://madie.cms.gov/Patient/55a3b23f-dda9-4622-9b9f-ff3351923941","resource":{"resourceType":"Patient","id":"55a3b23f-dda9-4622-9b9f-ff3351923941","meta":{"profile":["http://hl7.org/fhir/us/qicore/StructureDefinition/qicore-patient"]},"extension":[{"url":"http://hl7.org/fhir/us/core/StructureDefinition/us-core-race","extension":[{"url":"ombCategory","valueCoding":{"system":"urn:oid:2.16.840.1.113883.6.238","code":"2076-8","display":"Native Hawaiian or Other Pacific Islander","userSelected":true}},{"url":"text","valueString":"Native Hawaiian or Other Pacific Islander"}]},{"url":"http://hl7.org/fhir/us/core/StructureDefinition/us-core-ethnicity","extension":[{"url":"ombCategory","valueCoding":{"system":"urn:oid:2.16.840.1.113883.6.238","code":"2186-5","display":"Not Hispanic or Latino","userSelected":true}},{"url":"text","valueString":"Not Hispanic or Latino"}]}],"identifier":[{"type":{"coding":[{"system":"http://terminology.hl7.org/CodeSystem/v2-0203","code":"MR"}]},"system":"https://bonnie-fhir.healthit.gov/","value":"6179ea77ad1a790b7af75252"}],"name":[{"family":"DenExcl2Fail","given":["PxExclStartsBeforeEndsDuringED"]}],"gender":"female","birthDate":"1985-12-02"},"request":{"method":"PUT","url":"Patient/55a3b23f-dda9-4622-9b9f-ff3351923941"}},{"fullUrl":"https://madie.cms.gov/Encounter/7fb38343-6672-42a0-adae-f8030767b270","resource":{"resourceType":"Encounter","id":"7fb38343-6672-42a0-adae-f8030767b270","meta":{"profile":["http://hl7.org/fhir/us/qicore/StructureDefinition/qicore-encounter"]},"status":"finished","class":{"system":"http://terminology.hl7.org/CodeSystem/v3-ActCode","code":"EMER","display":"emergency","userSelected":true},"type":[{"coding":[{"system":"http://snomed.info/sct","version":"2020-09","code":"4525004","display":"Emergency department patient visit (procedure)","userSelected":true}]}],"subject":{"reference":"Patient/55a3b23f-dda9-4622-9b9f-ff3351923941"},"period":{"start":"2026-10-09T08:05:00.000+00:00","end":"2026-10-10T07:15:00.000+00:00"}},"request":{"method":"PUT","url":"Encounter/7fb38343-6672-42a0-adae-f8030767b270"}},{"fullUrl":"https://madie.cms.gov/Condition/a02ade77-1f24-49b3-9496-605ebd6a8544","resource":{"resourceType":"Condition","id":"a02ade77-1f24-49b3-9496-605ebd6a8544","meta":{"profile":["http://hl7.org/fhir/us/qicore/StructureDefinition/qicore-condition"]},"clinicalStatus":{"coding":[{"system":"http://terminology.hl7.org/CodeSystem/condition-clinical","code":"active","display":"active","userSelected":true}]},"category":[{"coding":[{"system":"http://terminology.hl7.org/CodeSystem/condition-category","code":"problem-list-item","display":"Problem List Item","userSelected":true}]}],"code":{"coding":[{"system":"http://snomed.info/sct","version":"2020-09","code":"401303003","display":"Acute ST segment elevation myocardial infarction (disorder)","userSelected":true}]},"subject":{"reference":"Patient/55a3b23f-dda9-4622-9b9f-ff3351923941"},"onsetDateTime":"2026-10-09T08:30:00.000+00:00"},"request":{"method":"PUT","url":"Condition/a02ade77-1f24-49b3-9496-605ebd6a8544"}},{"fullUrl":"https://madie.cms.gov/Procedure/647daa25-5c31-4a5c-9d68-ec159242160e","resource":{"resourceType":"Procedure","id":"647daa25-5c31-4a5c-9d68-ec159242160e","meta":{"profile":["http://hl7.org/fhir/us/qicore/StructureDefinition/qicore-procedure"]},"extension":[{"url":"http://hl7.org/fhir/us/qicore/StructureDefinition/qicore-recorded","valueDateTime":"2026-10-09T09:15:00.000+00:00"}],"status":"completed","category":{"coding":[{"system":"http://snomed.info/sct","code":"387713003","display":"Surgical procedure","userSelected":true}]},"code":{"coding":[{"system":"http://www.icd10data.com/icd10pcs","code":"5A1955Z","userSelected":true}]},"subject":{"reference":"Patient/55a3b23f-dda9-4622-9b9f-ff3351923941"},"performedPeriod":{"start":"2026-10-01T13:15:00.000+00:00","end":"2026-10-09T09:15:00.000+00:00"}},"request":{"method":"PUT","url":"Procedure/647daa25-5c31-4a5c-9d68-ec159242160e"}},{"fullUrl":"https://madie.cms.gov/MeasureReport/218a60be-263f-4ff0-b164-f1695ed4fc16","resource":{"resourceType":"MeasureReport","id":"218a60be-263f-4ff0-b164-f1695ed4fc16","meta":{"profile":["http://hl7.org/fhir/us/cqfmeasures/StructureDefinition/test-case-cqfm"]},"contained":[{"resourceType":"Parameters","id":"02c6bd65-248e-4efa-ae65-cd8551c6d43c-parameters","parameter":[{"name":"subject","valueString":"55a3b23f-dda9-4622-9b9f-ff3351923941"}]}],"extension":[{"url":"http://hl7.org/fhir/us/cqfmeasures/StructureDefinition/cqfm-inputParameters","valueReference":{"reference":"#02c6bd65-248e-4efa-ae65-cd8551c6d43c-parameters"}},{"url":"http://hl7.org/fhir/us/cqfmeasures/StructureDefinition/cqfm-testCaseDescription","valueMarkdown":"Patient has endotracheal intubation (exclusion procedure) that starts before and ends during the ED encounter"}],"modifierExtension":[{"url":"http://hl7.org/fhir/us/cqfmeasures/StructureDefinition/cqfm-isTestCase","valueBoolean":true}],"status":"complete","type":"individual","measure":"https://madie.cms.gov/Measure/CMS996FHIRAptTxforSTEMI","period":{"start":"2026-01-01","end":"2026-12-31"},"group":[{"population":[{"code":{"coding":[{"system":"http://terminology.hl7.org/CodeSystem/measure-population","code":"initial-population","display":"Initial Population"}]},"count":1},{"code":{"coding":[{"system":"http://terminology.hl7.org/CodeSystem/measure-population","code":"denominator","display":"Denominator"}]},"count":1},{"code":{"coding":[{"system":"http://terminology.hl7.org/CodeSystem/measure-population","code":"denominator-exclusion","display":"Denominator Exclusion"}]},"count":0},{"code":{"coding":[{"system":"http://terminology.hl7.org/CodeSystem/measure-population","code":"numerator","display":"Numerator"}]},"count":0},{"code":{"coding":[{"system":"http://terminology.hl7.org/CodeSystem/measure-population","code":"denominator-exception","display":"Denominator Exception"}]},"count":0}]}]},"request":{"method":"PUT","url":"MeasureReport/218a60be-263f-4ff0-b164-f1695ed4fc16"}}]}