{"resourceType":"Bundle","id":"tests-f71b56bb-42fc-4db0-aa60-6b7b91333295-bundle","type":"transaction","entry":[{"fullUrl":"https://madie.cms.gov/Patient/f71b56bb-42fc-4db0-aa60-6b7b91333295","resource":{"resourceType":"Patient","id":"f71b56bb-42fc-4db0-aa60-6b7b91333295","meta":{"profile":["http://hl7.org/fhir/us/qicore/StructureDefinition/qicore-patient"]},"extension":[{"url":"http://hl7.org/fhir/us/core/StructureDefinition/us-core-race","extension":[{"url":"ombCategory","valueCoding":{"system":"urn:oid:2.16.840.1.113883.6.238","code":"2076-8","display":"Native Hawaiian or Other Pacific Islander","userSelected":true}},{"url":"text","valueString":"Native Hawaiian or Other Pacific Islander"}]},{"url":"http://hl7.org/fhir/us/core/StructureDefinition/us-core-ethnicity","extension":[{"url":"ombCategory","valueCoding":{"system":"urn:oid:2.16.840.1.113883.6.238","code":"2186-5","display":"Not Hispanic or Latino","userSelected":true}},{"url":"text","valueString":"Not Hispanic or Latino"}]}],"identifier":[{"type":{"coding":[{"system":"http://terminology.hl7.org/CodeSystem/v2-0203","code":"MR"}]},"system":"https://bonnie-fhir.healthit.gov/","value":"6179ee99ad1a790b7af7525a"}],"name":[{"family":"DenExcl3Pass","given":["PxStarPxStarts8DBeforeEDEndsDuringED"]}],"gender":"female","birthDate":"1985-12-02"},"request":{"method":"PUT","url":"Patient/f71b56bb-42fc-4db0-aa60-6b7b91333295"}},{"fullUrl":"https://madie.cms.gov/Encounter/7292f0cb-8553-424e-b84d-5f8f865c2426","resource":{"resourceType":"Encounter","id":"7292f0cb-8553-424e-b84d-5f8f865c2426","meta":{"profile":["http://hl7.org/fhir/us/qicore/StructureDefinition/qicore-encounter"]},"status":"finished","class":{"system":"http://terminology.hl7.org/CodeSystem/v3-ActCode","code":"EMER","display":"emergency","userSelected":true},"type":[{"coding":[{"system":"http://snomed.info/sct","version":"2020-09","code":"4525004","display":"Emergency department patient visit (procedure)","userSelected":true}]}],"subject":{"reference":"Patient/f71b56bb-42fc-4db0-aa60-6b7b91333295"},"period":{"start":"2026-10-09T08:05:00.000+00:00","end":"2026-10-10T07:15:00.000+00:00"}},"request":{"method":"PUT","url":"Encounter/7292f0cb-8553-424e-b84d-5f8f865c2426"}},{"fullUrl":"https://madie.cms.gov/Condition/3a90133f-dc56-47e8-ba2c-c3b4cf9a393c","resource":{"resourceType":"Condition","id":"3a90133f-dc56-47e8-ba2c-c3b4cf9a393c","meta":{"profile":["http://hl7.org/fhir/us/qicore/StructureDefinition/qicore-condition"]},"clinicalStatus":{"coding":[{"system":"http://terminology.hl7.org/CodeSystem/condition-clinical","code":"active","display":"active","userSelected":true}]},"category":[{"coding":[{"system":"http://terminology.hl7.org/CodeSystem/condition-category","code":"encounter-diagnosis","display":"Encounter Diagnosis","userSelected":true}]}],"code":{"coding":[{"system":"http://snomed.info/sct","version":"2020-09","code":"401303003","display":"Acute ST segment elevation myocardial infarction (disorder)","userSelected":true}]},"subject":{"reference":"Patient/f71b56bb-42fc-4db0-aa60-6b7b91333295"},"onsetDateTime":"2026-10-09T08:30:00.000+00:00"},"request":{"method":"PUT","url":"Condition/3a90133f-dc56-47e8-ba2c-c3b4cf9a393c"}},{"fullUrl":"https://madie.cms.gov/Procedure/7926d3c0-8f70-4f5b-8c2a-fcc80d84ecfb","resource":{"resourceType":"Procedure","id":"7926d3c0-8f70-4f5b-8c2a-fcc80d84ecfb","meta":{"profile":["http://hl7.org/fhir/us/qicore/StructureDefinition/qicore-procedure"]},"extension":[{"url":"http://hl7.org/fhir/us/qicore/StructureDefinition/qicore-recorded","valueDateTime":"2026-10-09T10:15:00.000+00:00"}],"status":"completed","category":{"coding":[{"system":"http://snomed.info/sct","code":"387713003","display":"Surgical procedure","userSelected":true}]},"code":{"coding":[{"system":"http://snomed.info/sct","code":"10683007","userSelected":true}]},"subject":{"reference":"Patient/f71b56bb-42fc-4db0-aa60-6b7b91333295"},"performedPeriod":{"start":"2026-10-01T08:00:00.000+00:00","end":"2026-10-09T10:15:00.000+00:00"}},"request":{"method":"PUT","url":"Procedure/7926d3c0-8f70-4f5b-8c2a-fcc80d84ecfb"}},{"fullUrl":"https://madie.cms.gov/MeasureReport/cc1424b3-66b7-469d-acc9-8883b43b3f7c","resource":{"resourceType":"MeasureReport","id":"cc1424b3-66b7-469d-acc9-8883b43b3f7c","meta":{"profile":["http://hl7.org/fhir/us/cqfmeasures/StructureDefinition/test-case-cqfm"]},"contained":[{"resourceType":"Parameters","id":"7ab99ead-91a9-43e5-b62d-b6838518798a-parameters","parameter":[{"name":"subject","valueString":"f71b56bb-42fc-4db0-aa60-6b7b91333295"}]}],"extension":[{"url":"http://hl7.org/fhir/us/cqfmeasures/StructureDefinition/cqfm-inputParameters","valueReference":{"reference":"#7ab99ead-91a9-43e5-b62d-b6838518798a-parameters"}},{"url":"http://hl7.org/fhir/us/cqfmeasures/StructureDefinition/cqfm-testCaseDescription","valueMarkdown":"Patient has Major Surgical Procedure (exclusion Px) starts 8 days before ED visit and ends during ED\n**need to select codes to test this logic as value set overlaps with intracranial/intraspinal surgery**"}],"modifierExtension":[{"url":"http://hl7.org/fhir/us/cqfmeasures/StructureDefinition/cqfm-isTestCase","valueBoolean":true}],"status":"complete","type":"individual","measure":"https://madie.cms.gov/Measure/CMS996FHIRAptTxforSTEMI","period":{"start":"2026-01-01","end":"2026-12-31"},"group":[{"population":[{"code":{"coding":[{"system":"http://terminology.hl7.org/CodeSystem/measure-population","code":"initial-population","display":"Initial Population"}]},"count":1},{"code":{"coding":[{"system":"http://terminology.hl7.org/CodeSystem/measure-population","code":"denominator","display":"Denominator"}]},"count":1},{"code":{"coding":[{"system":"http://terminology.hl7.org/CodeSystem/measure-population","code":"denominator-exclusion","display":"Denominator Exclusion"}]},"count":1},{"code":{"coding":[{"system":"http://terminology.hl7.org/CodeSystem/measure-population","code":"numerator","display":"Numerator"}]},"count":0},{"code":{"coding":[{"system":"http://terminology.hl7.org/CodeSystem/measure-population","code":"denominator-exception","display":"Denominator Exception"}]},"count":0}]}]},"request":{"method":"PUT","url":"MeasureReport/cc1424b3-66b7-469d-acc9-8883b43b3f7c"}}]}