{"resourceType":"Bundle","id":"tests-7398c01f-d745-4013-80e7-1a8a549650db-bundle","type":"transaction","entry":[{"fullUrl":"https://madie.cms.gov/Patient/7398c01f-d745-4013-80e7-1a8a549650db","resource":{"resourceType":"Patient","id":"7398c01f-d745-4013-80e7-1a8a549650db","meta":{"profile":["http://hl7.org/fhir/us/qicore/StructureDefinition/qicore-patient"]},"extension":[{"url":"http://hl7.org/fhir/us/core/StructureDefinition/us-core-race","extension":[{"url":"ombCategory","valueCoding":{"system":"urn:oid:2.16.840.1.113883.6.238","code":"2076-8","display":"Native Hawaiian or Other Pacific Islander","userSelected":true}},{"url":"text","valueString":"Native Hawaiian or Other Pacific Islander"}]},{"url":"http://hl7.org/fhir/us/core/StructureDefinition/us-core-ethnicity","extension":[{"url":"ombCategory","valueCoding":{"system":"urn:oid:2.16.840.1.113883.6.238","code":"2135-2","display":"Hispanic or Latino","userSelected":true}},{"url":"text","valueString":"Hispanic or Latino"}]}],"identifier":[{"type":{"coding":[{"system":"http://terminology.hl7.org/CodeSystem/v2-0203","code":"MR"}]},"system":"https://bonnie-fhir.healthit.gov/","value":"6179eb6ead1a790b7af75254"}],"name":[{"family":"DenExcl2Pass","given":["PxExclStartsDuringEndsAfterED"]}],"gender":"female","birthDate":"1985-12-02"},"request":{"method":"PUT","url":"Patient/7398c01f-d745-4013-80e7-1a8a549650db"}},{"fullUrl":"https://madie.cms.gov/Encounter/272e51b9-1c9d-449b-a1bf-bd3805b18129","resource":{"resourceType":"Encounter","id":"272e51b9-1c9d-449b-a1bf-bd3805b18129","meta":{"profile":["http://hl7.org/fhir/us/qicore/StructureDefinition/qicore-encounter"]},"status":"finished","class":{"system":"http://terminology.hl7.org/CodeSystem/v3-ActCode","code":"EMER","display":"emergency","userSelected":true},"type":[{"coding":[{"system":"http://snomed.info/sct","version":"2020-09","code":"4525004","display":"Emergency department patient visit (procedure)","userSelected":true}]}],"subject":{"reference":"Patient/7398c01f-d745-4013-80e7-1a8a549650db"},"period":{"start":"2026-10-09T08:05:00.000+00:00","end":"2026-10-10T07:15:00.000+00:00"}},"request":{"method":"PUT","url":"Encounter/272e51b9-1c9d-449b-a1bf-bd3805b18129"}},{"fullUrl":"https://madie.cms.gov/Condition/80ccb518-b922-4094-9c25-ef3667615364","resource":{"resourceType":"Condition","id":"80ccb518-b922-4094-9c25-ef3667615364","meta":{"profile":["http://hl7.org/fhir/us/qicore/StructureDefinition/qicore-condition"]},"clinicalStatus":{"coding":[{"system":"http://terminology.hl7.org/CodeSystem/condition-clinical","code":"active","display":"active","userSelected":true}]},"category":[{"coding":[{"system":"http://terminology.hl7.org/CodeSystem/condition-category","code":"encounter-diagnosis","display":"Encounter Diagnosis","userSelected":true}]}],"code":{"coding":[{"system":"http://snomed.info/sct","version":"2020-09","code":"401303003","display":"Acute ST segment elevation myocardial infarction (disorder)","userSelected":true}]},"subject":{"reference":"Patient/7398c01f-d745-4013-80e7-1a8a549650db"},"onsetDateTime":"2026-10-09T08:30:00.000+00:00"},"request":{"method":"PUT","url":"Condition/80ccb518-b922-4094-9c25-ef3667615364"}},{"fullUrl":"https://madie.cms.gov/Procedure/ad0aff1c-7da2-4f18-abc0-39e02df952b3","resource":{"resourceType":"Procedure","id":"ad0aff1c-7da2-4f18-abc0-39e02df952b3","meta":{"profile":["http://hl7.org/fhir/us/qicore/StructureDefinition/qicore-procedure"]},"extension":[{"url":"http://hl7.org/fhir/us/qicore/StructureDefinition/qicore-recorded","valueDateTime":"2026-10-12T08:15:00.000+00:00"}],"status":"completed","category":{"coding":[{"system":"http://snomed.info/sct","code":"387713003","display":"Surgical procedure","userSelected":true}]},"code":{"coding":[{"system":"http://snomed.info/sct","code":"429161001","userSelected":true}]},"subject":{"reference":"Patient/7398c01f-d745-4013-80e7-1a8a549650db"},"performedPeriod":{"start":"2026-10-09T13:15:00.000+00:00","end":"2026-10-12T08:15:00.000+00:00"}},"request":{"method":"PUT","url":"Procedure/ad0aff1c-7da2-4f18-abc0-39e02df952b3"}},{"fullUrl":"https://madie.cms.gov/MeasureReport/6d65bf36-d673-4f47-b273-1aeef7c4f974","resource":{"resourceType":"MeasureReport","id":"6d65bf36-d673-4f47-b273-1aeef7c4f974","meta":{"profile":["http://hl7.org/fhir/us/cqfmeasures/StructureDefinition/test-case-cqfm"]},"contained":[{"resourceType":"Parameters","id":"6ab35784-0a32-4cb0-a0f7-24c12bf5a092-parameters","parameter":[{"name":"subject","valueString":"7398c01f-d745-4013-80e7-1a8a549650db"}]}],"extension":[{"url":"http://hl7.org/fhir/us/cqfmeasures/StructureDefinition/cqfm-inputParameters","valueReference":{"reference":"#6ab35784-0a32-4cb0-a0f7-24c12bf5a092-parameters"}},{"url":"http://hl7.org/fhir/us/cqfmeasures/StructureDefinition/cqfm-testCaseDescription","valueMarkdown":"Patient has endotracheal intubation (exclusion procedure) that starts during and ends after the ED encounter "}],"modifierExtension":[{"url":"http://hl7.org/fhir/us/cqfmeasures/StructureDefinition/cqfm-isTestCase","valueBoolean":true}],"status":"complete","type":"individual","measure":"https://madie.cms.gov/Measure/CMS996FHIRAptTxforSTEMI","period":{"start":"2026-01-01","end":"2026-12-31"},"group":[{"population":[{"code":{"coding":[{"system":"http://terminology.hl7.org/CodeSystem/measure-population","code":"initial-population","display":"Initial Population"}]},"count":1},{"code":{"coding":[{"system":"http://terminology.hl7.org/CodeSystem/measure-population","code":"denominator","display":"Denominator"}]},"count":1},{"code":{"coding":[{"system":"http://terminology.hl7.org/CodeSystem/measure-population","code":"denominator-exclusion","display":"Denominator Exclusion"}]},"count":1},{"code":{"coding":[{"system":"http://terminology.hl7.org/CodeSystem/measure-population","code":"numerator","display":"Numerator"}]},"count":0},{"code":{"coding":[{"system":"http://terminology.hl7.org/CodeSystem/measure-population","code":"denominator-exception","display":"Denominator Exception"}]},"count":0}]}]},"request":{"method":"PUT","url":"MeasureReport/6d65bf36-d673-4f47-b273-1aeef7c4f974"}}]}