{"resourceType":"Bundle","id":"tests-57a93727-9cac-45c2-83e6-ddb24566bd4d-bundle","type":"transaction","entry":[{"fullUrl":"https://madie.cms.gov/Patient/57a93727-9cac-45c2-83e6-ddb24566bd4d","resource":{"resourceType":"Patient","id":"57a93727-9cac-45c2-83e6-ddb24566bd4d","meta":{"profile":["http://hl7.org/fhir/us/qicore/StructureDefinition/qicore-patient"]},"extension":[{"url":"http://hl7.org/fhir/us/core/StructureDefinition/us-core-race","extension":[{"url":"ombCategory","valueCoding":{"system":"urn:oid:2.16.840.1.113883.6.238","code":"2076-8","display":"Native Hawaiian or Other Pacific Islander","userSelected":true}},{"url":"text","valueString":"Native Hawaiian or Other Pacific Islander"}]},{"url":"http://hl7.org/fhir/us/core/StructureDefinition/us-core-ethnicity","extension":[{"url":"ombCategory","valueCoding":{"system":"urn:oid:2.16.840.1.113883.6.238","code":"2186-5","display":"Not Hispanic or Latino","userSelected":true}},{"url":"text","valueString":"Not Hispanic or Latino"}]}],"identifier":[{"type":{"coding":[{"system":"http://terminology.hl7.org/CodeSystem/v2-0203","code":"MR"}]},"system":"https://bonnie-fhir.healthit.gov/","value":"61781cfe3ce875c62010f4b6"}],"name":[{"family":"DenExcl1Fail","given":["DxExclStartsAfterEndsAfterED"]}],"gender":"female","birthDate":"1985-12-02"},"request":{"method":"PUT","url":"Patient/57a93727-9cac-45c2-83e6-ddb24566bd4d"}},{"fullUrl":"https://madie.cms.gov/Encounter/cd3ea3f8-95a3-4ea3-868c-436206322391","resource":{"resourceType":"Encounter","id":"cd3ea3f8-95a3-4ea3-868c-436206322391","meta":{"profile":["http://hl7.org/fhir/us/qicore/StructureDefinition/qicore-encounter"]},"status":"finished","class":{"system":"http://terminology.hl7.org/CodeSystem/v3-ActCode","code":"EMER","display":"emergency","userSelected":true},"type":[{"coding":[{"system":"http://snomed.info/sct","version":"2020-09","code":"4525004","display":"Emergency department patient visit (procedure)","userSelected":true}]}],"subject":{"reference":"Patient/57a93727-9cac-45c2-83e6-ddb24566bd4d"},"period":{"start":"2026-10-09T08:05:00.000+00:00","end":"2026-10-10T07:15:00.000+00:00"},"diagnosis":[{"condition":{"reference":"Condition/8252e77b-11bd-44f7-b28b-c3b584d4e53a"}}]},"request":{"method":"PUT","url":"Encounter/cd3ea3f8-95a3-4ea3-868c-436206322391"}},{"fullUrl":"https://madie.cms.gov/Condition/c63dcdbd-69fb-49f2-ade1-5ef294748490","resource":{"resourceType":"Condition","id":"c63dcdbd-69fb-49f2-ade1-5ef294748490","meta":{"profile":["http://hl7.org/fhir/us/qicore/StructureDefinition/qicore-condition"]},"clinicalStatus":{"coding":[{"system":"http://terminology.hl7.org/CodeSystem/condition-clinical","code":"inactive","display":"Inactive","userSelected":true}]},"category":[{"coding":[{"system":"http://terminology.hl7.org/CodeSystem/condition-category","code":"encounter-diagnosis","display":"Encounter Diagnosis","userSelected":true}]}],"code":{"coding":[{"system":"http://snomed.info/sct","version":"2020-09","code":"14336007","display":"Ruptured abdominal aortic aneurysm (disorder)","userSelected":true}]},"subject":{"reference":"Patient/57a93727-9cac-45c2-83e6-ddb24566bd4d"},"onsetDateTime":"2026-10-15T13:00:00.000+00:00","abatementDateTime":"2026-11-07T09:15:00.000+00:00"},"request":{"method":"PUT","url":"Condition/c63dcdbd-69fb-49f2-ade1-5ef294748490"}},{"fullUrl":"https://madie.cms.gov/Condition/8252e77b-11bd-44f7-b28b-c3b584d4e53a","resource":{"resourceType":"Condition","id":"8252e77b-11bd-44f7-b28b-c3b584d4e53a","meta":{"profile":["http://hl7.org/fhir/us/qicore/StructureDefinition/qicore-condition"]},"clinicalStatus":{"coding":[{"system":"http://terminology.hl7.org/CodeSystem/condition-clinical","code":"active","display":"Active","userSelected":true}]},"category":[{"coding":[{"system":"http://terminology.hl7.org/CodeSystem/condition-category","code":"encounter-diagnosis","display":"Encounter Diagnosis","userSelected":true}]}],"code":{"coding":[{"system":"http://snomed.info/sct","version":"2020-09","code":"401303003","display":"Acute ST segment elevation myocardial infarction (disorder)","userSelected":true}]},"subject":{"reference":"Patient/57a93727-9cac-45c2-83e6-ddb24566bd4d"},"recordedDate":"2026-08-10T08:00:00.000+00:00"},"request":{"method":"PUT","url":"Condition/8252e77b-11bd-44f7-b28b-c3b584d4e53a"}},{"fullUrl":"https://madie.cms.gov/MeasureReport/2108ec49-c1d5-433b-9c69-a610bfec663d","resource":{"resourceType":"MeasureReport","id":"2108ec49-c1d5-433b-9c69-a610bfec663d","meta":{"profile":["http://hl7.org/fhir/us/cqfmeasures/StructureDefinition/test-case-cqfm"]},"contained":[{"resourceType":"Parameters","id":"cdeabff4-493d-45c8-baed-adb04db7dcec-parameters","parameter":[{"name":"subject","valueString":"57a93727-9cac-45c2-83e6-ddb24566bd4d"}]}],"extension":[{"url":"http://hl7.org/fhir/us/cqfmeasures/StructureDefinition/cqfm-inputParameters","valueReference":{"reference":"#cdeabff4-493d-45c8-baed-adb04db7dcec-parameters"}},{"url":"http://hl7.org/fhir/us/cqfmeasures/StructureDefinition/cqfm-testCaseDescription","valueMarkdown":"Patient has aortic dissection (exclusion diagnosis) that starts after and ends after the ED encounter"}],"modifierExtension":[{"url":"http://hl7.org/fhir/us/cqfmeasures/StructureDefinition/cqfm-isTestCase","valueBoolean":true}],"status":"complete","type":"individual","measure":"https://madie.cms.gov/Measure/CMS996FHIRAptTxforSTEMI","period":{"start":"2026-01-01","end":"2026-12-31"},"group":[{"population":[{"code":{"coding":[{"system":"http://terminology.hl7.org/CodeSystem/measure-population","code":"initial-population","display":"Initial Population"}]},"count":1},{"code":{"coding":[{"system":"http://terminology.hl7.org/CodeSystem/measure-population","code":"denominator","display":"Denominator"}]},"count":1},{"code":{"coding":[{"system":"http://terminology.hl7.org/CodeSystem/measure-population","code":"denominator-exclusion","display":"Denominator Exclusion"}]},"count":0},{"code":{"coding":[{"system":"http://terminology.hl7.org/CodeSystem/measure-population","code":"numerator","display":"Numerator"}]},"count":0},{"code":{"coding":[{"system":"http://terminology.hl7.org/CodeSystem/measure-population","code":"denominator-exception","display":"Denominator Exception"}]},"count":0}]}]},"request":{"method":"PUT","url":"MeasureReport/2108ec49-c1d5-433b-9c69-a610bfec663d"}}]}