{"resourceType":"Bundle","id":"tests-2aeedd2a-4d15-4bb8-bf8d-58ba8371a988-bundle","type":"transaction","entry":[{"fullUrl":"https://madie.cms.gov/Patient/2aeedd2a-4d15-4bb8-bf8d-58ba8371a988","resource":{"resourceType":"Patient","id":"2aeedd2a-4d15-4bb8-bf8d-58ba8371a988","meta":{"profile":["http://hl7.org/fhir/us/qicore/StructureDefinition/qicore-patient"]},"extension":[{"url":"http://hl7.org/fhir/us/core/StructureDefinition/us-core-race","extension":[{"url":"ombCategory","valueCoding":{"system":"urn:oid:2.16.840.1.113883.6.238","code":"1002-5","display":"American Indian or Alaska Native","userSelected":true}},{"url":"text","valueString":"American Indian or Alaska Native"}]},{"url":"http://hl7.org/fhir/us/core/StructureDefinition/us-core-ethnicity","extension":[{"url":"ombCategory","valueCoding":{"system":"urn:oid:2.16.840.1.113883.6.238","code":"2135-2","display":"Hispanic or Latino","userSelected":true}},{"url":"text","valueString":"Hispanic or Latino"}]}],"identifier":[{"type":{"coding":[{"system":"http://terminology.hl7.org/CodeSystem/v2-0203","code":"MR"}]},"system":"https://bonnie-fhir.healthit.gov/","value":"62bc749c-f150-4d79-bafb-f255a308321c"}],"name":[{"family":"DENEXCL11PASS","given":["HospiceInterventionPerformedRelevantDateTimePerformedBeforeED"]}],"gender":"male","birthDate":"1978-05-03"},"request":{"method":"PUT","url":"Patient/2aeedd2a-4d15-4bb8-bf8d-58ba8371a988"}},{"fullUrl":"https://madie.cms.gov/Encounter/1ec0db41-d79a-4a69-965b-fc42ed97eb29","resource":{"resourceType":"Encounter","id":"1ec0db41-d79a-4a69-965b-fc42ed97eb29","meta":{"profile":["http://hl7.org/fhir/us/qicore/StructureDefinition/qicore-encounter"]},"status":"finished","class":{"system":"http://terminology.hl7.org/CodeSystem/v3-ActCode","code":"EMER","display":"emergency","userSelected":true},"type":[{"coding":[{"system":"http://snomed.info/sct","version":"2020-09","code":"4525004","display":"Emergency department patient visit","userSelected":true}]}],"subject":{"reference":"Patient/2aeedd2a-4d15-4bb8-bf8d-58ba8371a988"},"period":{"start":"2026-10-09T05:00:00.000+00:00","end":"2026-10-13T17:00:00.000+00:00"},"reasonCode":[{"coding":[{"system":"http://hl7.org/fhir/sid/icd-10-cm","code":"I21.21","display":"ST elevation (STEMI) myocardial infarction involving left circumflex coronary artery","userSelected":true}]}]},"request":{"method":"PUT","url":"Encounter/1ec0db41-d79a-4a69-965b-fc42ed97eb29"}},{"fullUrl":"https://madie.cms.gov/Procedure/fbc22a01-4057-4cd4-b68b-5c4b082827fd","resource":{"resourceType":"Procedure","id":"fbc22a01-4057-4cd4-b68b-5c4b082827fd","meta":{"profile":["http://hl7.org/fhir/us/qicore/StructureDefinition/qicore-procedure"]},"extension":[{"url":"http://hl7.org/fhir/us/qicore/StructureDefinition/qicore-recorded","valueDateTime":"2026-10-09T12:15:00.000+00:00"}],"status":"completed","code":{"coding":[{"system":"http://snomed.info/sct","code":"385763009","display":"Hospice care (regime/therapy)","userSelected":true}]},"subject":{"reference":"Patient/2aeedd2a-4d15-4bb8-bf8d-58ba8371a988"},"performedDateTime":"2026-07-08T12:00:00.000+00:00"},"request":{"method":"PUT","url":"Procedure/fbc22a01-4057-4cd4-b68b-5c4b082827fd"}},{"fullUrl":"https://madie.cms.gov/MeasureReport/b36d209d-373d-4915-afb9-f85ad119baa2","resource":{"resourceType":"MeasureReport","id":"b36d209d-373d-4915-afb9-f85ad119baa2","meta":{"profile":["http://hl7.org/fhir/us/cqfmeasures/StructureDefinition/test-case-cqfm"]},"contained":[{"resourceType":"Parameters","id":"7dc7a8b4-af85-470d-a8d9-bcbe2a833457-parameters","parameter":[{"name":"subject","valueString":"2aeedd2a-4d15-4bb8-bf8d-58ba8371a988"}]}],"extension":[{"url":"http://hl7.org/fhir/us/cqfmeasures/StructureDefinition/cqfm-inputParameters","valueReference":{"reference":"#7dc7a8b4-af85-470d-a8d9-bcbe2a833457-parameters"}},{"url":"http://hl7.org/fhir/us/cqfmeasures/StructureDefinition/cqfm-testCaseDescription","valueMarkdown":"Patients has hospice services (intervention, procedure| relevant date time) before ED"}],"modifierExtension":[{"url":"http://hl7.org/fhir/us/cqfmeasures/StructureDefinition/cqfm-isTestCase","valueBoolean":true}],"status":"complete","type":"individual","measure":"https://madie.cms.gov/Measure/CMS996FHIRAptTxforSTEMI","period":{"start":"2026-01-01","end":"2026-12-31"},"group":[{"population":[{"code":{"coding":[{"system":"http://terminology.hl7.org/CodeSystem/measure-population","code":"initial-population","display":"Initial Population"}]},"count":1},{"code":{"coding":[{"system":"http://terminology.hl7.org/CodeSystem/measure-population","code":"denominator","display":"Denominator"}]},"count":1},{"code":{"coding":[{"system":"http://terminology.hl7.org/CodeSystem/measure-population","code":"denominator-exclusion","display":"Denominator Exclusion"}]},"count":1},{"code":{"coding":[{"system":"http://terminology.hl7.org/CodeSystem/measure-population","code":"numerator","display":"Numerator"}]},"count":0},{"code":{"coding":[{"system":"http://terminology.hl7.org/CodeSystem/measure-population","code":"denominator-exception","display":"Denominator Exception"}]},"count":0}]}]},"request":{"method":"PUT","url":"MeasureReport/b36d209d-373d-4915-afb9-f85ad119baa2"}}]}