{"resourceType":"Bundle","id":"tests-2af66e9f-b6b2-4428-9eb5-c7ab057080fd-bundle","type":"transaction","entry":[{"fullUrl":"https://madie.cms.gov/Patient/2af66e9f-b6b2-4428-9eb5-c7ab057080fd","resource":{"resourceType":"Patient","id":"2af66e9f-b6b2-4428-9eb5-c7ab057080fd","meta":{"profile":["http://hl7.org/fhir/us/qicore/StructureDefinition/qicore-patient"]},"extension":[{"url":"http://hl7.org/fhir/us/core/StructureDefinition/us-core-race","extension":[{"url":"ombCategory","valueCoding":{"system":"urn:oid:2.16.840.1.113883.6.238","code":"2076-8","display":"Native Hawaiian or Other Pacific Islander","userSelected":true}},{"url":"text","valueString":"Native Hawaiian or Other Pacific Islander"}]},{"url":"http://hl7.org/fhir/us/core/StructureDefinition/us-core-ethnicity","extension":[{"url":"ombCategory","valueCoding":{"system":"urn:oid:2.16.840.1.113883.6.238","code":"2186-5","display":"Not Hispanic or Latino","userSelected":true}},{"url":"text","valueString":"Not Hispanic or Latino"}]}],"identifier":[{"type":{"coding":[{"system":"http://terminology.hl7.org/CodeSystem/v2-0203","code":"MR"}]},"system":"https://bonnie-fhir.healthit.gov/","value":"617be7ec1619a529957d62b7"}],"name":[{"family":"DenExcl7Fail","given":["DxStartsAfterEndsAfterED"]}],"gender":"female","birthDate":"1985-12-02"},"request":{"method":"PUT","url":"Patient/2af66e9f-b6b2-4428-9eb5-c7ab057080fd"}},{"fullUrl":"https://madie.cms.gov/Encounter/5d783bb5-33b7-452a-950e-5a53c4d2eb25","resource":{"resourceType":"Encounter","id":"5d783bb5-33b7-452a-950e-5a53c4d2eb25","meta":{"profile":["http://hl7.org/fhir/us/qicore/StructureDefinition/qicore-encounter"]},"status":"finished","class":{"system":"http://terminology.hl7.org/CodeSystem/v3-ActCode","code":"EMER","display":"emergency","userSelected":true},"type":[{"coding":[{"system":"http://snomed.info/sct","version":"2020-09","code":"4525004","display":"Emergency department patient visit (procedure)","userSelected":true}]}],"subject":{"reference":"Patient/2af66e9f-b6b2-4428-9eb5-c7ab057080fd"},"period":{"start":"2026-10-09T08:05:00.000+00:00","end":"2026-10-10T07:15:00.000+00:00"}},"request":{"method":"PUT","url":"Encounter/5d783bb5-33b7-452a-950e-5a53c4d2eb25"}},{"fullUrl":"https://madie.cms.gov/Condition/deda3ba4-ed96-4ef8-a15b-6fe47edb0839","resource":{"resourceType":"Condition","id":"deda3ba4-ed96-4ef8-a15b-6fe47edb0839","meta":{"profile":["http://hl7.org/fhir/us/qicore/StructureDefinition/qicore-condition"]},"clinicalStatus":{"coding":[{"system":"http://terminology.hl7.org/CodeSystem/condition-clinical","code":"active","display":"active","userSelected":true}]},"category":[{"coding":[{"system":"http://terminology.hl7.org/CodeSystem/condition-category","code":"encounter-diagnosis","display":"Encounter Diagnosis","userSelected":true}]}],"code":{"coding":[{"system":"http://snomed.info/sct","version":"2020-09","code":"401303003","display":"Acute ST segment elevation myocardial infarction (disorder)","userSelected":true}]},"subject":{"reference":"Patient/2af66e9f-b6b2-4428-9eb5-c7ab057080fd"},"onsetDateTime":"2026-10-09T08:30:00.000+00:00"},"request":{"method":"PUT","url":"Condition/deda3ba4-ed96-4ef8-a15b-6fe47edb0839"}},{"fullUrl":"https://madie.cms.gov/Condition/877eed1a-183a-46b4-98b3-22121d713774","resource":{"resourceType":"Condition","id":"877eed1a-183a-46b4-98b3-22121d713774","meta":{"profile":["http://hl7.org/fhir/us/qicore/StructureDefinition/qicore-condition"]},"clinicalStatus":{"coding":[{"system":"http://terminology.hl7.org/CodeSystem/condition-clinical","version":"4.0.1","code":"inactive","display":"Inactive","userSelected":true}]},"category":[{"coding":[{"system":"http://terminology.hl7.org/CodeSystem/condition-category","code":"encounter-diagnosis","display":"Encounter Diagnosis","userSelected":true}]}],"code":{"coding":[{"system":"http://snomed.info/sct","version":"2020-03","code":"10061007","display":"Brain stem contusion without open intracranial wound AND with prolonged loss of consciousness (more than 24 hours) AND return to pre-existing conscious level (disorder)","userSelected":true}]},"subject":{"reference":"Patient/2af66e9f-b6b2-4428-9eb5-c7ab057080fd"},"onsetDateTime":"2026-10-11T08:00:00.000+00:00","abatementDateTime":"2026-01-09T06:07:00.000+00:00"},"request":{"method":"PUT","url":"Condition/877eed1a-183a-46b4-98b3-22121d713774"}},{"fullUrl":"https://madie.cms.gov/MeasureReport/a781cc33-34eb-4d0f-88e1-883c2038ee24","resource":{"resourceType":"MeasureReport","id":"a781cc33-34eb-4d0f-88e1-883c2038ee24","meta":{"profile":["http://hl7.org/fhir/us/cqfmeasures/StructureDefinition/test-case-cqfm"]},"contained":[{"resourceType":"Parameters","id":"5f84f09d-fb65-417a-bd5c-022691f539bc-parameters","parameter":[{"name":"subject","valueString":"2af66e9f-b6b2-4428-9eb5-c7ab057080fd"}]}],"extension":[{"url":"http://hl7.org/fhir/us/cqfmeasures/StructureDefinition/cqfm-inputParameters","valueReference":{"reference":"#5f84f09d-fb65-417a-bd5c-022691f539bc-parameters"}},{"url":"http://hl7.org/fhir/us/cqfmeasures/StructureDefinition/cqfm-testCaseDescription","valueMarkdown":"Patient has closed head trauma (exclusion diagnosis) starts after and ends after ED"}],"modifierExtension":[{"url":"http://hl7.org/fhir/us/cqfmeasures/StructureDefinition/cqfm-isTestCase","valueBoolean":true}],"status":"complete","type":"individual","measure":"https://madie.cms.gov/Measure/CMS996FHIRAptTxforSTEMI","period":{"start":"2026-01-01","end":"2026-12-31"},"group":[{"population":[{"code":{"coding":[{"system":"http://terminology.hl7.org/CodeSystem/measure-population","code":"initial-population","display":"Initial Population"}]},"count":1},{"code":{"coding":[{"system":"http://terminology.hl7.org/CodeSystem/measure-population","code":"denominator","display":"Denominator"}]},"count":1},{"code":{"coding":[{"system":"http://terminology.hl7.org/CodeSystem/measure-population","code":"denominator-exclusion","display":"Denominator Exclusion"}]},"count":0},{"code":{"coding":[{"system":"http://terminology.hl7.org/CodeSystem/measure-population","code":"numerator","display":"Numerator"}]},"count":0},{"code":{"coding":[{"system":"http://terminology.hl7.org/CodeSystem/measure-population","code":"denominator-exception","display":"Denominator Exception"}]},"count":0}]}]},"request":{"method":"PUT","url":"MeasureReport/a781cc33-34eb-4d0f-88e1-883c2038ee24"}}]}