{"resourceType":"Bundle","id":"tests-9efd63da-2bbd-4211-ae3e-d5a6bb6a726a-bundle","type":"transaction","entry":[{"fullUrl":"https://madie.cms.gov/Patient/9efd63da-2bbd-4211-ae3e-d5a6bb6a726a","resource":{"resourceType":"Patient","id":"9efd63da-2bbd-4211-ae3e-d5a6bb6a726a","meta":{"profile":["http://hl7.org/fhir/us/qicore/StructureDefinition/qicore-patient"]},"extension":[{"url":"http://hl7.org/fhir/us/core/StructureDefinition/us-core-race","extension":[{"url":"ombCategory","valueCoding":{"system":"urn:oid:2.16.840.1.113883.6.238","code":"2106-3","display":"White","userSelected":true}},{"url":"text","valueString":"White"}]},{"url":"http://hl7.org/fhir/us/core/StructureDefinition/us-core-ethnicity","extension":[{"url":"ombCategory","valueCoding":{"system":"urn:oid:2.16.840.1.113883.6.238","code":"2186-5","display":"Not Hispanic or Latino","userSelected":true}},{"url":"text","valueString":"Not Hispanic or Latino"}]}],"identifier":[{"type":{"coding":[{"system":"http://terminology.hl7.org/CodeSystem/v2-0203","code":"MR"}]},"system":"https://bonnie-fhir.healthit.gov/","value":"6419dca79c0269a68225bb41"}],"name":[{"family":"1IPPass","given":["STEMIstartsduringendsduringEnc"]}],"gender":"female","birthDate":"1985-12-02"},"request":{"method":"PUT","url":"Patient/9efd63da-2bbd-4211-ae3e-d5a6bb6a726a"}},{"fullUrl":"https://madie.cms.gov/Encounter/ada8e8e8-f4ff-4e42-9efe-f4b1a260c63e","resource":{"resourceType":"Encounter","id":"ada8e8e8-f4ff-4e42-9efe-f4b1a260c63e","meta":{"profile":["http://hl7.org/fhir/us/qicore/StructureDefinition/qicore-encounter"]},"status":"finished","class":{"system":"http://terminology.hl7.org/CodeSystem/v3-ActCode","code":"EMER","display":"emergency","userSelected":true},"type":[{"coding":[{"system":"http://snomed.info/sct","version":"2020-09","code":"4525004","display":"Emergency department patient visit (procedure)","userSelected":true}]}],"subject":{"reference":"Patient/9efd63da-2bbd-4211-ae3e-d5a6bb6a726a"},"period":{"start":"2026-10-09T08:05:00.000+00:00","end":"2026-10-10T07:15:00.000+00:00"},"diagnosis":[{"condition":{"reference":"Condition/6902a4bf-126d-437b-80cd-a45b1a6d60fd"}}]},"request":{"method":"PUT","url":"Encounter/ada8e8e8-f4ff-4e42-9efe-f4b1a260c63e"}},{"fullUrl":"https://madie.cms.gov/Condition/6902a4bf-126d-437b-80cd-a45b1a6d60fd","resource":{"resourceType":"Condition","id":"6902a4bf-126d-437b-80cd-a45b1a6d60fd","meta":{"profile":["http://hl7.org/fhir/us/qicore/StructureDefinition/qicore-condition"]},"clinicalStatus":{"coding":[{"system":"http://terminology.hl7.org/CodeSystem/condition-clinical","code":"active","display":"active","userSelected":true}]},"verificationStatus":{"coding":[{"system":"http://terminology.hl7.org/CodeSystem/condition-ver-status","code":"confirmed","display":"confirmed","userSelected":true}]},"category":[{"coding":[{"system":"http://terminology.hl7.org/CodeSystem/condition-category","code":"encounter-diagnosis","display":"Encounter Diagnosis","userSelected":true}]}],"code":{"coding":[{"system":"http://hl7.org/fhir/sid/icd-10-cm","code":"I21.19","userSelected":true}]},"subject":{"reference":"Patient/9efd63da-2bbd-4211-ae3e-d5a6bb6a726a"},"onsetDateTime":"2026-10-09T08:07:00.000+00:00"},"request":{"method":"PUT","url":"Condition/6902a4bf-126d-437b-80cd-a45b1a6d60fd"}},{"fullUrl":"https://madie.cms.gov/Coverage/a99e5cb9-e327-4315-90fe-a9452f479746","resource":{"resourceType":"Coverage","id":"a99e5cb9-e327-4315-90fe-a9452f479746","meta":{"profile":["http://hl7.org/fhir/us/qicore/StructureDefinition/qicore-coverage"]},"status":"active","beneficiary":{"reference":"Patient/9efd63da-2bbd-4211-ae3e-d5a6bb6a726a"},"payor":[{"reference":"Organization/ec8cac12-7dd8-4c6e-8c44-d6c645085c80"}]},"request":{"method":"PUT","url":"Coverage/a99e5cb9-e327-4315-90fe-a9452f479746"}},{"fullUrl":"https://madie.cms.gov/Organization/ccb889e6-58d5-4bd7-b668-7c8d4d32fdab","resource":{"resourceType":"Organization","id":"ec8cac12-7dd8-4c6e-8c44-d6c645085c80","meta":{"profile":["http://hl7.org/fhir/us/qicore/StructureDefinition/qicore-organization"]},"identifier":[{"use":"temp","system":"urn:oid:2.16.840.1.113883.4.4","value":"21-3259825"}],"active":true,"type":[{"coding":[{"system":"http://terminology.hl7.org/CodeSystem/organization-type","code":"pay","display":"Payer"}]}],"name":"Blue Cross Blue Shield of Texas","telecom":[{"system":"phone","value":"(+1) 972-766-6900"}],"address":[{"use":"billing","type":"postal","line":["P.O. Box 660044"],"city":"Dallas","state":"TX","postalCode":"75266-0044","country":"USA"}]},"request":{"method":"PUT","url":"Organization/ec8cac12-7dd8-4c6e-8c44-d6c645085c80"}},{"fullUrl":"https://madie.cms.gov/Practitioner/9bd19f36-2992-4a83-a516-ab63cbc5a8cc","resource":{"resourceType":"Practitioner","id":"9bd19f36-2992-4a83-a516-ab63cbc5a8cc","meta":{"profile":["http://hl7.org/fhir/us/qicore/StructureDefinition/qicore-practitioner"]},"identifier":[{"system":"http://hl7.org/fhir/sid/us-npi","value":"123456"}],"name":[{"family":"Evil","prefix":["Dr"]}]},"request":{"method":"PUT","url":"Practitioner/9bd19f36-2992-4a83-a516-ab63cbc5a8cc"}},{"fullUrl":"https://madie.cms.gov/MeasureReport/ca53f33a-8908-4d5e-ba6d-f27bfd7b1570","resource":{"resourceType":"MeasureReport","id":"ca53f33a-8908-4d5e-ba6d-f27bfd7b1570","meta":{"profile":["http://hl7.org/fhir/us/cqfmeasures/StructureDefinition/test-case-cqfm"]},"contained":[{"resourceType":"Parameters","id":"91b2b1ab-c92b-493d-8ee6-d7bed0fb5431-parameters","parameter":[{"name":"subject","valueString":"9efd63da-2bbd-4211-ae3e-d5a6bb6a726a"}]}],"extension":[{"url":"http://hl7.org/fhir/us/cqfmeasures/StructureDefinition/cqfm-inputParameters","valueReference":{"reference":"#91b2b1ab-c92b-493d-8ee6-d7bed0fb5431-parameters"}},{"url":"http://hl7.org/fhir/us/cqfmeasures/StructureDefinition/cqfm-testCaseDescription","valueMarkdown":"Patient is over 18 years old and has an encounter during the MP and STEMI starts during and ends during Encounter "}],"modifierExtension":[{"url":"http://hl7.org/fhir/us/cqfmeasures/StructureDefinition/cqfm-isTestCase","valueBoolean":true}],"status":"complete","type":"individual","measure":"https://madie.cms.gov/Measure/CMS996FHIRAptTxforSTEMI","period":{"start":"2026-01-01","end":"2026-12-31"},"group":[{"population":[{"code":{"coding":[{"system":"http://terminology.hl7.org/CodeSystem/measure-population","code":"initial-population","display":"Initial Population"}]},"count":1},{"code":{"coding":[{"system":"http://terminology.hl7.org/CodeSystem/measure-population","code":"denominator","display":"Denominator"}]},"count":1},{"code":{"coding":[{"system":"http://terminology.hl7.org/CodeSystem/measure-population","code":"denominator-exclusion","display":"Denominator Exclusion"}]},"count":0},{"code":{"coding":[{"system":"http://terminology.hl7.org/CodeSystem/measure-population","code":"numerator","display":"Numerator"}]},"count":0},{"code":{"coding":[{"system":"http://terminology.hl7.org/CodeSystem/measure-population","code":"denominator-exception","display":"Denominator Exception"}]},"count":0}]}]},"request":{"method":"PUT","url":"MeasureReport/ca53f33a-8908-4d5e-ba6d-f27bfd7b1570"}}]}