{"resourceType":"Bundle","id":"tests-08dd0cf8-1ee9-4f75-909d-ea482cec75c5-bundle","type":"transaction","entry":[{"fullUrl":"https://madie.cms.gov/Patient/08dd0cf8-1ee9-4f75-909d-ea482cec75c5","resource":{"resourceType":"Patient","id":"08dd0cf8-1ee9-4f75-909d-ea482cec75c5","meta":{"profile":["http://hl7.org/fhir/us/qicore/StructureDefinition/qicore-patient"]},"extension":[{"url":"http://hl7.org/fhir/us/core/StructureDefinition/us-core-race","extension":[{"url":"ombCategory","valueCoding":{"system":"urn:oid:2.16.840.1.113883.6.238","code":"1002-5","display":"American Indian or Alaska Native","userSelected":true}},{"url":"text","valueString":"American Indian or Alaska Native"}]},{"url":"http://hl7.org/fhir/us/core/StructureDefinition/us-core-ethnicity","extension":[{"url":"ombCategory","valueCoding":{"system":"urn:oid:2.16.840.1.113883.6.238","code":"2135-2","display":"Hispanic or Latino","userSelected":true}},{"url":"text","valueString":"Hispanic or Latino"}]}],"identifier":[{"type":{"coding":[{"system":"http://terminology.hl7.org/CodeSystem/v2-0203","code":"MR"}]},"system":"https://bonnie-fhir.healthit.gov/","value":"91d6f40e-3cf5-447b-beca-a9c3ac073220"}],"name":[{"family":"DENEXCL6PASS","given":["LongTermAnticoagulantUseIncludeseED"]}],"gender":"male","birthDate":"1976-09-23"},"request":{"method":"PUT","url":"Patient/08dd0cf8-1ee9-4f75-909d-ea482cec75c5"}},{"fullUrl":"https://madie.cms.gov/Encounter/68dd6c18-3805-4670-962c-1be1b4e8d069","resource":{"resourceType":"Encounter","id":"68dd6c18-3805-4670-962c-1be1b4e8d069","meta":{"profile":["http://hl7.org/fhir/us/qicore/StructureDefinition/qicore-encounter"]},"status":"finished","class":{"system":"http://terminology.hl7.org/CodeSystem/v3-ActCode","code":"EMER","display":"emergency","userSelected":true},"type":[{"coding":[{"system":"http://snomed.info/sct","version":"2020-09","code":"4525004","display":"Emergency department patient visit","userSelected":true}]}],"subject":{"reference":"Patient/08dd0cf8-1ee9-4f75-909d-ea482cec75c5"},"period":{"start":"2026-10-09T05:00:00.000+00:00","end":"2026-10-13T17:00:00.000+00:00"},"reasonCode":[{"coding":[{"system":"http://hl7.org/fhir/sid/icd-10-cm","code":"I21.21","display":"ST elevation (STEMI) myocardial infarction involving left circumflex coronary artery","userSelected":true}]}]},"request":{"method":"PUT","url":"Encounter/68dd6c18-3805-4670-962c-1be1b4e8d069"}},{"fullUrl":"https://madie.cms.gov/Condition/5b353769-88f7-4675-8572-27f26508e468","resource":{"resourceType":"Condition","id":"5b353769-88f7-4675-8572-27f26508e468","meta":{"profile":["http://hl7.org/fhir/us/qicore/StructureDefinition/qicore-condition"]},"clinicalStatus":{"coding":[{"system":"http://terminology.hl7.org/CodeSystem/condition-clinical","code":"inactive","display":"Inactive","userSelected":true}]},"category":[{"coding":[{"system":"http://terminology.hl7.org/CodeSystem/condition-category","code":"problem-list-item","display":"Problem List Item","userSelected":true}]}],"code":{"coding":[{"system":"http://hl7.org/fhir/sid/icd-10-cm","code":"Z79.01","display":"Long term (current) use of anticoagulants","userSelected":true}]},"subject":{"reference":"Patient/08dd0cf8-1ee9-4f75-909d-ea482cec75c5"},"onsetDateTime":"2025-10-01T06:00:00.000+00:00","abatementDateTime":"2026-11-25T06:00:00.000+00:00"},"request":{"method":"PUT","url":"Condition/5b353769-88f7-4675-8572-27f26508e468"}},{"fullUrl":"https://madie.cms.gov/MeasureReport/c3a0b2ad-c5e5-4f65-8bb9-e966721e6676","resource":{"resourceType":"MeasureReport","id":"c3a0b2ad-c5e5-4f65-8bb9-e966721e6676","meta":{"profile":["http://hl7.org/fhir/us/cqfmeasures/StructureDefinition/test-case-cqfm"]},"contained":[{"resourceType":"Parameters","id":"f2456d33-619c-4017-ad31-d5483bfc48d3-parameters","parameter":[{"name":"subject","valueString":"08dd0cf8-1ee9-4f75-909d-ea482cec75c5"}]}],"extension":[{"url":"http://hl7.org/fhir/us/cqfmeasures/StructureDefinition/cqfm-inputParameters","valueReference":{"reference":"#f2456d33-619c-4017-ad31-d5483bfc48d3-parameters"}},{"url":"http://hl7.org/fhir/us/cqfmeasures/StructureDefinition/cqfm-testCaseDescription","valueMarkdown":"Patient has long term  anticoagulant use before and includes ED "}],"modifierExtension":[{"url":"http://hl7.org/fhir/us/cqfmeasures/StructureDefinition/cqfm-isTestCase","valueBoolean":true}],"status":"complete","type":"individual","measure":"https://madie.cms.gov/Measure/CMS996FHIRAptTxforSTEMI","period":{"start":"2026-01-01","end":"2026-12-31"},"group":[{"population":[{"code":{"coding":[{"system":"http://terminology.hl7.org/CodeSystem/measure-population","code":"initial-population","display":"Initial Population"}]},"count":1},{"code":{"coding":[{"system":"http://terminology.hl7.org/CodeSystem/measure-population","code":"denominator","display":"Denominator"}]},"count":1},{"code":{"coding":[{"system":"http://terminology.hl7.org/CodeSystem/measure-population","code":"denominator-exclusion","display":"Denominator Exclusion"}]},"count":1},{"code":{"coding":[{"system":"http://terminology.hl7.org/CodeSystem/measure-population","code":"numerator","display":"Numerator"}]},"count":0},{"code":{"coding":[{"system":"http://terminology.hl7.org/CodeSystem/measure-population","code":"denominator-exception","display":"Denominator Exception"}]},"count":0}]}]},"request":{"method":"PUT","url":"MeasureReport/c3a0b2ad-c5e5-4f65-8bb9-e966721e6676"}}]}