{"resourceType":"Bundle","id":"tests-125a85ca-49fc-401a-8abd-3f7f6491b42d-bundle","type":"transaction","entry":[{"fullUrl":"https://madie.cms.gov/Patient/125a85ca-49fc-401a-8abd-3f7f6491b42d","resource":{"resourceType":"Patient","id":"125a85ca-49fc-401a-8abd-3f7f6491b42d","meta":{"profile":["http://hl7.org/fhir/us/qicore/StructureDefinition/qicore-patient"]},"extension":[{"url":"http://hl7.org/fhir/us/core/StructureDefinition/us-core-race","extension":[{"url":"ombCategory","valueCoding":{"system":"urn:oid:2.16.840.1.113883.6.238","code":"2076-8","display":"Native Hawaiian or Other Pacific Islander","userSelected":true}},{"url":"text","valueString":"Native Hawaiian or Other Pacific Islander"}]},{"url":"http://hl7.org/fhir/us/core/StructureDefinition/us-core-ethnicity","extension":[{"url":"ombCategory","valueCoding":{"system":"urn:oid:2.16.840.1.113883.6.238","code":"2186-5","display":"Not Hispanic or Latino","userSelected":true}},{"url":"text","valueString":"Not Hispanic or Latino"}]}],"identifier":[{"type":{"coding":[{"system":"http://terminology.hl7.org/CodeSystem/v2-0203","code":"MR"}]},"system":"https://bonnie-fhir.healthit.gov/","value":"617b0fef513b5d1ee28b7577"}],"name":[{"family":"DenExcl4Fail","given":["DxStartsDuringEndsAfterED"]}],"gender":"female","birthDate":"1985-12-02"},"request":{"method":"PUT","url":"Patient/125a85ca-49fc-401a-8abd-3f7f6491b42d"}},{"fullUrl":"https://madie.cms.gov/Encounter/092b090d-af72-415a-8a52-88df84903b6a","resource":{"resourceType":"Encounter","id":"092b090d-af72-415a-8a52-88df84903b6a","meta":{"profile":["http://hl7.org/fhir/us/qicore/StructureDefinition/qicore-encounter"]},"status":"finished","class":{"system":"http://terminology.hl7.org/CodeSystem/v3-ActCode","code":"EMER","display":"emergency","userSelected":true},"type":[{"coding":[{"system":"http://snomed.info/sct","version":"2020-09","code":"4525004","display":"Emergency department patient visit (procedure)","userSelected":true}]}],"subject":{"reference":"Patient/125a85ca-49fc-401a-8abd-3f7f6491b42d"},"period":{"start":"2026-10-09T08:05:00.000+00:00","end":"2026-10-10T07:15:00.000+00:00"}},"request":{"method":"PUT","url":"Encounter/092b090d-af72-415a-8a52-88df84903b6a"}},{"fullUrl":"https://madie.cms.gov/Condition/7e28c85c-831b-4e76-98de-70e54ccb2b3e","resource":{"resourceType":"Condition","id":"7e28c85c-831b-4e76-98de-70e54ccb2b3e","meta":{"profile":["http://hl7.org/fhir/us/qicore/StructureDefinition/qicore-condition"]},"clinicalStatus":{"coding":[{"system":"http://terminology.hl7.org/CodeSystem/condition-clinical","code":"active","display":"active","userSelected":true}]},"category":[{"coding":[{"system":"http://terminology.hl7.org/CodeSystem/condition-category","code":"encounter-diagnosis","display":"Encounter Diagnosis","userSelected":true}]}],"code":{"coding":[{"system":"http://snomed.info/sct","version":"2020-09","code":"401303003","display":"Acute ST segment elevation myocardial infarction (disorder)","userSelected":true}]},"subject":{"reference":"Patient/125a85ca-49fc-401a-8abd-3f7f6491b42d"},"onsetDateTime":"2026-10-09T08:30:00.000+00:00"},"request":{"method":"PUT","url":"Condition/7e28c85c-831b-4e76-98de-70e54ccb2b3e"}},{"fullUrl":"https://madie.cms.gov/Condition/25bf72f6-9410-4a01-868f-d68c507e9627","resource":{"resourceType":"Condition","id":"25bf72f6-9410-4a01-868f-d68c507e9627","meta":{"profile":["http://hl7.org/fhir/us/qicore/StructureDefinition/qicore-condition"]},"clinicalStatus":{"coding":[{"system":"http://terminology.hl7.org/CodeSystem/condition-clinical","version":"4.0.1","code":"inactive","display":"Inactive","userSelected":true}]},"category":[{"coding":[{"system":"http://terminology.hl7.org/CodeSystem/condition-category","code":"problem-list-item","display":"Problem List Item","userSelected":true}]}],"code":{"coding":[{"system":"http://snomed.info/sct","version":"2020-09","code":"102874004","display":"Possible pregnancy (finding)","userSelected":true}]},"subject":{"reference":"Patient/125a85ca-49fc-401a-8abd-3f7f6491b42d"},"onsetDateTime":"2026-10-09T09:00:00.000+00:00","abatementDateTime":"2026-08-08T08:15:00.000+00:00"},"request":{"method":"PUT","url":"Condition/25bf72f6-9410-4a01-868f-d68c507e9627"}},{"fullUrl":"https://madie.cms.gov/MeasureReport/9ef66932-670a-43de-a177-6dab365d0fd4","resource":{"resourceType":"MeasureReport","id":"9ef66932-670a-43de-a177-6dab365d0fd4","meta":{"profile":["http://hl7.org/fhir/us/cqfmeasures/StructureDefinition/test-case-cqfm"]},"contained":[{"resourceType":"Parameters","id":"92e2898d-8c28-461d-96f7-75243d3f629e-parameters","parameter":[{"name":"subject","valueString":"125a85ca-49fc-401a-8abd-3f7f6491b42d"}]}],"extension":[{"url":"http://hl7.org/fhir/us/cqfmeasures/StructureDefinition/cqfm-inputParameters","valueReference":{"reference":"#92e2898d-8c28-461d-96f7-75243d3f629e-parameters"}},{"url":"http://hl7.org/fhir/us/cqfmeasures/StructureDefinition/cqfm-testCaseDescription","valueMarkdown":"Patient has pregnancy (exclusion dx) starts during ED and ends after ED"}],"modifierExtension":[{"url":"http://hl7.org/fhir/us/cqfmeasures/StructureDefinition/cqfm-isTestCase","valueBoolean":true}],"status":"complete","type":"individual","measure":"https://madie.cms.gov/Measure/CMS996FHIRAptTxforSTEMI","period":{"start":"2026-01-01","end":"2026-12-31"},"group":[{"population":[{"code":{"coding":[{"system":"http://terminology.hl7.org/CodeSystem/measure-population","code":"initial-population","display":"Initial Population"}]},"count":1},{"code":{"coding":[{"system":"http://terminology.hl7.org/CodeSystem/measure-population","code":"denominator","display":"Denominator"}]},"count":1},{"code":{"coding":[{"system":"http://terminology.hl7.org/CodeSystem/measure-population","code":"denominator-exclusion","display":"Denominator Exclusion"}]},"count":0},{"code":{"coding":[{"system":"http://terminology.hl7.org/CodeSystem/measure-population","code":"numerator","display":"Numerator"}]},"count":0},{"code":{"coding":[{"system":"http://terminology.hl7.org/CodeSystem/measure-population","code":"denominator-exception","display":"Denominator Exception"}]},"count":0}]}]},"request":{"method":"PUT","url":"MeasureReport/9ef66932-670a-43de-a177-6dab365d0fd4"}}]}