{"resourceType":"Bundle","id":"tests-daf80212-b06f-4f0c-8e23-9a005a9e9bcb-bundle","type":"transaction","entry":[{"fullUrl":"https://madie.cms.gov/Patient/daf80212-b06f-4f0c-8e23-9a005a9e9bcb","resource":{"resourceType":"Patient","id":"daf80212-b06f-4f0c-8e23-9a005a9e9bcb","meta":{"profile":["http://hl7.org/fhir/us/qicore/StructureDefinition/qicore-patient"]},"extension":[{"url":"http://hl7.org/fhir/us/core/StructureDefinition/us-core-race","extension":[{"url":"ombCategory","valueCoding":{"system":"urn:oid:2.16.840.1.113883.6.238","code":"1002-5","display":"American Indian or Alaska Native","userSelected":true}},{"url":"text","valueString":"American Indian or Alaska Native"}]},{"url":"http://hl7.org/fhir/us/core/StructureDefinition/us-core-ethnicity","extension":[{"url":"ombCategory","valueCoding":{"system":"urn:oid:2.16.840.1.113883.6.238","code":"2135-2","display":"Hispanic or Latino","userSelected":true}},{"url":"text","valueString":"Hispanic or Latino"}]}],"identifier":[{"type":{"coding":[{"system":"http://terminology.hl7.org/CodeSystem/v2-0203","code":"MR"}]},"system":"https://bonnie-fhir.healthit.gov/","value":"660dc344ea96f2084262f8e7"}],"name":[{"family":"DxExclPassStartsBeforeEndsAfterMP","given":["DENEXCEPPASS"]}],"gender":"unknown","birthDate":"1992-10-21"},"request":{"method":"PUT","url":"Patient/daf80212-b06f-4f0c-8e23-9a005a9e9bcb"}},{"fullUrl":"https://madie.cms.gov/Encounter/053c6150-fcbf-45e5-90f9-bb9a1bf608d1","resource":{"resourceType":"Encounter","id":"053c6150-fcbf-45e5-90f9-bb9a1bf608d1","meta":{"profile":["http://hl7.org/fhir/us/qicore/StructureDefinition/qicore-encounter"]},"status":"finished","class":{"system":"http://terminology.hl7.org/CodeSystem/v3-ActCode","code":"EMER","display":"emergency","userSelected":true},"type":[{"coding":[{"system":"http://snomed.info/sct","version":"2020-09","code":"4525004","display":"Emergency department patient visit (procedure)","userSelected":true}]}],"subject":{"reference":"Patient/daf80212-b06f-4f0c-8e23-9a005a9e9bcb"},"period":{"start":"2026-11-10T08:05:00.000+00:00","end":"2026-11-11T07:15:00.000+00:00"}},"request":{"method":"PUT","url":"Encounter/053c6150-fcbf-45e5-90f9-bb9a1bf608d1"}},{"fullUrl":"https://madie.cms.gov/Condition/ea98d1b6-ae4c-4d54-aa40-bc3991b24bbb","resource":{"resourceType":"Condition","id":"ea98d1b6-ae4c-4d54-aa40-bc3991b24bbb","meta":{"profile":["http://hl7.org/fhir/us/qicore/StructureDefinition/qicore-condition"]},"clinicalStatus":{"coding":[{"system":"http://terminology.hl7.org/CodeSystem/condition-clinical","code":"active"}]},"verificationStatus":{"coding":[{"system":"http://terminology.hl7.org/CodeSystem/condition-ver-status","code":"confirmed"}]},"category":[{"coding":[{"system":"http://terminology.hl7.org/CodeSystem/condition-category","code":"encounter-diagnosis","display":"Encounter Diagnosis"}]}],"severity":{"coding":[{"system":"http://snomed.info/sct","code":"24484000","display":"Severe (severity modifier)"}]},"code":{"coding":[{"system":"http://hl7.org/fhir/sid/icd-10-cm","code":"Z92.82","display":"Status post administration of tPA (rtPA) in a different facility within the last 24 hours prior to admission to current facility"}]},"subject":{"reference":"Patient/daf80212-b06f-4f0c-8e23-9a005a9e9bcb"},"onsetDateTime":"2026-11-10T08:30:00.000+00:00"},"request":{"method":"PUT","url":"Condition/ea98d1b6-ae4c-4d54-aa40-bc3991b24bbb"}},{"fullUrl":"https://madie.cms.gov/Condition/2232e88d-08a7-444e-b49f-078be715b963","resource":{"resourceType":"Condition","id":"2232e88d-08a7-444e-b49f-078be715b963","meta":{"profile":["http://hl7.org/fhir/us/qicore/StructureDefinition/qicore-condition"]},"clinicalStatus":{"coding":[{"system":"http://terminology.hl7.org/CodeSystem/condition-clinical","code":"active","display":"active","userSelected":true}]},"category":[{"coding":[{"system":"http://terminology.hl7.org/CodeSystem/condition-category","code":"encounter-diagnosis","display":"Encounter Diagnosis","userSelected":true}]}],"code":{"coding":[{"system":"http://snomed.info/sct","version":"2020-09","code":"401303003","display":"Acute ST segment elevation myocardial infarction (disorder)","userSelected":true}]},"subject":{"reference":"Patient/daf80212-b06f-4f0c-8e23-9a005a9e9bcb"},"onsetDateTime":"2026-11-10T08:30:00.000+00:00"},"request":{"method":"PUT","url":"Condition/2232e88d-08a7-444e-b49f-078be715b963"}},{"fullUrl":"https://madie.cms.gov/Condition/6860c81e-91d3-4af9-9b4a-f9f5d14bc5be","resource":{"resourceType":"Condition","id":"6860c81e-91d3-4af9-9b4a-f9f5d14bc5be","meta":{"profile":["http://hl7.org/fhir/us/qicore/StructureDefinition/qicore-condition"]},"clinicalStatus":{"coding":[{"system":"http://terminology.hl7.org/CodeSystem/condition-clinical","version":"4.0.1","code":"inactive","display":"Inactive","userSelected":true}]},"category":[{"coding":[{"system":"http://terminology.hl7.org/CodeSystem/condition-category","code":"encounter-diagnosis","display":"Encounter Diagnosis","userSelected":true}]}],"code":{"coding":[{"system":"http://snomed.info/sct","version":"2020-09","code":"162710004","display":"On examination - collapse -cardiac arrest (disorder)","userSelected":true}]},"subject":{"reference":"Patient/daf80212-b06f-4f0c-8e23-9a005a9e9bcb"},"onsetDateTime":"2026-11-10T09:00:00.000+00:00"},"request":{"method":"PUT","url":"Condition/6860c81e-91d3-4af9-9b4a-f9f5d14bc5be"}},{"fullUrl":"https://madie.cms.gov/Coverage/e1d4e177-19a8-4e2a-8ba1-22bf7b25cfe4","resource":{"resourceType":"Coverage","id":"e1d4e177-19a8-4e2a-8ba1-22bf7b25cfe4","meta":{"profile":["http://hl7.org/fhir/us/qicore/StructureDefinition/qicore-coverage"]},"status":"active","beneficiary":{"reference":"Patient/daf80212-b06f-4f0c-8e23-9a005a9e9bcb"},"payor":[{"reference":"Organization/aeb2c6be-6577-4bba-a6b6-6eab95111f1b"}]},"request":{"method":"PUT","url":"Coverage/e1d4e177-19a8-4e2a-8ba1-22bf7b25cfe4"}},{"fullUrl":"https://madie.cms.gov/Organization/69054181-92c1-424f-8a40-a1cc8f6a7091","resource":{"resourceType":"Organization","id":"aeb2c6be-6577-4bba-a6b6-6eab95111f1b","meta":{"profile":["http://hl7.org/fhir/us/qicore/StructureDefinition/qicore-organization"]},"identifier":[{"use":"temp","system":"urn:oid:2.16.840.1.113883.4.4","value":"21-3259825"}],"active":true,"type":[{"coding":[{"system":"http://terminology.hl7.org/CodeSystem/organization-type","code":"pay","display":"Payer Type"}]}],"name":"Blue Cross Blue Shield of Texas","telecom":[{"system":"phone","value":"(+1) 972-766-6900"}],"address":[{"use":"billing","type":"postal","line":["P.O. Box 660044"],"city":"Dallas","state":"TX","postalCode":"75266-0044","country":"USA"}]},"request":{"method":"PUT","url":"Organization/aeb2c6be-6577-4bba-a6b6-6eab95111f1b"}},{"fullUrl":"https://madie.cms.gov/Practitioner/4619988b-eacf-4c2e-95f4-57ac876079f4","resource":{"resourceType":"Practitioner","id":"4619988b-eacf-4c2e-95f4-57ac876079f4","meta":{"profile":["http://hl7.org/fhir/us/qicore/StructureDefinition/qicore-practitioner"]},"identifier":[{"system":"http://hl7.org/fhir/sid/us-npi","value":"123456"}],"name":[{"family":"Evil","prefix":["Dr"]}]},"request":{"method":"PUT","url":"Practitioner/4619988b-eacf-4c2e-95f4-57ac876079f4"}},{"fullUrl":"https://madie.cms.gov/MeasureReport/85f0f4d9-cd12-4807-8e16-4cf4c4304146","resource":{"resourceType":"MeasureReport","id":"85f0f4d9-cd12-4807-8e16-4cf4c4304146","meta":{"profile":["http://hl7.org/fhir/us/cqfmeasures/StructureDefinition/test-case-cqfm"]},"contained":[{"resourceType":"Parameters","id":"28420538-20f7-4984-acbe-59cbd05f46af-parameters","parameter":[{"name":"subject","valueString":"daf80212-b06f-4f0c-8e23-9a005a9e9bcb"}]}],"extension":[{"url":"http://hl7.org/fhir/us/cqfmeasures/StructureDefinition/cqfm-inputParameters","valueReference":{"reference":"#28420538-20f7-4984-acbe-59cbd05f46af-parameters"}},{"url":"http://hl7.org/fhir/us/cqfmeasures/StructureDefinition/cqfm-testCaseDescription","valueMarkdown":"Patient has diagnosis exception of tPA at another facility within 24 hours of emergency department visit."}],"modifierExtension":[{"url":"http://hl7.org/fhir/us/cqfmeasures/StructureDefinition/cqfm-isTestCase","valueBoolean":true}],"status":"complete","type":"individual","measure":"https://madie.cms.gov/Measure/CMS996FHIRAptTxforSTEMI","period":{"start":"2026-01-01","end":"2026-12-31"},"group":[{"population":[{"code":{"coding":[{"system":"http://terminology.hl7.org/CodeSystem/measure-population","code":"initial-population","display":"Initial Population"}]},"count":1},{"code":{"coding":[{"system":"http://terminology.hl7.org/CodeSystem/measure-population","code":"denominator","display":"Denominator"}]},"count":1},{"code":{"coding":[{"system":"http://terminology.hl7.org/CodeSystem/measure-population","code":"denominator-exclusion","display":"Denominator Exclusion"}]},"count":0},{"code":{"coding":[{"system":"http://terminology.hl7.org/CodeSystem/measure-population","code":"numerator","display":"Numerator"}]},"count":0},{"code":{"coding":[{"system":"http://terminology.hl7.org/CodeSystem/measure-population","code":"denominator-exception","display":"Denominator Exception"}]},"count":1}]}]},"request":{"method":"PUT","url":"MeasureReport/85f0f4d9-cd12-4807-8e16-4cf4c4304146"}}]}