{"resourceType":"Bundle","id":"tests-c3e9651c-c028-4034-86b7-bbe5a0dd9567-bundle","type":"transaction","entry":[{"fullUrl":"https://madie.cms.gov/Patient/c3e9651c-c028-4034-86b7-bbe5a0dd9567","resource":{"resourceType":"Patient","id":"c3e9651c-c028-4034-86b7-bbe5a0dd9567","meta":{"profile":["http://hl7.org/fhir/us/qicore/StructureDefinition/qicore-patient"]},"extension":[{"url":"http://hl7.org/fhir/us/core/StructureDefinition/us-core-race","extension":[{"url":"ombCategory","valueCoding":{"system":"urn:oid:2.16.840.1.113883.6.238","code":"2076-8","display":"Native Hawaiian or Other Pacific Islander","userSelected":true}},{"url":"text","valueString":"Native Hawaiian or Other Pacific Islander"}]},{"url":"http://hl7.org/fhir/us/core/StructureDefinition/us-core-ethnicity","extension":[{"url":"ombCategory","valueCoding":{"system":"urn:oid:2.16.840.1.113883.6.238","code":"2186-5","display":"Not Hispanic or Latino","userSelected":true}},{"url":"text","valueString":"Not Hispanic or Latino"}]}],"identifier":[{"type":{"coding":[{"system":"http://terminology.hl7.org/CodeSystem/v2-0203","code":"MR"}]},"system":"https://bonnie-fhir.healthit.gov/","value":"617b1065513b5d1ee28b7579"}],"name":[{"family":"DenExcl4Fail","given":["DxStartsDuringEndsDuringED"]}],"gender":"male","birthDate":"1985-12-02"},"request":{"method":"PUT","url":"Patient/c3e9651c-c028-4034-86b7-bbe5a0dd9567"}},{"fullUrl":"https://madie.cms.gov/Encounter/1c3a6a3b-bc04-466e-a96e-b3aa1895db1a","resource":{"resourceType":"Encounter","id":"1c3a6a3b-bc04-466e-a96e-b3aa1895db1a","meta":{"profile":["http://hl7.org/fhir/us/qicore/StructureDefinition/qicore-encounter"]},"status":"finished","class":{"system":"http://terminology.hl7.org/CodeSystem/v3-ActCode","code":"EMER","display":"emergency","userSelected":true},"type":[{"coding":[{"system":"http://snomed.info/sct","version":"2020-09","code":"4525004","display":"Emergency department patient visit (procedure)","userSelected":true}]}],"subject":{"reference":"Patient/c3e9651c-c028-4034-86b7-bbe5a0dd9567"},"period":{"start":"2026-10-09T08:05:00.000+00:00","end":"2026-10-10T07:15:00.000+00:00"}},"request":{"method":"PUT","url":"Encounter/1c3a6a3b-bc04-466e-a96e-b3aa1895db1a"}},{"fullUrl":"https://madie.cms.gov/Condition/63faf187-ca7c-4379-a32a-58c9b4cc3d6e","resource":{"resourceType":"Condition","id":"63faf187-ca7c-4379-a32a-58c9b4cc3d6e","meta":{"profile":["http://hl7.org/fhir/us/qicore/StructureDefinition/qicore-condition"]},"clinicalStatus":{"coding":[{"system":"http://terminology.hl7.org/CodeSystem/condition-clinical","code":"active","display":"active","userSelected":true}]},"category":[{"coding":[{"system":"http://terminology.hl7.org/CodeSystem/condition-category","code":"encounter-diagnosis","display":"Encounter Diagnosis","userSelected":true}]}],"code":{"coding":[{"system":"http://snomed.info/sct","version":"2020-09","code":"401303003","display":"Acute ST segment elevation myocardial infarction (disorder)","userSelected":true}]},"subject":{"reference":"Patient/c3e9651c-c028-4034-86b7-bbe5a0dd9567"},"onsetDateTime":"2026-10-09T08:30:00.000+00:00"},"request":{"method":"PUT","url":"Condition/63faf187-ca7c-4379-a32a-58c9b4cc3d6e"}},{"fullUrl":"https://madie.cms.gov/Condition/522ec4b8-ef79-443c-999f-a3911d9355e8","resource":{"resourceType":"Condition","id":"522ec4b8-ef79-443c-999f-a3911d9355e8","meta":{"profile":["http://hl7.org/fhir/us/qicore/StructureDefinition/qicore-condition"]},"clinicalStatus":{"coding":[{"system":"http://terminology.hl7.org/CodeSystem/condition-clinical","version":"4.0.1","code":"inactive","display":"Inactive","userSelected":true}]},"category":[{"coding":[{"system":"http://terminology.hl7.org/CodeSystem/condition-category","code":"encounter-diagnosis","display":"Encounter Diagnosis","userSelected":true}]}],"code":{"coding":[{"system":"http://snomed.info/sct","version":"2020-09","code":"204493007","display":"Arteriovenous malformation of precerebral vessels (disorder)","userSelected":true}]},"subject":{"reference":"Patient/c3e9651c-c028-4034-86b7-bbe5a0dd9567"},"onsetDateTime":"2026-10-09T08:09:00.000+00:00","abatementDateTime":"2026-10-10T01:15:00.000+00:00"},"request":{"method":"PUT","url":"Condition/522ec4b8-ef79-443c-999f-a3911d9355e8"}},{"fullUrl":"https://madie.cms.gov/MeasureReport/ec0075af-8f82-408a-8961-7a603d88a8df","resource":{"resourceType":"MeasureReport","id":"ec0075af-8f82-408a-8961-7a603d88a8df","meta":{"profile":["http://hl7.org/fhir/us/cqfmeasures/StructureDefinition/test-case-cqfm"]},"contained":[{"resourceType":"Parameters","id":"602169b5-c2d8-4f81-9251-1d2e1e2117d8-parameters","parameter":[{"name":"subject","valueString":"c3e9651c-c028-4034-86b7-bbe5a0dd9567"}]}],"extension":[{"url":"http://hl7.org/fhir/us/cqfmeasures/StructureDefinition/cqfm-inputParameters","valueReference":{"reference":"#602169b5-c2d8-4f81-9251-1d2e1e2117d8-parameters"}},{"url":"http://hl7.org/fhir/us/cqfmeasures/StructureDefinition/cqfm-testCaseDescription","valueMarkdown":"Patient has cerebral vascular lesion (exclusion dx) starts during ED and ends during ED"}],"modifierExtension":[{"url":"http://hl7.org/fhir/us/cqfmeasures/StructureDefinition/cqfm-isTestCase","valueBoolean":true}],"status":"complete","type":"individual","measure":"https://madie.cms.gov/Measure/CMS996FHIRAptTxforSTEMI","period":{"start":"2026-01-01","end":"2026-12-31"},"group":[{"population":[{"code":{"coding":[{"system":"http://terminology.hl7.org/CodeSystem/measure-population","code":"initial-population","display":"Initial Population"}]},"count":1},{"code":{"coding":[{"system":"http://terminology.hl7.org/CodeSystem/measure-population","code":"denominator","display":"Denominator"}]},"count":1},{"code":{"coding":[{"system":"http://terminology.hl7.org/CodeSystem/measure-population","code":"denominator-exclusion","display":"Denominator Exclusion"}]},"count":0},{"code":{"coding":[{"system":"http://terminology.hl7.org/CodeSystem/measure-population","code":"numerator","display":"Numerator"}]},"count":0},{"code":{"coding":[{"system":"http://terminology.hl7.org/CodeSystem/measure-population","code":"denominator-exception","display":"Denominator Exception"}]},"count":0}]}]},"request":{"method":"PUT","url":"MeasureReport/ec0075af-8f82-408a-8961-7a603d88a8df"}}]}