{"resourceType":"Bundle","id":"tests-4a3a512c-b5bd-4da7-a8ed-a4cf56dfec29-bundle","type":"transaction","entry":[{"fullUrl":"https://madie.cms.gov/Patient/4a3a512c-b5bd-4da7-a8ed-a4cf56dfec29","resource":{"resourceType":"Patient","id":"4a3a512c-b5bd-4da7-a8ed-a4cf56dfec29","meta":{"profile":["http://hl7.org/fhir/us/qicore/StructureDefinition/qicore-patient"]},"extension":[{"url":"http://hl7.org/fhir/us/core/StructureDefinition/us-core-race","extension":[{"url":"ombCategory","valueCoding":{"system":"urn:oid:2.16.840.1.113883.6.238","code":"2076-8","display":"Native Hawaiian or Other Pacific Islander","userSelected":true}},{"url":"text","valueString":"Native Hawaiian or Other Pacific Islander"}]},{"url":"http://hl7.org/fhir/us/core/StructureDefinition/us-core-ethnicity","extension":[{"url":"ombCategory","valueCoding":{"system":"urn:oid:2.16.840.1.113883.6.238","code":"2186-5","display":"Not Hispanic or Latino","userSelected":true}},{"url":"text","valueString":"Not Hispanic or Latino"}]}],"identifier":[{"type":{"coding":[{"system":"http://terminology.hl7.org/CodeSystem/v2-0203","code":"MR"}]},"system":"https://bonnie-fhir.healthit.gov/","value":"617835c74bf8e25b8f204e27"}],"name":[{"family":"NumPass","given":["Depart45minsfromEDstart"]}],"gender":"female","birthDate":"1985-12-02"},"request":{"method":"PUT","url":"Patient/4a3a512c-b5bd-4da7-a8ed-a4cf56dfec29"}},{"fullUrl":"https://madie.cms.gov/Encounter/f91bd1d8-423a-4159-ae42-5b89c7b6be2a","resource":{"resourceType":"Encounter","id":"f91bd1d8-423a-4159-ae42-5b89c7b6be2a","meta":{"profile":["http://hl7.org/fhir/us/qicore/StructureDefinition/qicore-encounter"]},"status":"finished","class":{"system":"http://terminology.hl7.org/CodeSystem/v3-ActCode","code":"EMER","display":"emergency","userSelected":true},"type":[{"coding":[{"system":"http://snomed.info/sct","version":"2020-09","code":"4525004","display":"Emergency department patient visit (procedure)","userSelected":true}]}],"subject":{"reference":"Patient/4a3a512c-b5bd-4da7-a8ed-a4cf56dfec29"},"period":{"start":"2026-10-09T08:00:00.000+00:00","end":"2026-10-09T08:50:00.000+00:00"},"diagnosis":[{"condition":{"reference":"Condition/4d427517-204e-4fba-8cdb-d2922a2bb960"}}],"hospitalization":{"dischargeDisposition":{"coding":[{"system":"http://snomed.info/sct","version":"2020-09","code":"306703003","display":"Discharge to tertiary referral hospital (procedure)","userSelected":true}]}},"location":[{"location":{"reference":"Location/e7f8db16-0d38-414f-bcea-f7e83c6877c1"},"period":{"start":"2026-10-09T08:05:00.000+00:00","end":"2026-10-09T08:50:00.000+00:00"}}]},"request":{"method":"PUT","url":"Encounter/f91bd1d8-423a-4159-ae42-5b89c7b6be2a"}},{"fullUrl":"https://madie.cms.gov/Location/e7f8db16-0d38-414f-bcea-f7e83c6877c1","resource":{"resourceType":"Location","id":"e7f8db16-0d38-414f-bcea-f7e83c6877c1","meta":{"profile":["http://hl7.org/fhir/us/qicore/StructureDefinition/qicore-location"]},"identifier":[{"use":"usual","system":"http://exampleoflocation.com","value":"ED-1.R3"}],"name":"Emergency Department, first floor","type":[{"coding":[{"system":"http://snomed.info/sct","version":"20210611","code":"4525004","display":"Emergency department patient visit (procedure)","userSelected":true}]},{"coding":[{"system":"http://terminology.hl7.org/CodeSystem/v3-RoleCode","version":"2019","code":"ER","display":"Emergency room","userSelected":true}]}]},"request":{"method":"PUT","url":"Location/e7f8db16-0d38-414f-bcea-f7e83c6877c1"}},{"fullUrl":"https://madie.cms.gov/Condition/4d427517-204e-4fba-8cdb-d2922a2bb960","resource":{"resourceType":"Condition","id":"4d427517-204e-4fba-8cdb-d2922a2bb960","meta":{"profile":["http://hl7.org/fhir/us/qicore/StructureDefinition/qicore-condition"]},"clinicalStatus":{"coding":[{"system":"http://terminology.hl7.org/CodeSystem/condition-clinical","code":"active","display":"active","userSelected":true}]},"category":[{"coding":[{"system":"http://terminology.hl7.org/CodeSystem/condition-category","code":"encounter-diagnosis","display":"Encounter Diagnosis","userSelected":true}]}],"code":{"coding":[{"system":"http://hl7.org/fhir/sid/icd-10-cm","code":"I21.3","userSelected":true}]},"subject":{"reference":"Patient/4a3a512c-b5bd-4da7-a8ed-a4cf56dfec29"},"onsetDateTime":"2026-10-09T08:11:00.000+00:00"},"request":{"method":"PUT","url":"Condition/4d427517-204e-4fba-8cdb-d2922a2bb960"}},{"fullUrl":"https://madie.cms.gov/MeasureReport/78cf0bc5-197a-4a3d-9a98-d4797a4521d2","resource":{"resourceType":"MeasureReport","id":"78cf0bc5-197a-4a3d-9a98-d4797a4521d2","meta":{"profile":["http://hl7.org/fhir/us/cqfmeasures/StructureDefinition/test-case-cqfm"]},"contained":[{"resourceType":"Parameters","id":"580b7878-83fb-4605-96c3-53f85bbe9e07-parameters","parameter":[{"name":"subject","valueString":"4a3a512c-b5bd-4da7-a8ed-a4cf56dfec29"}]}],"extension":[{"url":"http://hl7.org/fhir/us/cqfmeasures/StructureDefinition/cqfm-inputParameters","valueReference":{"reference":"#580b7878-83fb-4605-96c3-53f85bbe9e07-parameters"}},{"url":"http://hl7.org/fhir/us/cqfmeasures/StructureDefinition/cqfm-testCaseDescription","valueMarkdown":"ED ends 45 minutes after start time to be transferred to acute care facility"}],"modifierExtension":[{"url":"http://hl7.org/fhir/us/cqfmeasures/StructureDefinition/cqfm-isTestCase","valueBoolean":true}],"status":"complete","type":"individual","measure":"https://madie.cms.gov/Measure/CMS996FHIRAptTxforSTEMI","period":{"start":"2026-01-01","end":"2026-12-31"},"group":[{"population":[{"code":{"coding":[{"system":"http://terminology.hl7.org/CodeSystem/measure-population","code":"initial-population","display":"Initial Population"}]},"count":1},{"code":{"coding":[{"system":"http://terminology.hl7.org/CodeSystem/measure-population","code":"denominator","display":"Denominator"}]},"count":1},{"code":{"coding":[{"system":"http://terminology.hl7.org/CodeSystem/measure-population","code":"denominator-exclusion","display":"Denominator Exclusion"}]},"count":0},{"code":{"coding":[{"system":"http://terminology.hl7.org/CodeSystem/measure-population","code":"numerator","display":"Numerator"}]},"count":1},{"code":{"coding":[{"system":"http://terminology.hl7.org/CodeSystem/measure-population","code":"denominator-exception","display":"Denominator Exception"}]},"count":0}]}]},"request":{"method":"PUT","url":"MeasureReport/78cf0bc5-197a-4a3d-9a98-d4797a4521d2"}}]}