{"resourceType":"Bundle","id":"tests-b4473158-3d75-4f2e-824d-61b575dbdc2f-bundle","type":"transaction","entry":[{"fullUrl":"https://madie.cms.gov/Patient/b4473158-3d75-4f2e-824d-61b575dbdc2f","resource":{"resourceType":"Patient","id":"b4473158-3d75-4f2e-824d-61b575dbdc2f","meta":{"profile":["http://hl7.org/fhir/us/qicore/StructureDefinition/qicore-patient"]},"extension":[{"url":"http://hl7.org/fhir/us/core/StructureDefinition/us-core-race","extension":[{"url":"ombCategory","valueCoding":{"system":"urn:oid:2.16.840.1.113883.6.238","code":"2028-9","display":"Asian","userSelected":true}},{"url":"text","valueString":"Asian"}]},{"url":"http://hl7.org/fhir/us/core/StructureDefinition/us-core-ethnicity","extension":[{"url":"ombCategory","valueCoding":{"system":"urn:oid:2.16.840.1.113883.6.238","code":"2186-5","display":"Not Hispanic or Latino","userSelected":true}},{"url":"text","valueString":"Not Hispanic or Latino"}]}],"identifier":[{"type":{"coding":[{"system":"http://terminology.hl7.org/CodeSystem/v2-0203","code":"MR"}]},"system":"https://bonnie-fhir.healthit.gov/","value":"617b10e7513b5d1ee28b757b"}],"name":[{"family":"DenExcl4Pass","given":["DxStartsBeforeEDNoEnd"]}],"gender":"male","birthDate":"1985-12-02"},"request":{"method":"PUT","url":"Patient/b4473158-3d75-4f2e-824d-61b575dbdc2f"}},{"fullUrl":"https://madie.cms.gov/Encounter/a47af14d-e996-43bb-83c8-34f7904573d9","resource":{"resourceType":"Encounter","id":"a47af14d-e996-43bb-83c8-34f7904573d9","meta":{"profile":["http://hl7.org/fhir/us/qicore/StructureDefinition/qicore-encounter"]},"status":"finished","class":{"system":"http://terminology.hl7.org/CodeSystem/v3-ActCode","code":"EMER","display":"emergency","userSelected":true},"type":[{"coding":[{"system":"http://snomed.info/sct","version":"2020-09","code":"4525004","display":"Emergency department patient visit (procedure)","userSelected":true}]}],"subject":{"reference":"Patient/b4473158-3d75-4f2e-824d-61b575dbdc2f"},"period":{"start":"2026-10-09T08:05:00.000+00:00","end":"2026-10-10T07:15:00.000+00:00"}},"request":{"method":"PUT","url":"Encounter/a47af14d-e996-43bb-83c8-34f7904573d9"}},{"fullUrl":"https://madie.cms.gov/Condition/e21bfa1c-af3c-4674-960c-a7d4b1bd692e","resource":{"resourceType":"Condition","id":"e21bfa1c-af3c-4674-960c-a7d4b1bd692e","meta":{"profile":["http://hl7.org/fhir/us/qicore/StructureDefinition/qicore-condition"]},"clinicalStatus":{"coding":[{"system":"http://terminology.hl7.org/CodeSystem/condition-clinical","code":"active","display":"active","userSelected":true}]},"category":[{"coding":[{"system":"http://terminology.hl7.org/CodeSystem/condition-category","code":"encounter-diagnosis","display":"Encounter Diagnosis","userSelected":true}]}],"code":{"coding":[{"system":"http://snomed.info/sct","version":"2020-09","code":"401303003","display":"Acute ST segment elevation myocardial infarction (disorder)","userSelected":true}]},"subject":{"reference":"Patient/b4473158-3d75-4f2e-824d-61b575dbdc2f"},"onsetDateTime":"2026-10-09T08:30:00.000+00:00"},"request":{"method":"PUT","url":"Condition/e21bfa1c-af3c-4674-960c-a7d4b1bd692e"}},{"fullUrl":"https://madie.cms.gov/Condition/22f29ab9-8483-4207-b303-bea6097ce2e9","resource":{"resourceType":"Condition","id":"22f29ab9-8483-4207-b303-bea6097ce2e9","meta":{"profile":["http://hl7.org/fhir/us/qicore/StructureDefinition/qicore-condition"]},"clinicalStatus":{"coding":[{"system":"http://terminology.hl7.org/CodeSystem/condition-clinical","code":"active","display":"Active","userSelected":true}]},"category":[{"coding":[{"system":"http://terminology.hl7.org/CodeSystem/condition-category","code":"encounter-diagnosis","display":"Encounter Diagnosis","userSelected":true}]}],"code":{"coding":[{"system":"http://snomed.info/sct","version":"2020-09","code":"101421000119107","display":"Dementia due to Parkinson's disease (disorder)","userSelected":true}]},"subject":{"reference":"Patient/b4473158-3d75-4f2e-824d-61b575dbdc2f"},"onsetDateTime":"2024-10-01T08:00:00.000+00:00"},"request":{"method":"PUT","url":"Condition/22f29ab9-8483-4207-b303-bea6097ce2e9"}},{"fullUrl":"https://madie.cms.gov/MeasureReport/50cf8ab1-05d2-44dd-9e37-10449bf891f3","resource":{"resourceType":"MeasureReport","id":"50cf8ab1-05d2-44dd-9e37-10449bf891f3","meta":{"profile":["http://hl7.org/fhir/us/cqfmeasures/StructureDefinition/test-case-cqfm"]},"contained":[{"resourceType":"Parameters","id":"71dc0d6f-1343-451e-a6d0-6be081b5d580-parameters","parameter":[{"name":"subject","valueString":"b4473158-3d75-4f2e-824d-61b575dbdc2f"}]}],"extension":[{"url":"http://hl7.org/fhir/us/cqfmeasures/StructureDefinition/cqfm-inputParameters","valueReference":{"reference":"#71dc0d6f-1343-451e-a6d0-6be081b5d580-parameters"}},{"url":"http://hl7.org/fhir/us/cqfmeasures/StructureDefinition/cqfm-testCaseDescription","valueMarkdown":"Patient has Dementia (exclusion dx) starts before ED and no end"}],"modifierExtension":[{"url":"http://hl7.org/fhir/us/cqfmeasures/StructureDefinition/cqfm-isTestCase","valueBoolean":true}],"status":"complete","type":"individual","measure":"https://madie.cms.gov/Measure/CMS996FHIRAptTxforSTEMI","period":{"start":"2026-01-01","end":"2026-12-31"},"group":[{"population":[{"code":{"coding":[{"system":"http://terminology.hl7.org/CodeSystem/measure-population","code":"initial-population","display":"Initial Population"}]},"count":1},{"code":{"coding":[{"system":"http://terminology.hl7.org/CodeSystem/measure-population","code":"denominator","display":"Denominator"}]},"count":1},{"code":{"coding":[{"system":"http://terminology.hl7.org/CodeSystem/measure-population","code":"denominator-exclusion","display":"Denominator Exclusion"}]},"count":1},{"code":{"coding":[{"system":"http://terminology.hl7.org/CodeSystem/measure-population","code":"numerator","display":"Numerator"}]},"count":0},{"code":{"coding":[{"system":"http://terminology.hl7.org/CodeSystem/measure-population","code":"denominator-exception","display":"Denominator Exception"}]},"count":0}]}]},"request":{"method":"PUT","url":"MeasureReport/50cf8ab1-05d2-44dd-9e37-10449bf891f3"}}]}