{"resourceType":"Bundle","id":"tests-ddee386b-8a0d-4bfb-a5c8-7235e1b17fa8-bundle","type":"transaction","entry":[{"fullUrl":"https://madie.cms.gov/Patient/ddee386b-8a0d-4bfb-a5c8-7235e1b17fa8","resource":{"resourceType":"Patient","id":"ddee386b-8a0d-4bfb-a5c8-7235e1b17fa8","meta":{"profile":["http://hl7.org/fhir/us/qicore/StructureDefinition/qicore-patient"]},"extension":[{"url":"http://hl7.org/fhir/us/core/StructureDefinition/us-core-race","extension":[{"url":"ombCategory","valueCoding":{"system":"urn:oid:2.16.840.1.113883.6.238","code":"2076-8","display":"Native Hawaiian or Other Pacific Islander","userSelected":true}},{"url":"text","valueString":"Native Hawaiian or Other Pacific Islander"}]},{"url":"http://hl7.org/fhir/us/core/StructureDefinition/us-core-ethnicity","extension":[{"url":"ombCategory","valueCoding":{"system":"urn:oid:2.16.840.1.113883.6.238","code":"2186-5","display":"Not Hispanic or Latino","userSelected":true}},{"url":"text","valueString":"Not Hispanic or Latino"}]}],"identifier":[{"type":{"coding":[{"system":"http://terminology.hl7.org/CodeSystem/v2-0203","code":"MR"}]},"system":"https://bonnie-fhir.healthit.gov/","value":"6179ef2ead1a790b7af7525b"}],"name":[{"family":"DenExcl3Pass","given":["PxStarts8DBeforeEDNoEndrelevantDatetime"]}],"gender":"female","birthDate":"1985-12-02"},"request":{"method":"PUT","url":"Patient/ddee386b-8a0d-4bfb-a5c8-7235e1b17fa8"}},{"fullUrl":"https://madie.cms.gov/Encounter/493e0dc0-b391-483f-becd-a998f154267d","resource":{"resourceType":"Encounter","id":"493e0dc0-b391-483f-becd-a998f154267d","meta":{"profile":["http://hl7.org/fhir/us/qicore/StructureDefinition/qicore-encounter"]},"status":"finished","class":{"system":"http://terminology.hl7.org/CodeSystem/v3-ActCode","code":"EMER","display":"emergency","userSelected":true},"type":[{"coding":[{"system":"http://snomed.info/sct","version":"2020-09","code":"4525004","display":"Emergency department patient visit (procedure)","userSelected":true}]}],"subject":{"reference":"Patient/ddee386b-8a0d-4bfb-a5c8-7235e1b17fa8"},"period":{"start":"2026-10-09T08:05:00.000+00:00","end":"2026-10-10T07:15:00.000+00:00"}},"request":{"method":"PUT","url":"Encounter/493e0dc0-b391-483f-becd-a998f154267d"}},{"fullUrl":"https://madie.cms.gov/Condition/0bef8f16-48ec-488c-9d93-397badce6a2f","resource":{"resourceType":"Condition","id":"0bef8f16-48ec-488c-9d93-397badce6a2f","meta":{"profile":["http://hl7.org/fhir/us/qicore/StructureDefinition/qicore-condition"]},"clinicalStatus":{"coding":[{"system":"http://terminology.hl7.org/CodeSystem/condition-clinical","code":"active","display":"active","userSelected":true}]},"category":[{"coding":[{"system":"http://terminology.hl7.org/CodeSystem/condition-category","code":"encounter-diagnosis","display":"Encounter Diagnosis","userSelected":true}]}],"code":{"coding":[{"system":"http://snomed.info/sct","version":"2020-09","code":"401303003","display":"Acute ST segment elevation myocardial infarction (disorder)","userSelected":true}]},"subject":{"reference":"Patient/ddee386b-8a0d-4bfb-a5c8-7235e1b17fa8"},"onsetDateTime":"2026-10-09T08:30:00.000+00:00"},"request":{"method":"PUT","url":"Condition/0bef8f16-48ec-488c-9d93-397badce6a2f"}},{"fullUrl":"https://madie.cms.gov/Procedure/a0a69341-6e7e-42d7-ad9e-ccc74cd8986a","resource":{"resourceType":"Procedure","id":"a0a69341-6e7e-42d7-ad9e-ccc74cd8986a","meta":{"profile":["http://hl7.org/fhir/us/qicore/StructureDefinition/qicore-procedure"]},"extension":[{"url":"http://hl7.org/fhir/us/qicore/StructureDefinition/qicore-recorded","valueDateTime":"2026-10-01T08:00:00.000+00:00"}],"status":"completed","category":{"coding":[{"system":"http://snomed.info/sct","code":"387713003","display":"Surgical procedure","userSelected":true}]},"code":{"coding":[{"system":"http://www.cms.gov/Medicare/Coding/ICD10","code":"02100J3","userSelected":true}]},"subject":{"reference":"Patient/ddee386b-8a0d-4bfb-a5c8-7235e1b17fa8"},"performedDateTime":"2026-10-01T08:00:00.000+00:00"},"request":{"method":"PUT","url":"Procedure/a0a69341-6e7e-42d7-ad9e-ccc74cd8986a"}},{"fullUrl":"https://madie.cms.gov/MeasureReport/73afcad5-0ec5-4e2d-9d1f-69e43234fb81","resource":{"resourceType":"MeasureReport","id":"73afcad5-0ec5-4e2d-9d1f-69e43234fb81","meta":{"profile":["http://hl7.org/fhir/us/cqfmeasures/StructureDefinition/test-case-cqfm"]},"contained":[{"resourceType":"Parameters","id":"e872b3a3-58f6-44f9-b1ce-712b960111c2-parameters","parameter":[{"name":"subject","valueString":"ddee386b-8a0d-4bfb-a5c8-7235e1b17fa8"}]}],"extension":[{"url":"http://hl7.org/fhir/us/cqfmeasures/StructureDefinition/cqfm-inputParameters","valueReference":{"reference":"#e872b3a3-58f6-44f9-b1ce-712b960111c2-parameters"}},{"url":"http://hl7.org/fhir/us/cqfmeasures/StructureDefinition/cqfm-testCaseDescription","valueMarkdown":"Patient has Major Surgical Procedure (exclusion Px) 8 days before ED visit and does not end - using relevantDatetime"}],"modifierExtension":[{"url":"http://hl7.org/fhir/us/cqfmeasures/StructureDefinition/cqfm-isTestCase","valueBoolean":true}],"status":"complete","type":"individual","measure":"https://madie.cms.gov/Measure/CMS996FHIRAptTxforSTEMI","period":{"start":"2026-01-01","end":"2026-12-31"},"group":[{"population":[{"code":{"coding":[{"system":"http://terminology.hl7.org/CodeSystem/measure-population","code":"initial-population","display":"Initial Population"}]},"count":1},{"code":{"coding":[{"system":"http://terminology.hl7.org/CodeSystem/measure-population","code":"denominator","display":"Denominator"}]},"count":1},{"code":{"coding":[{"system":"http://terminology.hl7.org/CodeSystem/measure-population","code":"denominator-exclusion","display":"Denominator Exclusion"}]},"count":1},{"code":{"coding":[{"system":"http://terminology.hl7.org/CodeSystem/measure-population","code":"numerator","display":"Numerator"}]},"count":0},{"code":{"coding":[{"system":"http://terminology.hl7.org/CodeSystem/measure-population","code":"denominator-exception","display":"Denominator Exception"}]},"count":0}]}]},"request":{"method":"PUT","url":"MeasureReport/73afcad5-0ec5-4e2d-9d1f-69e43234fb81"}}]}