{"resourceType":"Bundle","id":"tests-e3562b40-b797-480d-973d-33fdecf55673-bundle","type":"transaction","entry":[{"fullUrl":"https://madie.cms.gov/Patient/e3562b40-b797-480d-973d-33fdecf55673","resource":{"resourceType":"Patient","id":"e3562b40-b797-480d-973d-33fdecf55673","meta":{"profile":["http://hl7.org/fhir/us/qicore/StructureDefinition/qicore-patient"]},"extension":[{"url":"http://hl7.org/fhir/us/core/StructureDefinition/us-core-race","extension":[{"url":"ombCategory","valueCoding":{"system":"urn:oid:2.16.840.1.113883.6.238","code":"1002-5","display":"American Indian or Alaska Native","userSelected":true}},{"url":"text","valueString":"American Indian or Alaska Native"}]},{"url":"http://hl7.org/fhir/us/core/StructureDefinition/us-core-ethnicity","extension":[{"url":"ombCategory","valueCoding":{"system":"urn:oid:2.16.840.1.113883.6.238","code":"2135-2","display":"Hispanic or Latino","userSelected":true}},{"url":"text","valueString":"Hispanic or Latino"}]}],"identifier":[{"type":{"coding":[{"system":"http://terminology.hl7.org/CodeSystem/v2-0203","code":"MR"}]},"system":"https://bonnie-fhir.healthit.gov/","value":"ab6cd882-a781-4cc6-9719-2ecd1e8ae583"}],"name":[{"family":"DENEXCL11PASS","given":["HospiceDiagnosisOverlapEDStartNoEnd"]}],"gender":"female","birthDate":"1985-08-07"},"request":{"method":"PUT","url":"Patient/e3562b40-b797-480d-973d-33fdecf55673"}},{"fullUrl":"https://madie.cms.gov/Encounter/2be14176-66c2-4222-acb0-263e035c994d","resource":{"resourceType":"Encounter","id":"2be14176-66c2-4222-acb0-263e035c994d","meta":{"profile":["http://hl7.org/fhir/us/qicore/StructureDefinition/qicore-encounter"]},"status":"finished","class":{"system":"http://terminology.hl7.org/CodeSystem/v3-ActCode","code":"EMER","display":"emergency","userSelected":true},"type":[{"coding":[{"system":"http://snomed.info/sct","version":"2020-09","code":"4525004","display":"Emergency department patient visit","userSelected":true}]}],"subject":{"reference":"Patient/e3562b40-b797-480d-973d-33fdecf55673"},"period":{"start":"2026-10-09T05:00:00.000+00:00","end":"2026-10-13T17:00:00.000+00:00"},"reasonCode":[{"coding":[{"system":"http://hl7.org/fhir/sid/icd-10-cm","code":"I21.21","display":"ST elevation (STEMI) myocardial infarction involving left circumflex coronary artery","userSelected":true}]}]},"request":{"method":"PUT","url":"Encounter/2be14176-66c2-4222-acb0-263e035c994d"}},{"fullUrl":"https://madie.cms.gov/Condition/015c9bd7-27f3-4ab2-a0a9-d3fa7ba569a4","resource":{"resourceType":"Condition","id":"015c9bd7-27f3-4ab2-a0a9-d3fa7ba569a4","meta":{"profile":["http://hl7.org/fhir/us/qicore/StructureDefinition/qicore-condition"]},"clinicalStatus":{"coding":[{"system":"http://terminology.hl7.org/CodeSystem/condition-clinical","code":"active","display":"Active","userSelected":true}]},"category":[{"coding":[{"system":"http://terminology.hl7.org/CodeSystem/condition-category","code":"problem-list-item","display":"Problem List Item","userSelected":true}]}],"code":{"coding":[{"system":"http://snomed.info/sct","code":"170936009","display":"Shared care - hospice and general practitioner (finding)","userSelected":true}]},"subject":{"reference":"Patient/e3562b40-b797-480d-973d-33fdecf55673"},"onsetDateTime":"2026-08-03T12:00:00.000+00:00"},"request":{"method":"PUT","url":"Condition/015c9bd7-27f3-4ab2-a0a9-d3fa7ba569a4"}},{"fullUrl":"https://madie.cms.gov/MeasureReport/411e3b30-c9af-4e43-996c-96a7e2d97531","resource":{"resourceType":"MeasureReport","id":"411e3b30-c9af-4e43-996c-96a7e2d97531","meta":{"profile":["http://hl7.org/fhir/us/cqfmeasures/StructureDefinition/test-case-cqfm"]},"contained":[{"resourceType":"Parameters","id":"60367497-9035-4cf7-aa15-249d020e7bd8-parameters","parameter":[{"name":"subject","valueString":"e3562b40-b797-480d-973d-33fdecf55673"}]}],"extension":[{"url":"http://hl7.org/fhir/us/cqfmeasures/StructureDefinition/cqfm-inputParameters","valueReference":{"reference":"#60367497-9035-4cf7-aa15-249d020e7bd8-parameters"}},{"url":"http://hl7.org/fhir/us/cqfmeasures/StructureDefinition/cqfm-testCaseDescription","valueMarkdown":"Patients has hospice diagnosis that overlaps ED start (with no end date)"}],"modifierExtension":[{"url":"http://hl7.org/fhir/us/cqfmeasures/StructureDefinition/cqfm-isTestCase","valueBoolean":true}],"status":"complete","type":"individual","measure":"https://madie.cms.gov/Measure/CMS996FHIRAptTxforSTEMI","period":{"start":"2026-01-01","end":"2026-12-31"},"group":[{"population":[{"code":{"coding":[{"system":"http://terminology.hl7.org/CodeSystem/measure-population","code":"initial-population","display":"Initial Population"}]},"count":1},{"code":{"coding":[{"system":"http://terminology.hl7.org/CodeSystem/measure-population","code":"denominator","display":"Denominator"}]},"count":1},{"code":{"coding":[{"system":"http://terminology.hl7.org/CodeSystem/measure-population","code":"denominator-exclusion","display":"Denominator Exclusion"}]},"count":1},{"code":{"coding":[{"system":"http://terminology.hl7.org/CodeSystem/measure-population","code":"numerator","display":"Numerator"}]},"count":0},{"code":{"coding":[{"system":"http://terminology.hl7.org/CodeSystem/measure-population","code":"denominator-exception","display":"Denominator Exception"}]},"count":0}]}]},"request":{"method":"PUT","url":"MeasureReport/411e3b30-c9af-4e43-996c-96a7e2d97531"}}]}