{"resourceType":"Bundle","id":"tests-206ebb0e-c9b8-42b7-843e-ef1fe0d7ade9-bundle","type":"transaction","entry":[{"fullUrl":"https://madie.cms.gov/Patient/206ebb0e-c9b8-42b7-843e-ef1fe0d7ade9","resource":{"resourceType":"Patient","id":"206ebb0e-c9b8-42b7-843e-ef1fe0d7ade9","meta":{"profile":["http://hl7.org/fhir/us/qicore/StructureDefinition/qicore-patient"]},"extension":[{"url":"http://hl7.org/fhir/us/core/StructureDefinition/us-core-race","extension":[{"url":"ombCategory","valueCoding":{"system":"urn:oid:2.16.840.1.113883.6.238","code":"2028-9","display":"Asian","userSelected":true}},{"url":"text","valueString":"Asian"}]},{"url":"http://hl7.org/fhir/us/core/StructureDefinition/us-core-ethnicity","extension":[{"url":"ombCategory","valueCoding":{"system":"urn:oid:2.16.840.1.113883.6.238","code":"2186-5","display":"Not Hispanic or Latino","userSelected":true}},{"url":"text","valueString":"Not Hispanic or Latino"}]}],"identifier":[{"type":{"coding":[{"system":"http://terminology.hl7.org/CodeSystem/v2-0203","code":"MR"}]},"system":"https://bonnie-fhir.healthit.gov/","value":"617bf0461619a529957d62c1"}],"name":[{"family":"DenExcl7Pass","given":["DxStartsDuring90dayPeriodEndsDuringED"]}],"gender":"female","birthDate":"1985-12-02"},"request":{"method":"PUT","url":"Patient/206ebb0e-c9b8-42b7-843e-ef1fe0d7ade9"}},{"fullUrl":"https://madie.cms.gov/Encounter/43717d58-f3fb-43f1-bf69-95d6b0180405","resource":{"resourceType":"Encounter","id":"43717d58-f3fb-43f1-bf69-95d6b0180405","meta":{"profile":["http://hl7.org/fhir/us/qicore/StructureDefinition/qicore-encounter"]},"status":"finished","class":{"system":"http://terminology.hl7.org/CodeSystem/v3-ActCode","code":"EMER","display":"emergency","userSelected":true},"type":[{"coding":[{"system":"http://snomed.info/sct","version":"2020-09","code":"4525004","display":"Emergency department patient visit (procedure)","userSelected":true}]}],"subject":{"reference":"Patient/206ebb0e-c9b8-42b7-843e-ef1fe0d7ade9"},"period":{"start":"2026-10-09T08:05:00.000+00:00","end":"2026-10-10T07:15:00.000+00:00"}},"request":{"method":"PUT","url":"Encounter/43717d58-f3fb-43f1-bf69-95d6b0180405"}},{"fullUrl":"https://madie.cms.gov/Condition/154418d3-e8ad-4b2d-b1bc-988358172c5f","resource":{"resourceType":"Condition","id":"154418d3-e8ad-4b2d-b1bc-988358172c5f","meta":{"profile":["http://hl7.org/fhir/us/qicore/StructureDefinition/qicore-condition"]},"clinicalStatus":{"coding":[{"system":"http://terminology.hl7.org/CodeSystem/condition-clinical","code":"active","display":"active","userSelected":true}]},"category":[{"coding":[{"system":"http://terminology.hl7.org/CodeSystem/condition-category","code":"encounter-diagnosis","display":"Encounter Diagnosis","userSelected":true}]}],"code":{"coding":[{"system":"http://snomed.info/sct","version":"2020-09","code":"401303003","display":"Acute ST segment elevation myocardial infarction (disorder)","userSelected":true}]},"subject":{"reference":"Patient/206ebb0e-c9b8-42b7-843e-ef1fe0d7ade9"},"onsetDateTime":"2026-10-09T08:30:00.000+00:00"},"request":{"method":"PUT","url":"Condition/154418d3-e8ad-4b2d-b1bc-988358172c5f"}},{"fullUrl":"https://madie.cms.gov/Condition/3601429f-d241-4892-a661-43dad935bfc9","resource":{"resourceType":"Condition","id":"3601429f-d241-4892-a661-43dad935bfc9","meta":{"profile":["http://hl7.org/fhir/us/qicore/StructureDefinition/qicore-condition"]},"clinicalStatus":{"coding":[{"system":"http://terminology.hl7.org/CodeSystem/condition-clinical","version":"4.0.1","code":"inactive","display":"Inactive","userSelected":true}]},"category":[{"coding":[{"system":"http://terminology.hl7.org/CodeSystem/condition-category","code":"encounter-diagnosis","display":"Encounter Diagnosis","userSelected":true}]}],"code":{"coding":[{"system":"http://snomed.info/sct","version":"2023-03","code":"110030002","display":"Concussion injury of brain (disorder)","userSelected":true}]},"subject":{"reference":"Patient/206ebb0e-c9b8-42b7-843e-ef1fe0d7ade9"},"onsetDateTime":"2026-08-20T08:00:00.000+00:00","abatementDateTime":"2026-10-10T06:07:00.000+00:00"},"request":{"method":"PUT","url":"Condition/3601429f-d241-4892-a661-43dad935bfc9"}},{"fullUrl":"https://madie.cms.gov/MeasureReport/155d1e81-780f-484f-aba3-69d0b21cb37f","resource":{"resourceType":"MeasureReport","id":"155d1e81-780f-484f-aba3-69d0b21cb37f","meta":{"profile":["http://hl7.org/fhir/us/cqfmeasures/StructureDefinition/test-case-cqfm"]},"contained":[{"resourceType":"Parameters","id":"955647ef-8712-4cb5-af16-f60c967875d1-parameters","parameter":[{"name":"subject","valueString":"206ebb0e-c9b8-42b7-843e-ef1fe0d7ade9"}]}],"extension":[{"url":"http://hl7.org/fhir/us/cqfmeasures/StructureDefinition/cqfm-inputParameters","valueReference":{"reference":"#955647ef-8712-4cb5-af16-f60c967875d1-parameters"}},{"url":"http://hl7.org/fhir/us/cqfmeasures/StructureDefinition/cqfm-testCaseDescription","valueMarkdown":"Patient has closed head trauma (exclusion diagnosis) starts during 90 day period and ends during ED"}],"modifierExtension":[{"url":"http://hl7.org/fhir/us/cqfmeasures/StructureDefinition/cqfm-isTestCase","valueBoolean":true}],"status":"complete","type":"individual","measure":"https://madie.cms.gov/Measure/CMS996FHIRAptTxforSTEMI","period":{"start":"2026-01-01","end":"2026-12-31"},"group":[{"population":[{"code":{"coding":[{"system":"http://terminology.hl7.org/CodeSystem/measure-population","code":"initial-population","display":"Initial Population"}]},"count":1},{"code":{"coding":[{"system":"http://terminology.hl7.org/CodeSystem/measure-population","code":"denominator","display":"Denominator"}]},"count":1},{"code":{"coding":[{"system":"http://terminology.hl7.org/CodeSystem/measure-population","code":"denominator-exclusion","display":"Denominator Exclusion"}]},"count":1},{"code":{"coding":[{"system":"http://terminology.hl7.org/CodeSystem/measure-population","code":"numerator","display":"Numerator"}]},"count":0},{"code":{"coding":[{"system":"http://terminology.hl7.org/CodeSystem/measure-population","code":"denominator-exception","display":"Denominator Exception"}]},"count":0}]}]},"request":{"method":"PUT","url":"MeasureReport/155d1e81-780f-484f-aba3-69d0b21cb37f"}}]}