{"resourceType":"Bundle","id":"tests-31cd9edb-02a8-4208-956a-baac147ed8d8-bundle","type":"transaction","entry":[{"fullUrl":"https://madie.cms.gov/Patient/31cd9edb-02a8-4208-956a-baac147ed8d8","resource":{"resourceType":"Patient","id":"31cd9edb-02a8-4208-956a-baac147ed8d8","meta":{"profile":["http://hl7.org/fhir/us/qicore/StructureDefinition/qicore-patient"]},"extension":[{"url":"http://hl7.org/fhir/us/core/StructureDefinition/us-core-race","extension":[{"url":"ombCategory","valueCoding":{"system":"urn:oid:2.16.840.1.113883.6.238","code":"2028-9","display":"Asian","userSelected":true}},{"url":"text","valueString":"Asian"}]},{"url":"http://hl7.org/fhir/us/core/StructureDefinition/us-core-ethnicity","extension":[{"url":"ombCategory","valueCoding":{"system":"urn:oid:2.16.840.1.113883.6.238","code":"2186-5","display":"Non Hispanic or Latino","userSelected":true}},{"url":"text","valueString":"Non Hispanic or Latino"}]}],"identifier":[{"type":{"coding":[{"system":"http://terminology.hl7.org/CodeSystem/v2-0203","code":"MR"}]},"system":"https://bonnie-fhir.healthit.gov/","value":"c03cf21b-e574-46d5-9f10-419a90d57b3e"}],"name":[{"family":"DENEXCL11PASS","given":["HospiceFacilityDischargeDispositionOverlapsED"]}],"gender":"female","birthDate":"1995-01-10"},"request":{"method":"PUT","url":"Patient/31cd9edb-02a8-4208-956a-baac147ed8d8"}},{"fullUrl":"https://madie.cms.gov/Encounter/c3de8c28-ff62-4b7f-9274-c0bee61aef4e","resource":{"resourceType":"Encounter","id":"c3de8c28-ff62-4b7f-9274-c0bee61aef4e","meta":{"profile":["http://hl7.org/fhir/us/qicore/StructureDefinition/qicore-encounter"]},"status":"finished","class":{"system":"http://terminology.hl7.org/CodeSystem/v3-ActCode","code":"EMER","display":"emergency","userSelected":true},"type":[{"coding":[{"system":"http://snomed.info/sct","version":"2020-09","code":"4525004","display":"Emergency department patient visit","userSelected":true}]}],"subject":{"reference":"Patient/31cd9edb-02a8-4208-956a-baac147ed8d8"},"period":{"start":"2026-10-09T05:00:00.000+00:00","end":"2026-10-13T17:00:00.000+00:00"},"diagnosis":[{"condition":{"reference":"Condition/c4b4af38-9e35-4af8-8e48-84cbb16a6b92"}}]},"request":{"method":"PUT","url":"Encounter/c3de8c28-ff62-4b7f-9274-c0bee61aef4e"}},{"fullUrl":"https://madie.cms.gov/Encounter/a74b0ccb-c744-4e92-9079-488122b24434","resource":{"resourceType":"Encounter","id":"a74b0ccb-c744-4e92-9079-488122b24434","meta":{"profile":["http://hl7.org/fhir/us/qicore/StructureDefinition/qicore-encounter"]},"status":"finished","class":{"system":"http://terminology.hl7.org/CodeSystem/v3-ActCode","code":"EMER","display":"emergency","userSelected":true},"type":[{"coding":[{"system":"http://snomed.info/sct","code":"32485007","display":"Hospital admission (procedure)","userSelected":true}]}],"subject":{"reference":"Patient/31cd9edb-02a8-4208-956a-baac147ed8d8"},"period":{"start":"2026-10-08T05:00:00.000+00:00"},"hospitalization":{"dischargeDisposition":{"coding":[{"system":"http://snomed.info/sct","code":"428371000124100","display":"Discharge to healthcare facility for hospice care (procedure)","userSelected":true}]}}},"request":{"method":"PUT","url":"Encounter/a74b0ccb-c744-4e92-9079-488122b24434"}},{"fullUrl":"https://madie.cms.gov/Condition/c4b4af38-9e35-4af8-8e48-84cbb16a6b92","resource":{"resourceType":"Condition","id":"c4b4af38-9e35-4af8-8e48-84cbb16a6b92","meta":{"profile":["http://hl7.org/fhir/us/qicore/StructureDefinition/qicore-condition"]},"clinicalStatus":{"coding":[{"system":"http://terminology.hl7.org/CodeSystem/condition-clinical","code":"active","display":"Active","userSelected":true}]},"category":[{"coding":[{"system":"http://terminology.hl7.org/CodeSystem/condition-category","code":"encounter-diagnosis","display":"Encounter Diagnosis","userSelected":true}]}],"code":{"coding":[{"system":"http://hl7.org/fhir/sid/icd-10-cm","code":"I21.21","display":"ST elevation (STEMI) myocardial infarction involving left circumflex coronary artery","userSelected":true}]},"subject":{"reference":"Patient/31cd9edb-02a8-4208-956a-baac147ed8d8"},"encounter":{"reference":"Encounter/c3de8c28-ff62-4b7f-9274-c0bee61aef4e"},"onsetPeriod":{"start":"2026-10-09T05:00:00.000+00:00","end":"2026-10-09T17:00:00.000+00:00"}},"request":{"method":"PUT","url":"Condition/c4b4af38-9e35-4af8-8e48-84cbb16a6b92"}},{"fullUrl":"https://madie.cms.gov/MeasureReport/8ed80209-bbb6-407e-9ebf-c86822e318ea","resource":{"resourceType":"MeasureReport","id":"8ed80209-bbb6-407e-9ebf-c86822e318ea","meta":{"profile":["http://hl7.org/fhir/us/cqfmeasures/StructureDefinition/test-case-cqfm"]},"contained":[{"resourceType":"Parameters","id":"eb4048a8-10a1-47c5-8e3f-c1230036c56c-parameters","parameter":[{"name":"subject","valueString":"31cd9edb-02a8-4208-956a-baac147ed8d8"}]}],"extension":[{"url":"http://hl7.org/fhir/us/cqfmeasures/StructureDefinition/cqfm-inputParameters","valueReference":{"reference":"#eb4048a8-10a1-47c5-8e3f-c1230036c56c-parameters"}},{"url":"http://hl7.org/fhir/us/cqfmeasures/StructureDefinition/cqfm-testCaseDescription","valueMarkdown":"Patients has hospice discharge disposition (HCF) overlaps ED (missing IP end date)"}],"modifierExtension":[{"url":"http://hl7.org/fhir/us/cqfmeasures/StructureDefinition/cqfm-isTestCase","valueBoolean":true}],"status":"complete","type":"individual","measure":"https://madie.cms.gov/Measure/CMS996FHIRAptTxforSTEMI","period":{"start":"2026-01-01","end":"2026-12-31"},"group":[{"population":[{"code":{"coding":[{"system":"http://terminology.hl7.org/CodeSystem/measure-population","code":"initial-population","display":"Initial Population"}]},"count":1},{"code":{"coding":[{"system":"http://terminology.hl7.org/CodeSystem/measure-population","code":"denominator","display":"Denominator"}]},"count":1},{"code":{"coding":[{"system":"http://terminology.hl7.org/CodeSystem/measure-population","code":"denominator-exclusion","display":"Denominator Exclusion"}]},"count":1},{"code":{"coding":[{"system":"http://terminology.hl7.org/CodeSystem/measure-population","code":"numerator","display":"Numerator"}]},"count":0},{"code":{"coding":[{"system":"http://terminology.hl7.org/CodeSystem/measure-population","code":"denominator-exception","display":"Denominator Exception"}]},"count":0}]}]},"request":{"method":"PUT","url":"MeasureReport/8ed80209-bbb6-407e-9ebf-c86822e318ea"}}]}