{"resourceType":"Bundle","id":"tests-ccc7deaf-98b7-4dad-b190-8fee10f2cf77-bundle","type":"transaction","entry":[{"fullUrl":"https://madie.cms.gov/Patient/ccc7deaf-98b7-4dad-b190-8fee10f2cf77","resource":{"resourceType":"Patient","id":"ccc7deaf-98b7-4dad-b190-8fee10f2cf77","meta":{"profile":["http://hl7.org/fhir/us/qicore/StructureDefinition/qicore-patient"]},"extension":[{"url":"http://hl7.org/fhir/us/core/StructureDefinition/us-core-race","extension":[{"url":"ombCategory","valueCoding":{"system":"urn:oid:2.16.840.1.113883.6.238","code":"2028-9","display":"Asian","userSelected":true}},{"url":"text","valueString":"Asian"}]},{"url":"http://hl7.org/fhir/us/core/StructureDefinition/us-core-ethnicity","extension":[{"url":"ombCategory","valueCoding":{"system":"urn:oid:2.16.840.1.113883.6.238","code":"2186-5","display":"Non Hispanic or Latino","userSelected":true}},{"url":"text","valueString":"Non Hispanic or Latino"}]}],"identifier":[{"type":{"coding":[{"system":"http://terminology.hl7.org/CodeSystem/v2-0203","code":"MR"}]},"system":"https://bonnie-fhir.healthit.gov/","value":"80eadfe1-b791-49a0-a537-c5dfe0703210"}],"name":[{"family":"DENEXCEP2PASS","given":["MedicalReasonForNoPClDuringED"]}],"gender":"female","birthDate":"1981-09-05"},"request":{"method":"PUT","url":"Patient/ccc7deaf-98b7-4dad-b190-8fee10f2cf77"}},{"fullUrl":"https://madie.cms.gov/Encounter/2d21f80a-7450-462e-8a7e-b6a568362f8f","resource":{"resourceType":"Encounter","id":"2d21f80a-7450-462e-8a7e-b6a568362f8f","meta":{"profile":["http://hl7.org/fhir/us/qicore/StructureDefinition/qicore-encounter"]},"status":"finished","class":{"system":"http://terminology.hl7.org/CodeSystem/v3-ActCode","code":"EMER","display":"emergency","userSelected":true},"type":[{"coding":[{"system":"http://snomed.info/sct","version":"2020-09","code":"4525004","display":"Emergency department patient visit","userSelected":true}]}],"subject":{"reference":"Patient/ccc7deaf-98b7-4dad-b190-8fee10f2cf77"},"period":{"start":"2026-10-09T05:00:00.000+00:00","end":"2026-10-13T17:00:00.000+00:00"},"diagnosis":[{"condition":{"reference":"Condition/5a1a7dd5-e534-4e74-a52a-0757316841d8"}}]},"request":{"method":"PUT","url":"Encounter/2d21f80a-7450-462e-8a7e-b6a568362f8f"}},{"fullUrl":"https://madie.cms.gov/Condition/5a1a7dd5-e534-4e74-a52a-0757316841d8","resource":{"resourceType":"Condition","id":"5a1a7dd5-e534-4e74-a52a-0757316841d8","meta":{"profile":["http://hl7.org/fhir/us/qicore/StructureDefinition/qicore-condition"]},"clinicalStatus":{"coding":[{"system":"http://terminology.hl7.org/CodeSystem/condition-clinical","code":"active","display":"Active","userSelected":true}]},"category":[{"coding":[{"system":"http://terminology.hl7.org/CodeSystem/condition-category","code":"encounter-diagnosis","display":"Encounter Diagnosis","userSelected":true}]}],"code":{"coding":[{"system":"http://hl7.org/fhir/sid/icd-10-cm","code":"I21.21","display":"ST elevation (STEMI) myocardial infarction involving left circumflex coronary artery","userSelected":true}]},"subject":{"reference":"Patient/ccc7deaf-98b7-4dad-b190-8fee10f2cf77"},"encounter":{"reference":"Encounter/2d21f80a-7450-462e-8a7e-b6a568362f8f"},"onsetPeriod":{"start":"2026-10-09T05:00:00.000+00:00","end":"2026-10-09T17:00:00.000+00:00"}},"request":{"method":"PUT","url":"Condition/5a1a7dd5-e534-4e74-a52a-0757316841d8"}},{"fullUrl":"https://madie.cms.gov/Procedure/5e136e22-8e38-4438-b4d6-fdd9d45cc0c5","resource":{"resourceType":"Procedure","id":"5e136e22-8e38-4438-b4d6-fdd9d45cc0c5","meta":{"profile":["http://hl7.org/fhir/us/qicore/StructureDefinition/qicore-procedurenotdone"]},"extension":[{"url":"http://hl7.org/fhir/us/qicore/StructureDefinition/qicore-recorded","valueDateTime":"2026-10-11T17:30:00.000+00:00"}],"status":"not-done","statusReason":{"coding":[{"system":"http://snomed.info/sct","code":"183932001","display":"Procedure contraindicated (situation)","userSelected":true}]},"code":{"coding":[{"system":"http://www.cms.gov/Medicare/Coding/ICD10","code":"0270346","display":"Dilation of Coronary Artery, One Artery, Bifurcation, with Drug-eluting Intraluminal Device, Percutaneous Approach","userSelected":true}]},"subject":{"reference":"Patient/ccc7deaf-98b7-4dad-b190-8fee10f2cf77"},"_performedDateTime":{"extension":[{"url":"http://hl7.org/fhir/StructureDefinition/data-absent-reason","valueCode":"not-performed"}]}},"request":{"method":"PUT","url":"Procedure/5e136e22-8e38-4438-b4d6-fdd9d45cc0c5"}},{"fullUrl":"https://madie.cms.gov/MeasureReport/24e7ea3e-faed-4de7-8dfd-e07ab70a29c4","resource":{"resourceType":"MeasureReport","id":"24e7ea3e-faed-4de7-8dfd-e07ab70a29c4","meta":{"profile":["http://hl7.org/fhir/us/cqfmeasures/StructureDefinition/test-case-cqfm"]},"contained":[{"resourceType":"Parameters","id":"86ffc680-8605-49e8-9a6f-ad76180b059f-parameters","parameter":[{"name":"subject","valueString":"ccc7deaf-98b7-4dad-b190-8fee10f2cf77"}]}],"extension":[{"url":"http://hl7.org/fhir/us/cqfmeasures/StructureDefinition/cqfm-inputParameters","valueReference":{"reference":"#86ffc680-8605-49e8-9a6f-ad76180b059f-parameters"}},{"url":"http://hl7.org/fhir/us/cqfmeasures/StructureDefinition/cqfm-testCaseDescription","valueMarkdown":"Patient has valid medical reason for no PCI during ED\n"}],"modifierExtension":[{"url":"http://hl7.org/fhir/us/cqfmeasures/StructureDefinition/cqfm-isTestCase","valueBoolean":true}],"status":"complete","type":"individual","measure":"https://madie.cms.gov/Measure/CMS996FHIRAptTxforSTEMI","period":{"start":"2026-01-01","end":"2026-12-31"},"group":[{"population":[{"code":{"coding":[{"system":"http://terminology.hl7.org/CodeSystem/measure-population","code":"initial-population","display":"Initial Population"}]},"count":1},{"code":{"coding":[{"system":"http://terminology.hl7.org/CodeSystem/measure-population","code":"denominator","display":"Denominator"}]},"count":1},{"code":{"coding":[{"system":"http://terminology.hl7.org/CodeSystem/measure-population","code":"denominator-exclusion","display":"Denominator Exclusion"}]},"count":0},{"code":{"coding":[{"system":"http://terminology.hl7.org/CodeSystem/measure-population","code":"numerator","display":"Numerator"}]},"count":0},{"code":{"coding":[{"system":"http://terminology.hl7.org/CodeSystem/measure-population","code":"denominator-exception","display":"Denominator Exception"}]},"count":1}]}]},"request":{"method":"PUT","url":"MeasureReport/24e7ea3e-faed-4de7-8dfd-e07ab70a29c4"}}]}