{"resourceType":"Bundle","id":"tests-c4278d81-69da-4cd3-9ed1-7cd3ee0b09f0-bundle","type":"transaction","entry":[{"fullUrl":"https://madie.cms.gov/Patient/c4278d81-69da-4cd3-9ed1-7cd3ee0b09f0","resource":{"resourceType":"Patient","id":"c4278d81-69da-4cd3-9ed1-7cd3ee0b09f0","meta":{"profile":["http://hl7.org/fhir/us/qicore/StructureDefinition/qicore-patient"]},"extension":[{"url":"http://hl7.org/fhir/us/core/StructureDefinition/us-core-race","extension":[{"url":"ombCategory","valueCoding":{"system":"urn:oid:2.16.840.1.113883.6.238","code":"1002-5","display":"American Indian or Alaska Native"}},{"url":"text","valueString":"American Indian or Alaska Native"}]},{"url":"http://hl7.org/fhir/us/core/StructureDefinition/us-core-ethnicity","extension":[{"url":"ombCategory","valueCoding":{"system":"urn:oid:2.16.840.1.113883.6.238","code":"2135-2","display":"Hispanic or Latino"}},{"url":"text","valueString":"Hispanic or Latino"}]}],"identifier":[{"type":{"coding":[{"system":"http://terminology.hl7.org/CodeSystem/v2-0203","code":"MR"}]},"system":"https://bonnie-fhir.healthit.gov/","value":"62bc69333e113102f8cedca6"}],"name":[{"family":"DENEXPass","given":["Radiation6MonthsBeforeStagingEdge"]}],"gender":"female","birthDate":"1946-02-01"},"request":{"method":"PUT","url":"Patient/c4278d81-69da-4cd3-9ed1-7cd3ee0b09f0"}},{"fullUrl":"https://madie.cms.gov/Encounter/4613516131313164","resource":{"resourceType":"Encounter","id":"c6ede6b5-2cdc-4762-b64c-89d3805e2f3a","meta":{"profile":["http://hl7.org/fhir/us/qicore/StructureDefinition/qicore-encounter"]},"status":"finished","class":{"system":"http://terminology.hl7.org/CodeSystem/v3-ActCode","code":"AMB","display":"ambulatory"},"type":[{"coding":[{"system":"http://snomed.info/sct","version":"http://snomed.info/sct/731000124108/version/20240301","code":"185463005","display":"Visit out of hours (procedure)"}]}],"subject":{"reference":"Patient/c4278d81-69da-4cd3-9ed1-7cd3ee0b09f0"},"period":{"start":"2025-06-30T08:00:00.000+00:00","end":"2025-06-30T09:15:00.000+00:00"}},"request":{"method":"PUT","url":"Encounter/c6ede6b5-2cdc-4762-b64c-89d3805e2f3a"}},{"fullUrl":"https://madie.cms.gov/Procedure/794651641613131353","resource":{"resourceType":"Procedure","id":"26cebf6e-e601-4319-b154-b066479d243d","meta":{"profile":["http://hl7.org/fhir/us/qicore/StructureDefinition/qicore-procedure"]},"extension":[{"url":"http://hl7.org/fhir/us/qicore/StructureDefinition/qicore-recorded","valueDateTime":"2025-01-01T08:00:00.000+00:00"}],"status":"completed","code":{"coding":[{"system":"http://snomed.info/sct","version":"http://snomed.info/sct/731000124108/version/20240301","code":"169331000","display":"Combined radiotherapy (procedure)","userSelected":true}]},"subject":{"reference":"Patient/c4278d81-69da-4cd3-9ed1-7cd3ee0b09f0"},"performedPeriod":{"start":"2025-01-01T08:00:00.000+00:00","end":"2025-01-01T08:15:00.000+00:00"}},"request":{"method":"PUT","url":"Procedure/26cebf6e-e601-4319-b154-b066479d243d"}},{"fullUrl":"https://madie.cms.gov/Condition/46841321616513131","resource":{"resourceType":"Condition","id":"26896f64-807e-43a8-b75d-2aecd1502b89","meta":{"profile":["http://hl7.org/fhir/us/qicore/StructureDefinition/qicore-condition"]},"clinicalStatus":{"coding":[{"system":"http://terminology.hl7.org/CodeSystem/condition-clinical","code":"active","display":"Active"}]},"verificationStatus":{"coding":[{"system":"http://terminology.hl7.org/CodeSystem/condition-ver-status","code":"confirmed","display":"Confirmed"}]},"category":[{"coding":[{"system":"http://terminology.hl7.org/CodeSystem/condition-category","code":"problem-list-item","display":"Problem List Item"}]}],"code":{"coding":[{"system":"http://hl7.org/fhir/sid/icd-10-cm","version":"2024","code":"C67.3","display":"Malignant neoplasm of anterior wall of bladder"}]},"subject":{"reference":"Patient/c4278d81-69da-4cd3-9ed1-7cd3ee0b09f0"},"onsetDateTime":"2025-06-30T08:00:00.000+00:00"},"request":{"method":"PUT","url":"Condition/26896f64-807e-43a8-b75d-2aecd1502b89"}},{"fullUrl":"https://madie.cms.gov/Observation/547648976374646546464","resource":{"resourceType":"Observation","id":"818bfb5c-31c2-41a2-a4a4-7f5a4427848f","meta":{"profile":["http://hl7.org/fhir/us/qicore/StructureDefinition/qicore-observation"]},"partOf":[{"reference":"Procedure/794651641613131353"}],"status":"final","category":[{"coding":[{"system":"http://terminology.hl7.org/CodeSystem/observation-category","code":"procedure","display":"Procedure"}]}],"code":{"coding":[{"system":"http://loinc.org","version":"2.76","code":"21902-2","display":"Stage group.pathology Cancer"}]},"subject":{"reference":"Patient/c4278d81-69da-4cd3-9ed1-7cd3ee0b09f0"},"effectivePeriod":{"start":"2025-06-30T08:00:00.000+00:00","end":"2025-06-30T08:15:00.000+00:00"},"issued":"2025-06-30T08:15:00.000+00:00","valueCodeableConcept":{"coding":[{"system":"http://snomed.info/sct","version":"http://snomed.info/sct/731000124108/version/20240301","code":"1228883000","display":"American Joint Committee on Cancer cTa (qualifier value)"}]}},"request":{"method":"PUT","url":"Observation/818bfb5c-31c2-41a2-a4a4-7f5a4427848f"}},{"fullUrl":"https://madie.cms.gov/Practitioner/13143134531634","resource":{"resourceType":"Practitioner","id":"2c693efe-a8bd-4a3d-905f-f4ee7f429f28","meta":{"profile":["http://hl7.org/fhir/us/qicore/StructureDefinition/qicore-practitioner"]},"identifier":[{"use":"temp","system":"urn:oid:2.16.840.1.113883.4.336","value":"Practitioner-23"}],"active":true,"name":[{"family":"Careful","given":["Adam"],"prefix":["Dr"]}],"address":[{"use":"home","line":["534 Erewhon St"],"city":"PleasantVille","state":"UT","postalCode":"84414"}],"qualification":[{"identifier":[{"system":"http://example.org/UniversityIdentifier","value":"12345"}],"code":{"coding":[{"system":"http://terminology.hl7.org/CodeSystem/v2-0360|2.7","code":"BS","display":"Bachelor of Science"}],"text":"Bachelor of Science"},"period":{"start":"1995"},"issuer":{"display":"Example University"}}]},"request":{"method":"PUT","url":"Practitioner/2c693efe-a8bd-4a3d-905f-f4ee7f429f28"}},{"fullUrl":"https://madie.cms.gov/Procedure/497346252374641234154","resource":{"resourceType":"Procedure","id":"def5e34d-e5e5-4518-ba4d-142f7d6350e4","meta":{"profile":["http://hl7.org/fhir/us/qicore/StructureDefinition/qicore-procedure"]},"extension":[{"url":"http://hl7.org/fhir/us/qicore/StructureDefinition/qicore-recorded","valueDateTime":"2025-06-30T08:00:00.000+00:00"}],"status":"completed","code":{"coding":[{"system":"http://snomed.info/sct","version":"http://snomed.info/sct/731000124108/version/20240301","code":"254292007","display":"Tumor staging","userSelected":true}]},"subject":{"reference":"Patient/c4278d81-69da-4cd3-9ed1-7cd3ee0b09f0"},"performedPeriod":{"start":"2025-06-30T08:00:00.000+00:00","end":"2025-06-30T08:15:00.000+00:00"}},"request":{"method":"PUT","url":"Procedure/def5e34d-e5e5-4518-ba4d-142f7d6350e4"}},{"fullUrl":"https://madie.cms.gov/MeasureReport/7dd53a19-50d8-4bd2-a16d-78b3d0df5b20","resource":{"resourceType":"MeasureReport","id":"7dd53a19-50d8-4bd2-a16d-78b3d0df5b20","meta":{"profile":["http://hl7.org/fhir/us/cqfmeasures/StructureDefinition/test-case-cqfm"]},"contained":[{"resourceType":"Parameters","id":"4d8fcd8a-cde7-4f88-b73d-e64bd7abdf3b-parameters","parameter":[{"name":"subject","valueString":"c4278d81-69da-4cd3-9ed1-7cd3ee0b09f0"}]}],"extension":[{"url":"http://hl7.org/fhir/us/cqfmeasures/StructureDefinition/cqfm-inputParameters","valueReference":{"reference":"#4d8fcd8a-cde7-4f88-b73d-e64bd7abdf3b-parameters"}},{"url":"http://hl7.org/fhir/us/cqfmeasures/StructureDefinition/cqfm-testCaseDescription","valueMarkdown":"Patient with OV in MP. Bladder cancer diagnosis and cancer staging in MP.  Pt had radiation 6 months prior to bladder cancer staging and should be excluded. "}],"modifierExtension":[{"url":"http://hl7.org/fhir/us/cqfmeasures/StructureDefinition/cqfm-isTestCase","valueBoolean":true}],"status":"complete","type":"individual","measure":"https://madie.cms.gov/Measure/IntravesicalBacillusCalmetteGuerinForBladderCancerFHIR","period":{"start":"2025-01-01","end":"2025-12-31"},"group":[{"population":[{"code":{"coding":[{"system":"http://terminology.hl7.org/CodeSystem/measure-population","code":"initial-population","display":"Initial Population"}]},"count":1},{"code":{"coding":[{"system":"http://terminology.hl7.org/CodeSystem/measure-population","code":"denominator","display":"Denominator"}]},"count":1},{"code":{"coding":[{"system":"http://terminology.hl7.org/CodeSystem/measure-population","code":"denominator-exclusion","display":"Denominator Exclusion"}]},"count":1},{"code":{"coding":[{"system":"http://terminology.hl7.org/CodeSystem/measure-population","code":"numerator","display":"Numerator"}]},"count":0},{"code":{"coding":[{"system":"http://terminology.hl7.org/CodeSystem/measure-population","code":"denominator-exception","display":"Denominator Exception"}]},"count":0}]}]},"request":{"method":"PUT","url":"MeasureReport/7dd53a19-50d8-4bd2-a16d-78b3d0df5b20"}}]}