{"resourceType":"Bundle","id":"tests-132a7880-8f4a-4b0c-a7d6-3f5a8d6df0b3-bundle","type":"transaction","entry":[{"fullUrl":"https://madie.cms.gov/Patient/132a7880-8f4a-4b0c-a7d6-3f5a8d6df0b3","resource":{"resourceType":"Patient","id":"132a7880-8f4a-4b0c-a7d6-3f5a8d6df0b3","meta":{"profile":["http://hl7.org/fhir/us/qicore/StructureDefinition/qicore-patient"]},"extension":[{"url":"http://hl7.org/fhir/us/core/StructureDefinition/us-core-race","extension":[{"url":"ombCategory","valueCoding":{"system":"urn:oid:2.16.840.1.113883.6.238","code":"2076-8","display":"Native Hawaiian or Other Pacific Islander"}},{"url":"text","valueString":"Native Hawaiian or Other Pacific Islander"}]},{"url":"http://hl7.org/fhir/us/core/StructureDefinition/us-core-ethnicity","extension":[{"url":"ombCategory","valueCoding":{"system":"urn:oid:2.16.840.1.113883.6.238","code":"2186-5","display":"Not Hispanic or Latino"}},{"url":"text","valueString":"Not Hispanic or Latino"}]}],"identifier":[{"type":{"coding":[{"system":"http://terminology.hl7.org/CodeSystem/v2-0203","code":"MR"}]},"system":"https://bonnie-fhir.healthit.gov/","value":"7843135463165262"}],"name":[{"family":"DENEXPass","given":["MixedHistology2MonthsBeforeStaging"]}],"gender":"female","birthDate":"1946-11-03"},"request":{"method":"PUT","url":"Patient/132a7880-8f4a-4b0c-a7d6-3f5a8d6df0b3"}},{"fullUrl":"https://madie.cms.gov/Encounter/enc-6431313497641","resource":{"resourceType":"Encounter","id":"6431313497641","meta":{"profile":["http://hl7.org/fhir/us/qicore/StructureDefinition/qicore-encounter"]},"status":"finished","class":{"system":"http://terminology.hl7.org/CodeSystem/v3-ActCode","code":"AMB","display":"ambulatory"},"type":[{"coding":[{"system":"http://snomed.info/sct","version":"http://snomed.info/sct/731000124108/version/202303","code":"185463005","display":"Visit out of hours (procedure)"}]}],"subject":{"reference":"Patient/132a7880-8f4a-4b0c-a7d6-3f5a8d6df0b3"},"period":{"start":"2025-04-06T08:00:00.000+00:00","end":"2025-04-06T09:15:00.000+00:00"}},"request":{"method":"PUT","url":"Encounter/6431313497641"}},{"fullUrl":"https://madie.cms.gov/Condition/con-416135131310","resource":{"resourceType":"Condition","id":"416135131310","meta":{"profile":["http://hl7.org/fhir/us/qicore/StructureDefinition/qicore-condition"]},"clinicalStatus":{"coding":[{"system":"http://terminology.hl7.org/CodeSystem/condition-clinical","code":"active","display":"Active"}]},"verificationStatus":{"coding":[{"system":"http://terminology.hl7.org/CodeSystem/condition-ver-status","code":"confirmed","display":"Confirmed"}]},"category":[{"coding":[{"system":"http://terminology.hl7.org/CodeSystem/condition-category","code":"problem-list-item","display":"Problem List Item"}]}],"code":{"coding":[{"system":"http://hl7.org/fhir/sid/icd-10-cm","version":"2023","code":"C67.1","display":"Malignant neoplasm of dome of bladder"}]},"subject":{"reference":"Patient/132a7880-8f4a-4b0c-a7d6-3f5a8d6df0b3"},"onsetPeriod":{"start":"2025-04-06T08:00:00.000+00:00"}},"request":{"method":"PUT","url":"Condition/416135131310"}},{"fullUrl":"https://madie.cms.gov/Condition/con-2153211313","resource":{"resourceType":"Condition","id":"2153211313","meta":{"profile":["http://hl7.org/fhir/us/qicore/StructureDefinition/qicore-condition"]},"clinicalStatus":{"coding":[{"system":"http://terminology.hl7.org/CodeSystem/condition-clinical","code":"active","display":"Active"}]},"verificationStatus":{"coding":[{"system":"http://terminology.hl7.org/CodeSystem/condition-ver-status","code":"confirmed","display":"Confirmed"}]},"category":[{"coding":[{"system":"http://terminology.hl7.org/CodeSystem/condition-category","code":"problem-list-item","display":"Problem List Item"}]}],"code":{"coding":[{"system":"http://snomed.info/sct","version":"http://snomed.info/sct/731000124108/version/202303","code":"278046008","display":"Mixed histology urothelial cell carcinoma for Urology Care"}]},"subject":{"reference":"Patient/132a7880-8f4a-4b0c-a7d6-3f5a8d6df0b3"},"onsetPeriod":{"start":"2025-02-06T08:00:00.000+00:00"}},"request":{"method":"PUT","url":"Condition/2153211313"}},{"fullUrl":"https://madie.cms.gov/Procedure/proc-64131313541","resource":{"resourceType":"Procedure","id":"64131313541","meta":{"profile":["http://hl7.org/fhir/us/qicore/StructureDefinition/qicore-procedure"]},"extension":[{"url":"http://hl7.org/fhir/us/qicore/StructureDefinition/qicore-recorded","valueDateTime":"2025-04-06T08:00:00.000+00:00"}],"status":"completed","code":{"coding":[{"system":"http://snomed.info/sct","version":"http://snomed.info/sct/731000124108/version/202303","code":"254292007","display":"Tumor staging"}]},"subject":{"reference":"Patient/132a7880-8f4a-4b0c-a7d6-3f5a8d6df0b3"},"performedDateTime":"2025-04-06T08:00:00.000+00:00"},"request":{"method":"PUT","url":"Procedure/64131313541"}},{"fullUrl":"https://madie.cms.gov/Observation/obs-95452545","resource":{"resourceType":"Observation","id":"95452545","meta":{"profile":["http://hl7.org/fhir/us/qicore/StructureDefinition/qicore-observation"]},"partOf":[{"reference":"Procedure/proc-64131313541"}],"status":"final","category":[{"coding":[{"system":"http://terminology.hl7.org/CodeSystem/observation-category","code":"procedure","display":"Procedure"}]}],"code":{"coding":[{"system":"http://loinc.org","version":"2.73","code":"21902-2","display":"Stage group.pathology Cancer"}]},"subject":{"reference":"Patient/132a7880-8f4a-4b0c-a7d6-3f5a8d6df0b3"},"effectiveDateTime":"2025-04-06T08:00:00.000+00:00","issued":"2025-04-06T08:10:00.000+00:00","valueCodeableConcept":{"coding":[{"system":"http://snomed.info/sct","version":"http://snomed.info/sct/731000124108/version/202303","code":"369949005","display":"Ta: Noninvasive papillary carcinoma (urinary tract) (finding)"}]}},"request":{"method":"PUT","url":"Observation/95452545"}},{"fullUrl":"https://madie.cms.gov/MeasureReport/d72f6108-6cd0-493d-84b5-05a544b181c4","resource":{"resourceType":"MeasureReport","id":"d72f6108-6cd0-493d-84b5-05a544b181c4","meta":{"profile":["http://hl7.org/fhir/us/cqfmeasures/StructureDefinition/test-case-cqfm"]},"contained":[{"resourceType":"Parameters","id":"6d68f597-adf3-49e4-af00-873dc37f654c-parameters","parameter":[{"name":"subject","valueString":"132a7880-8f4a-4b0c-a7d6-3f5a8d6df0b3"}]}],"extension":[{"url":"http://hl7.org/fhir/us/cqfmeasures/StructureDefinition/cqfm-inputParameters","valueReference":{"reference":"#6d68f597-adf3-49e4-af00-873dc37f654c-parameters"}},{"url":"http://hl7.org/fhir/us/cqfmeasures/StructureDefinition/cqfm-testCaseDescription","valueMarkdown":"Patient with OV in MP. Bladder cancer diagnosis and cancer staging in MP.  Pt has Mixed histology 2 mo before staging and should be excluded."}],"modifierExtension":[{"url":"http://hl7.org/fhir/us/cqfmeasures/StructureDefinition/cqfm-isTestCase","valueBoolean":true}],"status":"complete","type":"individual","measure":"https://madie.cms.gov/Measure/IntravesicalBacillusCalmetteGuerinForBladderCancerFHIR","period":{"start":"2025-01-01","end":"2025-12-31"},"group":[{"population":[{"code":{"coding":[{"system":"http://terminology.hl7.org/CodeSystem/measure-population","code":"initial-population","display":"Initial Population"}]},"count":1},{"code":{"coding":[{"system":"http://terminology.hl7.org/CodeSystem/measure-population","code":"denominator","display":"Denominator"}]},"count":1},{"code":{"coding":[{"system":"http://terminology.hl7.org/CodeSystem/measure-population","code":"denominator-exclusion","display":"Denominator Exclusion"}]},"count":1},{"code":{"coding":[{"system":"http://terminology.hl7.org/CodeSystem/measure-population","code":"numerator","display":"Numerator"}]},"count":0},{"code":{"coding":[{"system":"http://terminology.hl7.org/CodeSystem/measure-population","code":"denominator-exception","display":"Denominator Exception"}]},"count":0}]}],"evaluatedResource":[{"reference":"Patient/132a7880-8f4a-4b0c-a7d6-3f5a8d6df0b3"},{"reference":"Encounter/enc-6431313497641"},{"reference":"Condition/con-416135131310"},{"reference":"Condition/con-2153211313"},{"reference":"Procedure/proc-64131313541"},{"reference":"Observation/obs-95452545"}]},"request":{"method":"PUT","url":"MeasureReport/d72f6108-6cd0-493d-84b5-05a544b181c4"}}]}