{
  "resourceType": "Bundle",
  "id": "tests-b487e8da-c244-4cb8-9575-48eab7d7c28d-bundle",
  "type": "transaction",
  "entry": [ {
    "fullUrl": "https://madie.cms.gov/Patient/b487e8da-c244-4cb8-9575-48eab7d7c28d",
    "resource": {
      "resourceType": "Patient",
      "id": "b487e8da-c244-4cb8-9575-48eab7d7c28d",
      "meta": {
        "profile": [ "http://hl7.org/fhir/us/qicore/StructureDefinition/qicore-patient" ]
      },
      "extension": [ {
        "url": "http://hl7.org/fhir/us/core/StructureDefinition/us-core-race",
        "extension": [ {
          "url": "ombCategory",
          "valueCoding": {
            "system": "urn:oid:2.16.840.1.113883.6.238",
            "code": "2106-3",
            "display": "White"
          }
        }, {
          "url": "text",
          "valueString": "White"
        } ]
      }, {
        "url": "http://hl7.org/fhir/us/core/StructureDefinition/us-core-ethnicity",
        "extension": [ {
          "url": "ombCategory",
          "valueCoding": {
            "system": "urn:oid:2.16.840.1.113883.6.238",
            "code": "2135-2",
            "display": "Hispanic or Latino"
          }
        }, {
          "url": "text",
          "valueString": "Hispanic or Latino"
        } ]
      } ],
      "identifier": [ {
        "type": {
          "coding": [ {
            "system": "http://terminology.hl7.org/CodeSystem/v2-0203",
            "code": "MR"
          } ]
        },
        "system": "https://bonnie-fhir.healthit.gov/",
        "value": "1241254783asdf13215321sd"
      } ],
      "name": [ {
        "family": "DENOMPass",
        "given": [ "OV1stDayOfYearEdge" ]
      } ],
      "gender": "female",
      "birthDate": "1943-03-15"
    },
    "request": {
      "method": "POST",
      "url": "Patient/b487e8da-c244-4cb8-9575-48eab7d7c28d"
    }
  }, {
    "fullUrl": "https://madie.cms.gov/Condition/con-16656311",
    "resource": {
      "resourceType": "Condition",
      "id": "16656311",
      "meta": {
        "profile": [ "http://hl7.org/fhir/us/qicore/StructureDefinition/qicore-condition" ]
      },
      "clinicalStatus": {
        "coding": [ {
          "system": "http://terminology.hl7.org/CodeSystem/condition-clinical",
          "code": "active",
          "display": "Active"
        } ]
      },
      "verificationStatus": {
        "coding": [ {
          "system": "http://terminology.hl7.org/CodeSystem/condition-ver-status",
          "code": "confirmed",
          "display": "Confirmed"
        } ]
      },
      "category": [ {
        "coding": [ {
          "system": "http://terminology.hl7.org/CodeSystem/condition-category",
          "code": "problem-list-item",
          "display": "Problem List Item"
        } ]
      } ],
      "code": {
        "coding": [ {
          "system": "http://hl7.org/fhir/sid/icd-10-cm",
          "version": "2023",
          "code": "C67.1",
          "display": "Malignant neoplasm of dome of bladder"
        } ]
      },
      "subject": {
        "reference": "Patient/b487e8da-c244-4cb8-9575-48eab7d7c28d"
      },
      "onsetPeriod": {
        "start": "2025-01-01T08:00:00.000+00:00"
      }
    },
    "request": {
      "method": "POST",
      "url": "Condition/con-16656311"
    }
  }, {
    "fullUrl": "https://madie.cms.gov/Encounter/enc-8132032421",
    "resource": {
      "resourceType": "Encounter",
      "id": "8132032421",
      "meta": {
        "profile": [ "http://hl7.org/fhir/us/qicore/StructureDefinition/qicore-encounter" ]
      },
      "status": "finished",
      "class": {
        "system": "http://terminology.hl7.org/CodeSystem/v3-ActCode",
        "code": "AMB",
        "display": "ambulatory"
      },
      "type": [ {
        "coding": [ {
          "system": "http://snomed.info/sct",
          "version": "http://snomed.info/sct/731000124108/version/202303",
          "code": "185463005",
          "display": "Visit out of hours (procedure)"
        } ]
      } ],
      "subject": {
        "reference": "Patient/b487e8da-c244-4cb8-9575-48eab7d7c28d"
      },
      "period": {
        "start": "2025-01-01T08:00:00.000+00:00",
        "end": "2025-01-01T08:15:00.000+00:00"
      }
    },
    "request": {
      "method": "POST",
      "url": "Encounter/enc-8132032421"
    }
  }, {
    "fullUrl": "https://madie.cms.gov/Procedure/proc-73035131030",
    "resource": {
      "resourceType": "Procedure",
      "id": "73035131030",
      "meta": {
        "profile": [ "http://hl7.org/fhir/us/qicore/StructureDefinition/qicore-procedure" ]
      },
      "extension": [ {
        "url": "http://hl7.org/fhir/us/qicore/StructureDefinition/qicore-recorded",
        "valueDateTime": "2025-04-06T08:00:00.000+00:00"
      } ],
      "status": "completed",
      "code": {
        "coding": [ {
          "system": "http://snomed.info/sct",
          "version": "http://snomed.info/sct/731000124108/version/202303",
          "code": "254292007",
          "display": "Tumor staging"
        } ]
      },
      "subject": {
        "reference": "Patient/b487e8da-c244-4cb8-9575-48eab7d7c28d"
      },
      "performedPeriod": {
        "start": "2025-01-01T08:00:00.000+00:00",
        "end": "2025-01-01T08:15:00.000+00:00"
      }
    },
    "request": {
      "method": "POST",
      "url": "Procedure/proc-73035131030"
    }
  }, {
    "fullUrl": "https://madie.cms.gov/Observation/obs-4135134163132032",
    "resource": {
      "resourceType": "Observation",
      "id": "4135134163132032",
      "meta": {
        "profile": [ "http://hl7.org/fhir/us/qicore/StructureDefinition/qicore-observation" ]
      },
      "partOf": [ {
        "reference": "Procedure/proc-73035131030"
      } ],
      "status": "final",
      "category": [ {
        "coding": [ {
          "system": "http://terminology.hl7.org/CodeSystem/observation-category",
          "code": "procedure",
          "display": "Procedure"
        } ]
      } ],
      "code": {
        "coding": [ {
          "system": "http://loinc.org",
          "version": "2.73",
          "code": "21902-2",
          "display": "Stage group.pathology Cancer"
        } ]
      },
      "subject": {
        "reference": "Patient/b487e8da-c244-4cb8-9575-48eab7d7c28d"
      },
      "effectivePeriod": {
        "start": "2025-01-01T08:00:00.000+00:00",
        "end": "2025-01-01T08:15:00.000+00:00"
      },
      "issued": "2025-01-01T08:10:00.000+00:00",
      "valueCodeableConcept": {
        "coding": [ {
          "system": "http://hl7.org/fhir/sid/icd-10-cm",
          "version": "http://snomed.info/sct/731000124108/version/202303",
          "code": "D09.0",
          "display": "Carcinoma in situ of bladder"
        } ]
      }
    },
    "request": {
      "method": "POST",
      "url": "Observation/obs-4135134163132032"
    }
  }, {
    "fullUrl": "https://madie.cms.gov/MeasureReport/62a3319c-e531-4df6-af34-6be4492fe0bc",
    "resource": {
      "resourceType": "MeasureReport",
      "id": "62a3319c-e531-4df6-af34-6be4492fe0bc",
      "meta": {
        "profile": [ "http://hl7.org/fhir/us/cqfmeasures/StructureDefinition/test-case-cqfm" ]
      },
      "contained": [ {
        "resourceType": "Parameters",
        "id": "fc78e430-1233-4548-99f8-ded441782e9a-parameters",
        "parameter": [ {
          "name": "subject",
          "valueString": "b487e8da-c244-4cb8-9575-48eab7d7c28d"
        } ]
      } ],
      "extension": [ {
        "url": "http://hl7.org/fhir/us/cqfmeasures/StructureDefinition/cqfm-inputParameters",
        "valueReference": {
          "reference": "#fc78e430-1233-4548-99f8-ded441782e9a-parameters"
        }
      }, {
        "url": "http://hl7.org/fhir/us/cqfmeasures/StructureDefinition/cqfm-testCaseDescription",
        "valueMarkdown": "Patient with bladder cancer and office visit on first day of MP.  Edge testing.  Tested elements of DENOM pass."
      } ],
      "modifierExtension": [ {
        "url": "http://hl7.org/fhir/us/cqfmeasures/StructureDefinition/cqfm-isTestCase",
        "valueBoolean": true
      } ],
      "status": "complete",
      "type": "individual",
      "measure": "https://madie.cms.gov/Measure/IntravesicalBacillusCalmetteGuerinForBladderCancerFHIR",
      "period": {
        "start": "2025-01-01",
        "end": "2025-12-31"
      },
      "group": [ {
        "population": [ {
          "code": {
            "coding": [ {
              "system": "http://terminology.hl7.org/CodeSystem/measure-population",
              "code": "initial-population",
              "display": "Initial Population"
            } ]
          },
          "count": 1
        }, {
          "code": {
            "coding": [ {
              "system": "http://terminology.hl7.org/CodeSystem/measure-population",
              "code": "denominator",
              "display": "Denominator"
            } ]
          },
          "count": 1
        }, {
          "code": {
            "coding": [ {
              "system": "http://terminology.hl7.org/CodeSystem/measure-population",
              "code": "denominator-exclusion",
              "display": "Denominator Exclusion"
            } ]
          },
          "count": 0
        }, {
          "code": {
            "coding": [ {
              "system": "http://terminology.hl7.org/CodeSystem/measure-population",
              "code": "numerator",
              "display": "Numerator"
            } ]
          },
          "count": 0
        }, {
          "code": {
            "coding": [ {
              "system": "http://terminology.hl7.org/CodeSystem/measure-population",
              "code": "denominator-exception",
              "display": "Denominator Exception"
            } ]
          },
          "count": 0
        } ]
      } ],
      "evaluatedResource": [ {
        "reference": "Patient/b487e8da-c244-4cb8-9575-48eab7d7c28d"
      }, {
        "reference": "Condition/con-16656311"
      }, {
        "reference": "Encounter/enc-8132032421"
      }, {
        "reference": "Procedure/proc-73035131030"
      }, {
        "reference": "Observation/obs-4135134163132032"
      } ]
    },
    "request": {
      "method": "POST",
      "url": "MeasureReport/62a3319c-e531-4df6-af34-6be4492fe0bc"
    }
  } ]
}
