{"resourceType":"Bundle","id":"tests-5762f5c0-fe63-42fc-84ea-afadee165895-bundle","type":"transaction","entry":[{"fullUrl":"https://madie.cms.gov/Patient/5762f5c0-fe63-42fc-84ea-afadee165895","resource":{"resourceType":"Patient","id":"5762f5c0-fe63-42fc-84ea-afadee165895","meta":{"profile":["http://hl7.org/fhir/us/qicore/StructureDefinition/qicore-patient"]},"extension":[{"url":"http://hl7.org/fhir/us/core/StructureDefinition/us-core-race","extension":[{"url":"ombCategory","valueCoding":{"system":"urn:oid:2.16.840.1.113883.6.238","code":"1002-5","display":"American Indian or Alaska Native"}},{"url":"text","valueString":"American Indian or Alaska Native"}]},{"url":"http://hl7.org/fhir/us/core/StructureDefinition/us-core-ethnicity","extension":[{"url":"ombCategory","valueCoding":{"system":"urn:oid:2.16.840.1.113883.6.238","code":"2135-2","display":"Hispanic or Latino"}},{"url":"text","valueString":"Hispanic or Latino"}]}],"identifier":[{"type":{"coding":[{"system":"http://terminology.hl7.org/CodeSystem/v2-0203","code":"MR"}]},"system":"https://bonnie-fhir.healthit.gov/","value":"41651646464313135131"}],"name":[{"family":"DENEXPass","given":["ChemoAgents6MonthsBeforeStagingEdge"]}],"gender":"unknown","birthDate":"1946-02-01"},"request":{"method":"PUT","url":"Patient/5762f5c0-fe63-42fc-84ea-afadee165895"}},{"fullUrl":"https://madie.cms.gov/Encounter/4614646464613131","resource":{"resourceType":"Encounter","id":"41b71f11-7dea-43e5-8b0c-971239154fa0","meta":{"profile":["http://hl7.org/fhir/us/qicore/StructureDefinition/qicore-encounter"]},"status":"finished","class":{"system":"http://terminology.hl7.org/CodeSystem/v3-ActCode","code":"AMB","display":"ambulatory"},"type":[{"coding":[{"system":"http://snomed.info/sct","version":"http://snomed.info/sct/731000124108/version/20240301","code":"185463005","display":"Visit out of hours (procedure)"}]}],"subject":{"reference":"Patient/5762f5c0-fe63-42fc-84ea-afadee165895"},"period":{"start":"2025-06-30T08:00:00.000+00:00","end":"2025-06-30T09:15:00.000+00:00"}},"request":{"method":"PUT","url":"Encounter/41b71f11-7dea-43e5-8b0c-971239154fa0"}},{"fullUrl":"https://madie.cms.gov/MedicationRequest/794651641613131353","resource":{"resourceType":"MedicationRequest","id":"9bfca6db-e033-4a61-b0f4-836dff685c62","meta":{"profile":["http://hl7.org/fhir/us/qicore/StructureDefinition/qicore-medicationrequest"]},"status":"active","intent":"order","medicationCodeableConcept":{"coding":[{"system":"http://www.nlm.nih.gov/research/umls/rxnorm","version":"04012024","code":"1001405","display":"docetaxel 20 MG/ML Injectable Solution"}]},"subject":{"reference":"Patient/5762f5c0-fe63-42fc-84ea-afadee165895"},"authoredOn":"2025-01-01T08:00:00.000+00:00","requester":{"reference":"Practitioner/5434332431321524"},"dosageInstruction":[{"timing":{"repeat":{"boundsPeriod":{"start":"2025-01-01T08:00:00.000+00:00","end":"2025-01-01T08:15:00.000+00:00"}}}}]},"request":{"method":"PUT","url":"MedicationRequest/9bfca6db-e033-4a61-b0f4-836dff685c62"}},{"fullUrl":"https://madie.cms.gov/Condition/3513545413213131","resource":{"resourceType":"Condition","id":"36295a72-69f4-4ca4-bfae-1b007ec37523","meta":{"profile":["http://hl7.org/fhir/us/qicore/StructureDefinition/qicore-condition"]},"clinicalStatus":{"coding":[{"system":"http://terminology.hl7.org/CodeSystem/condition-clinical","code":"active","display":"Active"}]},"verificationStatus":{"coding":[{"system":"http://terminology.hl7.org/CodeSystem/condition-ver-status","code":"confirmed","display":"Confirmed"}]},"category":[{"coding":[{"system":"http://terminology.hl7.org/CodeSystem/condition-category","code":"problem-list-item","display":"Problem List Item"}]}],"code":{"coding":[{"system":"http://hl7.org/fhir/sid/icd-10-cm","version":"2024","code":"C67.3","display":"Malignant neoplasm of anterior wall of bladder"}]},"subject":{"reference":"Patient/5762f5c0-fe63-42fc-84ea-afadee165895"},"onsetDateTime":"2025-06-30T08:00:00.000+00:00"},"request":{"method":"PUT","url":"Condition/36295a72-69f4-4ca4-bfae-1b007ec37523"}},{"fullUrl":"https://madie.cms.gov/Observation/646464646431313554345","resource":{"resourceType":"Observation","id":"693abfae-7590-48de-8745-49e06f1758d6","meta":{"profile":["http://hl7.org/fhir/us/qicore/StructureDefinition/qicore-observation"]},"partOf":[{"reference":"Procedure/635132123123131287454"}],"status":"final","category":[{"coding":[{"system":"http://terminology.hl7.org/CodeSystem/observation-category","code":"procedure","display":"Procedure"}]}],"code":{"coding":[{"system":"http://loinc.org","version":"2.76","code":"21902-2","display":"Stage group.pathology Cancer"}]},"subject":{"reference":"Patient/5762f5c0-fe63-42fc-84ea-afadee165895"},"effectivePeriod":{"start":"2025-06-30T08:00:00.000+00:00","end":"2025-06-30T08:15:00.000+00:00"},"issued":"2025-06-30T08:15:00.000+00:00","valueCodeableConcept":{"coding":[{"system":"http://snomed.info/sct","version":"http://snomed.info/sct/731000124108/version/20240301","code":"1228883000","display":"American Joint Committee on Cancer cTa (qualifier value)"}]}},"request":{"method":"PUT","url":"Observation/693abfae-7590-48de-8745-49e06f1758d6"}},{"fullUrl":"https://madie.cms.gov/Practitioner/5434332431321524","resource":{"resourceType":"Practitioner","id":"28f62356-ddff-4c49-9468-3769c25f3e53","meta":{"profile":["http://hl7.org/fhir/us/qicore/StructureDefinition/qicore-practitioner"]},"identifier":[{"use":"temp","system":"urn:oid:2.16.840.1.113883.4.336","value":"Practitioner-23"}],"active":true,"name":[{"family":"Careful","given":["Adam"],"prefix":["Dr"]}],"address":[{"use":"home","line":["534 Erewhon St"],"city":"PleasantVille","state":"UT","postalCode":"84414"}],"qualification":[{"identifier":[{"system":"http://example.org/UniversityIdentifier","value":"12345"}],"code":{"coding":[{"system":"http://terminology.hl7.org/CodeSystem/v2-0360|2.7","code":"BS","display":"Bachelor of Science"}],"text":"Bachelor of Science"},"period":{"start":"1995"},"issuer":{"display":"Example University"}}]},"request":{"method":"PUT","url":"Practitioner/28f62356-ddff-4c49-9468-3769c25f3e53"}},{"fullUrl":"https://madie.cms.gov/Procedure/635132123123131287454","resource":{"resourceType":"Procedure","id":"ee3e6b2f-af75-42ef-9b0b-a02eb53d0768","meta":{"profile":["http://hl7.org/fhir/us/qicore/StructureDefinition/qicore-procedure"]},"extension":[{"url":"http://hl7.org/fhir/us/qicore/StructureDefinition/qicore-recorded","valueDateTime":"2025-06-30T08:00:00.000+00:00"}],"status":"completed","code":{"coding":[{"system":"http://snomed.info/sct","version":"http://snomed.info/sct/731000124108/version/20240301","code":"254292007","display":"Tumor staging"}]},"subject":{"reference":"Patient/5762f5c0-fe63-42fc-84ea-afadee165895"},"performedPeriod":{"start":"2025-06-30T08:00:00.000+00:00","end":"2025-06-30T08:15:00.000+00:00"}},"request":{"method":"PUT","url":"Procedure/ee3e6b2f-af75-42ef-9b0b-a02eb53d0768"}},{"fullUrl":"https://madie.cms.gov/MeasureReport/06bb3867-8a66-4e65-a6b2-b680fb4ce94d","resource":{"resourceType":"MeasureReport","id":"06bb3867-8a66-4e65-a6b2-b680fb4ce94d","meta":{"profile":["http://hl7.org/fhir/us/cqfmeasures/StructureDefinition/test-case-cqfm"]},"contained":[{"resourceType":"Parameters","id":"a1d4e3ae-73bf-4b01-b1ed-46200f2c67c0-parameters","parameter":[{"name":"subject","valueString":"5762f5c0-fe63-42fc-84ea-afadee165895"}]}],"extension":[{"url":"http://hl7.org/fhir/us/cqfmeasures/StructureDefinition/cqfm-inputParameters","valueReference":{"reference":"#a1d4e3ae-73bf-4b01-b1ed-46200f2c67c0-parameters"}},{"url":"http://hl7.org/fhir/us/cqfmeasures/StructureDefinition/cqfm-testCaseDescription","valueMarkdown":"Patient with OV in MP. Bladder cancer diagnosis and cancer staging in MP.  Pt had chemotherapy agent 6 months prior to bladder cancer staging and should be excluded. Gender unknown."}],"modifierExtension":[{"url":"http://hl7.org/fhir/us/cqfmeasures/StructureDefinition/cqfm-isTestCase","valueBoolean":true}],"status":"complete","type":"individual","measure":"https://madie.cms.gov/Measure/IntravesicalBacillusCalmetteGuerinForBladderCancerFHIR","period":{"start":"2025-01-01","end":"2025-12-31"},"group":[{"population":[{"code":{"coding":[{"system":"http://terminology.hl7.org/CodeSystem/measure-population","code":"initial-population","display":"Initial Population"}]},"count":1},{"code":{"coding":[{"system":"http://terminology.hl7.org/CodeSystem/measure-population","code":"denominator","display":"Denominator"}]},"count":1},{"code":{"coding":[{"system":"http://terminology.hl7.org/CodeSystem/measure-population","code":"denominator-exclusion","display":"Denominator Exclusion"}]},"count":1},{"code":{"coding":[{"system":"http://terminology.hl7.org/CodeSystem/measure-population","code":"numerator","display":"Numerator"}]},"count":0},{"code":{"coding":[{"system":"http://terminology.hl7.org/CodeSystem/measure-population","code":"denominator-exception","display":"Denominator Exception"}]},"count":0}]}]},"request":{"method":"PUT","url":"MeasureReport/06bb3867-8a66-4e65-a6b2-b680fb4ce94d"}}]}