{"resourceType":"Bundle","id":"tests-a918259c-530d-4645-9339-e71db94323a8-bundle","type":"transaction","entry":[{"fullUrl":"https://madie.cms.gov/Patient/a918259c-530d-4645-9339-e71db94323a8","resource":{"resourceType":"Patient","id":"a918259c-530d-4645-9339-e71db94323a8","meta":{"profile":["http://hl7.org/fhir/us/qicore/StructureDefinition/qicore-patient"]},"extension":[{"url":"http://hl7.org/fhir/us/core/StructureDefinition/us-core-race","extension":[{"url":"ombCategory","valueCoding":{"system":"urn:oid:2.16.840.1.113883.6.238","code":"2076-8","display":"Native Hawaiian or Other Pacific Islander"}},{"url":"text","valueString":"Native Hawaiian or Other Pacific Islander"}]},{"url":"http://hl7.org/fhir/us/core/StructureDefinition/us-core-ethnicity","extension":[{"url":"ombCategory","valueCoding":{"system":"urn:oid:2.16.840.1.113883.6.238","code":"2186-5","display":"Not Hispanic or Latino"}},{"url":"text","valueString":"Not Hispanic or Latino"}]}],"identifier":[{"type":{"coding":[{"system":"http://terminology.hl7.org/CodeSystem/v2-0203","code":"MR"}]},"system":"https://bonnie-fhir.healthit.gov/","value":"60d4bda907206d58cd96b128"}],"name":[{"family":"NUMERFail","given":["InitialDxStaging2023"]}],"gender":"female","birthDate":"1950-12-25"},"request":{"method":"PUT","url":"Patient/a918259c-530d-4645-9339-e71db94323a8"}},{"fullUrl":"https://madie.cms.gov/Encounter/64646103516461","resource":{"resourceType":"Encounter","id":"2de6a4c5-4610-4c77-9bd4-822409ac0e2e","meta":{"profile":["http://hl7.org/fhir/us/qicore/StructureDefinition/qicore-encounter"]},"status":"finished","class":{"system":"http://terminology.hl7.org/CodeSystem/v3-ActCode","code":"AMB","display":"ambulatory"},"type":[{"coding":[{"system":"http://snomed.info/sct","version":"http://snomed.info/sct/731000124108/version/20240301","code":"185463005","display":"Visit out of hours (procedure)"}]}],"subject":{"reference":"Patient/a918259c-530d-4645-9339-e71db94323a8"},"period":{"start":"2025-04-12T08:00:00.000+00:00","end":"2025-04-12T09:15:00.000+00:00"}},"request":{"method":"PUT","url":"Encounter/2de6a4c5-4610-4c77-9bd4-822409ac0e2e"}},{"fullUrl":"https://madie.cms.gov/Condition/64646103516462","resource":{"resourceType":"Condition","id":"2adc59a9-0af2-4396-9d21-1fc3da99ed9d","meta":{"profile":["http://hl7.org/fhir/us/qicore/StructureDefinition/qicore-condition"]},"clinicalStatus":{"coding":[{"system":"http://terminology.hl7.org/CodeSystem/condition-clinical","code":"active","display":"Active"}]},"verificationStatus":{"coding":[{"system":"http://terminology.hl7.org/CodeSystem/condition-ver-status","code":"confirmed","display":"Confirmed"}]},"category":[{"coding":[{"system":"http://terminology.hl7.org/CodeSystem/condition-category","code":"problem-list-item","display":"Problem List Item"}]}],"code":{"coding":[{"system":"http://hl7.org/fhir/sid/icd-10-cm","version":"2024","code":"C67.1","display":"Malignant neoplasm of dome of bladder"}]},"subject":{"reference":"Patient/a918259c-530d-4645-9339-e71db94323a8"},"onsetPeriod":{"start":"2025-04-12T08:00:00.000+00:00"}},"request":{"method":"PUT","url":"Condition/2adc59a9-0af2-4396-9d21-1fc3da99ed9d"}},{"fullUrl":"https://madie.cms.gov/Procedure/64646103516463","resource":{"resourceType":"Procedure","id":"60491472-6fbe-437f-adf4-c3bf9cd8d20d","meta":{"profile":["http://hl7.org/fhir/us/qicore/StructureDefinition/qicore-procedure"]},"extension":[{"url":"http://hl7.org/fhir/us/qicore/StructureDefinition/qicore-recorded","valueDateTime":"2025-04-12T08:00:00.000+00:00"}],"status":"completed","code":{"coding":[{"system":"http://snomed.info/sct","version":"http://snomed.info/sct/731000124108/version/20240301","code":"254292007","display":"Tumor staging"}]},"subject":{"reference":"Patient/a918259c-530d-4645-9339-e71db94323a8"},"performedPeriod":{"start":"2025-04-12T08:00:00.000+00:00","end":"2025-04-12T08:15:00.000+00:00"}},"request":{"method":"PUT","url":"Procedure/60491472-6fbe-437f-adf4-c3bf9cd8d20d"}},{"fullUrl":"https://madie.cms.gov/Observation/64646103516464","resource":{"resourceType":"Observation","id":"83d6228a-140d-4f8e-951d-6658a8bbbd90","meta":{"profile":["http://hl7.org/fhir/us/qicore/StructureDefinition/qicore-observation"]},"partOf":[{"reference":"Procedure/64646103516463"}],"status":"final","category":[{"coding":[{"system":"http://terminology.hl7.org/CodeSystem/observation-category","code":"procedure","display":"Procedure"}]}],"code":{"coding":[{"system":"http://loinc.org","version":"2.76","code":"21902-2","display":"Stage group.pathology Cancer"}]},"subject":{"reference":"Patient/a918259c-530d-4645-9339-e71db94323a8"},"effectivePeriod":{"start":"2024-06-01T08:00:00.000+00:00","end":"2025-06-02T08:15:00.000+00:00"},"issued":"2025-06-02T08:15:00.000+00:00","valueCodeableConcept":{"coding":[{"system":"http://snomed.info/sct","version":"http://snomed.info/sct/731000124108/version/20240301","code":"1228883000","display":"American Joint Committee on Cancer cTa (qualifier value)"}]}},"request":{"method":"PUT","url":"Observation/83d6228a-140d-4f8e-951d-6658a8bbbd90"}},{"fullUrl":"https://madie.cms.gov/Observation/64646103516435","resource":{"resourceType":"Observation","id":"4a44c97b-62b1-4e8c-a9ef-b0d6937f4d13","meta":{"profile":["http://hl7.org/fhir/us/qicore/StructureDefinition/qicore-observation"]},"partOf":[{"reference":"Procedure/64646103516435"}],"status":"final","category":[{"coding":[{"system":"http://terminology.hl7.org/CodeSystem/observation-category","code":"procedure","display":"Procedure"}]}],"code":{"coding":[{"system":"http://loinc.org","version":"2.76","code":"21902-2","display":"Stage group.pathology Cancer"}]},"subject":{"reference":"Patient/a918259c-530d-4645-9339-e71db94323a8"},"effectivePeriod":{"start":"2024-12-01T08:00:00.000+00:00","end":"2024-12-02T08:15:00.000+00:00"},"issued":"2024-12-02T08:15:00.000+00:00","valueCodeableConcept":{"coding":[{"system":"http://snomed.info/sct","version":"http://snomed.info/sct/731000124108/version/20240301","code":"369949005","display":"Ta: Noninvasive papillary carcinoma (urinary tract) (finding)"}]}},"request":{"method":"PUT","url":"Observation/4a44c97b-62b1-4e8c-a9ef-b0d6937f4d13"}},{"fullUrl":"https://madie.cms.gov/MedicationAdministration/64646103516465","resource":{"resourceType":"MedicationAdministration","id":"17fa724e-80c3-49dc-9862-672e65006251","meta":{"profile":["http://hl7.org/fhir/us/qicore/StructureDefinition/qicore-medicationadministration"]},"status":"completed","medicationCodeableConcept":{"coding":[{"system":"http://www.nlm.nih.gov/research/umls/rxnorm","version":"04012024","code":"1653484","display":"BCG, live, Tice strain 50 MG/ML Topical Suspension"}]},"subject":{"reference":"Patient/a918259c-530d-4645-9339-e71db94323a8"},"effectivePeriod":{"start":"2025-04-02T08:00:00.000+00:00","end":"2025-04-02T08:15:00.000+00:00"}},"request":{"method":"PUT","url":"MedicationAdministration/17fa724e-80c3-49dc-9862-672e65006251"}},{"fullUrl":"https://madie.cms.gov/MeasureReport/76186498-4941-4a2c-9a82-8da36b601321","resource":{"resourceType":"MeasureReport","id":"76186498-4941-4a2c-9a82-8da36b601321","meta":{"profile":["http://hl7.org/fhir/us/cqfmeasures/StructureDefinition/test-case-cqfm"]},"contained":[{"resourceType":"Parameters","id":"27c04893-d3d7-4e18-946d-313452f4c32b-parameters","parameter":[{"name":"subject","valueString":"a918259c-530d-4645-9339-e71db94323a8"}]}],"extension":[{"url":"http://hl7.org/fhir/us/cqfmeasures/StructureDefinition/cqfm-inputParameters","valueReference":{"reference":"#27c04893-d3d7-4e18-946d-313452f4c32b-parameters"}},{"url":"http://hl7.org/fhir/us/cqfmeasures/StructureDefinition/cqfm-testCaseDescription","valueMarkdown":"Has Bladder Cancer and Cancer staging in June 2023; waited  6 months to return, staging procedure 12/05/2023;  active dx 4/10/2024; first BCG within 6 months and in the MP but not within 6 months of initial qualifying stagiing -  LCG question. Fails "}],"modifierExtension":[{"url":"http://hl7.org/fhir/us/cqfmeasures/StructureDefinition/cqfm-isTestCase","valueBoolean":true}],"status":"complete","type":"individual","measure":"https://madie.cms.gov/Measure/IntravesicalBacillusCalmetteGuerinForBladderCancerFHIR","period":{"start":"2025-01-01","end":"2025-12-31"},"group":[{"population":[{"code":{"coding":[{"system":"http://terminology.hl7.org/CodeSystem/measure-population","code":"initial-population","display":"Initial Population"}]},"count":1},{"code":{"coding":[{"system":"http://terminology.hl7.org/CodeSystem/measure-population","code":"denominator","display":"Denominator"}]},"count":1},{"code":{"coding":[{"system":"http://terminology.hl7.org/CodeSystem/measure-population","code":"denominator-exclusion","display":"Denominator Exclusion"}]},"count":0},{"code":{"coding":[{"system":"http://terminology.hl7.org/CodeSystem/measure-population","code":"numerator","display":"Numerator"}]},"count":0},{"code":{"coding":[{"system":"http://terminology.hl7.org/CodeSystem/measure-population","code":"denominator-exception","display":"Denominator Exception"}]},"count":0}]}]},"request":{"method":"PUT","url":"MeasureReport/76186498-4941-4a2c-9a82-8da36b601321"}}]}