{
  "resourceType": "Bundle",
  "id": "6359776b6aee9629c8298235",
  "type": "transaction",
  "entry": [ {
    "fullUrl": "https://madie.cms.gov/Patient/0f081f1b-4577-418b-9bc7-6b06fc23b513",
    "resource": {
      "resourceType": "Patient",
      "id": "0f081f1b-4577-418b-9bc7-6b06fc23b513",
      "meta": {
        "profile": [ "http://hl7.org/fhir/us/qicore/StructureDefinition/qicore-patient" ]
      },
      "text": {
        "status": "generated",
        "div": "<div xmlns=\"http://www.w3.org/1999/xhtml\"><div class=\"hapiHeaderText\">RISKHctRsltDtTimeEQDelStart <b>RISKFail </b></div><table class=\"hapiPropertyTable\"><tbody><tr><td>Date of birth</td><td><span>01 February 2004</span></td></tr></tbody></table></div>"
      },
      "extension": [ {
        "url": "http://hl7.org/fhir/us/core/StructureDefinition/us-core-race",
        "extension": [ {
          "url": "ombCategory",
          "valueCoding": {
            "system": "urn:oid:2.16.840.1.113883.6.238",
            "code": "1002-5",
            "display": "American Indian or Alaska Native",
            "userSelected": true
          }
        }, {
          "url": "text",
          "valueString": "American Indian or Alaska Native"
        } ]
      }, {
        "url": "http://hl7.org/fhir/us/core/StructureDefinition/us-core-ethnicity",
        "extension": [ {
          "url": "ombCategory",
          "valueCoding": {
            "system": "urn:oid:2.16.840.1.113883.6.238",
            "code": "2135-2",
            "display": "Hispanic or Latino",
            "userSelected": true
          }
        }, {
          "url": "text",
          "valueString": "Hispanic or Latino"
        } ]
      } ],
      "identifier": [ {
        "type": {
          "coding": [ {
            "system": "http://terminology.hl7.org/CodeSystem/v2-0203",
            "code": "MR"
          } ]
        },
        "system": "https://bonnie-fhir.healthit.gov/",
        "value": "6359776b6aee9629c8298235"
      } ],
      "active": true,
      "name": [ {
        "use": "usual",
        "family": "RiskFail",
        "given": [ "RISKHctRsltDtTimeEQDelStart" ]
      } ],
      "gender": "female",
      "birthDate": "2004-02-01"
    },
    "request": {
      "method": "PUT",
      "url": "Patient/0f081f1b-4577-418b-9bc7-6b06fc23b513"
    }
  }, {
    "fullUrl": "https://madie.cms.gov/Observation/5a4de9fe-ad61-4195-b3b0-9ea1ee6f834e",
    "resource": {
      "resourceType": "Observation",
      "id": "5a4de9fe-ad61-4195-b3b0-9ea1ee6f834e",
      "meta": {
        "profile": [ "http://hl7.org/fhir/us/qicore/StructureDefinition/qicore-observation" ]
      },
      "status": "final",
      "category": [ {
        "coding": [ {
          "system": "http://terminology.hl7.org/CodeSystem/observation-category",
          "code": "exam",
          "display": "exam",
          "userSelected": true
        } ]
      } ],
      "code": {
        "coding": [ {
          "system": "http://loinc.org",
          "code": "93857-1"
        } ]
      },
      "subject": {
        "reference": "Patient/0f081f1b-4577-418b-9bc7-6b06fc23b513"
      },
      "effectiveDateTime": "2025-02-01T08:00:00.000+00:00",
      "valueDateTime": "2025-02-01T08:00:00+00:00"
    },
    "request": {
      "method": "PUT",
      "url": "Observation/5a4de9fe-ad61-4195-b3b0-9ea1ee6f834e"
    }
  }, {
    "fullUrl": "https://madie.cms.gov/Observation/53a93dda-e3eb-4a6c-b121-8c517aee75e9",
    "resource": {
      "resourceType": "Observation",
      "id": "53a93dda-e3eb-4a6c-b121-8c517aee75e9",
      "meta": {
        "profile": [ "http://hl7.org/fhir/us/qicore/StructureDefinition/qicore-observation" ]
      },
      "status": "final",
      "category": [ {
        "coding": [ {
          "system": "http://terminology.hl7.org/CodeSystem/observation-category",
          "code": "exam",
          "display": "exam",
          "userSelected": true
        } ]
      } ],
      "code": {
        "coding": [ {
          "system": "http://loinc.org",
          "code": "11884-4"
        } ]
      },
      "subject": {
        "reference": "Patient/0f081f1b-4577-418b-9bc7-6b06fc23b513"
      },
      "effectiveDateTime": "2025-02-01T08:00:00.000+00:00",
      "valueQuantity": {
        "value": 21,
        "system": "http://unitsofmeasure.org",
        "code": "wk"
      }
    },
    "request": {
      "method": "PUT",
      "url": "Observation/53a93dda-e3eb-4a6c-b121-8c517aee75e9"
    }
  }, {
    "fullUrl": "https://madie.cms.gov/Encounter/1c035250-be48-46fa-a845-ee0ca9600853",
    "resource": {
      "resourceType": "Encounter",
      "id": "1c035250-be48-46fa-a845-ee0ca9600853",
      "meta": {
        "profile": [ "http://hl7.org/fhir/us/qicore/StructureDefinition/qicore-encounter" ]
      },
      "status": "finished",
      "class": {
        "system": "http://terminology.hl7.org/CodeSystem/v3-ActCode",
        "code": "IMP",
        "display": "inpatient encounter"
      },
      "type": [ {
        "coding": [ {
          "system": "http://snomed.info/sct",
          "code": "183452005"
        } ]
      } ],
      "subject": {
        "reference": "Patient/0f081f1b-4577-418b-9bc7-6b06fc23b513"
      },
      "period": {
        "start": "2025-02-01T08:00:00.000Z",
        "end": "2025-02-05T08:15:00.000Z"
      }
    },
    "request": {
      "method": "PUT",
      "url": "Encounter/1c035250-be48-46fa-a845-ee0ca9600853"
    }
  }, {
    "fullUrl": "https://madie.cms.gov/Encounter/5fc67cce-edb4-42ba-9122-3c78ae3812b3",
    "resource": {
      "resourceType": "Encounter",
      "id": "5fc67cce-edb4-42ba-9122-3c78ae3812b3",
      "meta": {
        "profile": [ "http://hl7.org/fhir/us/qicore/StructureDefinition/qicore-encounter" ]
      },
      "status": "finished",
      "class": {
        "system": "http://terminology.hl7.org/CodeSystem/v3-ActCode",
        "code": "EMER",
        "display": "emergency"
      },
      "type": [ {
        "coding": [ {
          "system": "http://snomed.info/sct",
          "code": "4525004"
        } ]
      } ],
      "subject": {
        "reference": "Patient/0f081f1b-4577-418b-9bc7-6b06fc23b513"
      },
      "period": {
        "start": "2025-02-01T07:00:00.000Z",
        "end": "2025-02-01T07:59:00.000Z"
      }
    },
    "request": {
      "method": "PUT",
      "url": "Encounter/5fc67cce-edb4-42ba-9122-3c78ae3812b3"
    }
  }, {
    "fullUrl": "https://madie.cms.gov/Procedure/acf1cc3f-a70c-4d27-a85b-f43e5d3b9d5b",
    "resource": {
      "resourceType": "Procedure",
      "id": "acf1cc3f-a70c-4d27-a85b-f43e5d3b9d5b",
      "meta": {
        "profile": [ "http://hl7.org/fhir/us/qicore/StructureDefinition/qicore-procedure" ]
      },
      "extension": [ {
        "url": "http://hl7.org/fhir/us/qicore/StructureDefinition/qicore-recorded",
        "valueDateTime": "2025-02-04T09:35:00-04:00"
      } ],
      "status": "completed",
      "code": {
        "coding": [ {
          "system": "http://snomed.info/sct",
          "code": "10745001"
        } ]
      },
      "subject": {
        "reference": "Patient/0f081f1b-4577-418b-9bc7-6b06fc23b513"
      },
      "performedPeriod": {
        "start": "2025-02-01T08:00:00.000Z",
        "end": "2025-02-05T08:15:00.000Z"
      }
    },
    "request": {
      "method": "PUT",
      "url": "Procedure/acf1cc3f-a70c-4d27-a85b-f43e5d3b9d5b"
    }
  }, {
    "fullUrl": "https://madie.cms.gov/Observation/7be88a1a-2b51-4834-8395-dd7f78ea1fd4",
    "resource": {
      "resourceType": "Observation",
      "id": "7be88a1a-2b51-4834-8395-dd7f78ea1fd4",
      "meta": {
        "profile": [ "http://hl7.org/fhir/us/core/StructureDefinition/us-core-observation-lab" ]
      },
      "status": "final",
      "category": [ {
        "coding": [ {
          "system": "http://terminology.hl7.org/CodeSystem/observation-category",
          "code": "laboratory",
          "display": "laboratory",
          "userSelected": true
        } ]
      } ],
      "code": {
        "coding": [ {
          "system": "http://loinc.org",
          "version": "2.73",
          "code": "20570-8",
          "display": "Hematocrit [Volume Fraction] in Blood",
          "userSelected": true
        } ]
      },
      "subject": {
        "reference": "Patient/0f081f1b-4577-418b-9bc7-6b06fc23b513"
      },
      "effectiveDateTime": "2025-02-01T08:00:00.000+00:00",
      "issued": "2025-02-01T08:00:00.000+00:00",
      "valueQuantity": {
        "value": 20,
        "unit": "%"
      }
    },
    "request": {
      "method": "PUT",
      "url": "Observation/7be88a1a-2b51-4834-8395-dd7f78ea1fd4"
    }
  }, {
    "fullUrl": "https://madie.cms.gov/MeasureReport/06efb5fb-5c52-4976-9d8c-3819728d9ce6",
    "resource": {
      "resourceType": "MeasureReport",
      "id": "06efb5fb-5c52-4976-9d8c-3819728d9ce6",
      "meta": {
        "profile": [ "http://hl7.org/fhir/us/cqfmeasures/StructureDefinition/test-case-cqfm" ]
      },
      "contained": [ {
        "resourceType": "Parameters",
        "id": "b1a4abf9-5ef4-4bfa-aba2-8d0690c83073-parameters",
        "parameter": [ {
          "name": "subject",
          "valueString": "0f081f1b-4577-418b-9bc7-6b06fc23b513"
        } ]
      } ],
      "extension": [ {
        "url": "http://hl7.org/fhir/us/cqfmeasures/StructureDefinition/cqfm-inputParameters",
        "valueReference": {
          "reference": "#b1a4abf9-5ef4-4bfa-aba2-8d0690c83073-parameters"
        }
      }, {
        "url": "http://hl7.org/fhir/us/cqfmeasures/StructureDefinition/cqfm-testCaseDescription",
        "valueMarkdown": "Patient with hematocrit result date/time = delivery date/time \n"
      } ],
      "modifierExtension": [ {
        "url": "http://hl7.org/fhir/us/cqfmeasures/StructureDefinition/cqfm-isTestCase",
        "valueBoolean": true
      } ],
      "status": "complete",
      "type": "individual",
      "measure": "https://madie.cms.gov/Measure/CMS1028FHIRPCSevereOBComps",
      "period": {
        "start": "2025-01-01",
        "end": "2025-12-31"
      },
      "group": [ {
        "population": [ {
          "code": {
            "coding": [ {
              "system": "http://terminology.hl7.org/CodeSystem/measure-population",
              "code": "initial-population",
              "display": "Initial Population"
            } ]
          },
          "count": 1
        }, {
          "code": {
            "coding": [ {
              "system": "http://terminology.hl7.org/CodeSystem/measure-population",
              "code": "denominator",
              "display": "Denominator"
            } ]
          },
          "count": 1
        }, {
          "code": {
            "coding": [ {
              "system": "http://terminology.hl7.org/CodeSystem/measure-population",
              "code": "numerator",
              "display": "Numerator"
            } ]
          },
          "count": 0
        }, {
          "code": {
            "coding": [ {
              "system": "http://terminology.hl7.org/CodeSystem/measure-population",
              "code": "numerator-exclusion",
              "display": "Numerator Exclusion"
            } ]
          },
          "count": 0
        } ]
      }, {
        "population": [ {
          "code": {
            "coding": [ {
              "system": "http://terminology.hl7.org/CodeSystem/measure-population",
              "code": "initial-population",
              "display": "Initial Population"
            } ]
          },
          "count": 1
        }, {
          "code": {
            "coding": [ {
              "system": "http://terminology.hl7.org/CodeSystem/measure-population",
              "code": "denominator",
              "display": "Denominator"
            } ]
          },
          "count": 1
        }, {
          "code": {
            "coding": [ {
              "system": "http://terminology.hl7.org/CodeSystem/measure-population",
              "code": "numerator",
              "display": "Numerator"
            } ]
          },
          "count": 0
        }, {
          "code": {
            "coding": [ {
              "system": "http://terminology.hl7.org/CodeSystem/measure-population",
              "code": "numerator-exclusion",
              "display": "Numerator Exclusion"
            } ]
          },
          "count": 0
        } ]
      } ],
      "evaluatedResource": [ {
        "reference": "Patient/0f081f1b-4577-418b-9bc7-6b06fc23b513"
      }, {
        "reference": "Observation/5a4de9fe-ad61-4195-b3b0-9ea1ee6f834e"
      }, {
        "reference": "Observation/53a93dda-e3eb-4a6c-b121-8c517aee75e9"
      }, {
        "reference": "Encounter/1c035250-be48-46fa-a845-ee0ca9600853"
      }, {
        "reference": "Encounter/5fc67cce-edb4-42ba-9122-3c78ae3812b3"
      }, {
        "reference": "Procedure/acf1cc3f-a70c-4d27-a85b-f43e5d3b9d5b"
      }, {
        "reference": "Observation/7be88a1a-2b51-4834-8395-dd7f78ea1fd4"
      } ]
    },
    "request": {
      "method": "PUT",
      "url": "MeasureReport/06efb5fb-5c52-4976-9d8c-3819728d9ce6"
    }
  } ]
}