{
  "resourceType": "Bundle",
  "id": "63487c2e0968f8012254016d",
  "type": "transaction",
  "entry": [ {
    "fullUrl": "https://madie.cms.gov/Patient/36c39312-74f4-4e86-9ef8-0c7e191000eb",
    "resource": {
      "resourceType": "Patient",
      "id": "36c39312-74f4-4e86-9ef8-0c7e191000eb",
      "meta": {
        "profile": [ "http://hl7.org/fhir/us/qicore/StructureDefinition/qicore-patient" ]
      },
      "text": {
        "status": "generated",
        "div": "<div xmlns=\"http://www.w3.org/1999/xhtml\"><div class=\"hapiHeaderText\">AssessG1RelDateTime42wks1MinB4TimeOfDeliv <b>DENFAIL </b></div><table class=\"hapiPropertyTable\"><tbody><tr><td>Identifier</td><td>0f2eb4e282584341b7686ff02bcd96001425e71741a668fc2710a83bd8038817</td></tr><tr><td>Date of birth</td><td><span>14 February 1985</span></td></tr></tbody></table></div>"
      },
      "extension": [ {
        "url": "http://hl7.org/fhir/us/core/StructureDefinition/us-core-race",
        "extension": [ {
          "url": "ombCategory",
          "valueCoding": {
            "system": "urn:oid:2.16.840.1.113883.6.238",
            "code": "1002-5",
            "display": "American Indian or Alaska Native",
            "userSelected": true
          }
        }, {
          "url": "text",
          "valueString": "American Indian or Alaska Native"
        } ]
      }, {
        "url": "http://hl7.org/fhir/us/core/StructureDefinition/us-core-ethnicity",
        "extension": [ {
          "url": "ombCategory",
          "valueCoding": {
            "system": "urn:oid:2.16.840.1.113883.6.238",
            "code": "2135-2",
            "display": "Hispanic or Latino",
            "userSelected": true
          }
        }, {
          "url": "text",
          "valueString": "Hispanic or Latino"
        } ]
      } ],
      "identifier": [ {
        "type": {
          "coding": [ {
            "system": "http://terminology.hl7.org/CodeSystem/v2-0203",
            "code": "MR"
          } ]
        },
        "system": "https://bonnie-fhir.healthit.gov/",
        "value": "63487c2e0968f8012254016d"
      } ],
      "active": true,
      "name": [ {
        "use": "usual",
        "family": "DENFail",
        "given": [ "AssessG1RelDateTime42wks1MinB4TimeOfDeliv" ]
      } ],
      "gender": "female",
      "birthDate": "1998-02-14"
    },
    "request": {
      "method": "PUT",
      "url": "Patient/36c39312-74f4-4e86-9ef8-0c7e191000eb"
    }
  }, {
    "fullUrl": "https://madie.cms.gov/Observation/e8756441-23d3-40b3-b7b7-5f2ccd1eed8f",
    "resource": {
      "resourceType": "Observation",
      "id": "e8756441-23d3-40b3-b7b7-5f2ccd1eed8f",
      "meta": {
        "profile": [ "http://hl7.org/fhir/us/qicore/StructureDefinition/qicore-observation" ]
      },
      "status": "final",
      "category": [ {
        "coding": [ {
          "system": "http://terminology.hl7.org/CodeSystem/observation-category",
          "code": "exam",
          "display": "exam",
          "userSelected": true
        } ]
      } ],
      "code": {
        "coding": [ {
          "system": "http://loinc.org",
          "code": "11996-6"
        } ]
      },
      "subject": {
        "reference": "Patient/36c39312-74f4-4e86-9ef8-0c7e191000eb"
      },
      "effectiveDateTime": "2026-06-25T18:59:00.000+00:00",
      "valueInteger": 1
    },
    "request": {
      "method": "PUT",
      "url": "Observation/e8756441-23d3-40b3-b7b7-5f2ccd1eed8f"
    }
  }, {
    "fullUrl": "https://madie.cms.gov/Observation/8f89fc8e-4b76-41e0-94c0-33373ecd8dea",
    "resource": {
      "resourceType": "Observation",
      "id": "8f89fc8e-4b76-41e0-94c0-33373ecd8dea",
      "meta": {
        "profile": [ "http://hl7.org/fhir/us/qicore/StructureDefinition/qicore-observation" ]
      },
      "status": "final",
      "category": [ {
        "coding": [ {
          "system": "http://terminology.hl7.org/CodeSystem/observation-category",
          "code": "exam",
          "display": "exam",
          "userSelected": true
        } ]
      } ],
      "code": {
        "coding": [ {
          "system": "http://loinc.org",
          "code": "11884-4"
        } ]
      },
      "subject": {
        "reference": "Patient/36c39312-74f4-4e86-9ef8-0c7e191000eb"
      },
      "effectiveDateTime": "2026-06-08T09:15:00.000+00:00",
      "valueQuantity": {
        "value": 38,
        "system": "http://unitsofmeasure.org",
        "code": "wk"
      }
    },
    "request": {
      "method": "PUT",
      "url": "Observation/8f89fc8e-4b76-41e0-94c0-33373ecd8dea"
    }
  }, {
    "fullUrl": "https://madie.cms.gov/Observation/0b511656-3bf3-495d-b76f-38ce5a443efa",
    "resource": {
      "resourceType": "Observation",
      "id": "0b511656-3bf3-495d-b76f-38ce5a443efa",
      "meta": {
        "profile": [ "http://hl7.org/fhir/us/qicore/StructureDefinition/qicore-observation" ]
      },
      "status": "final",
      "category": [ {
        "coding": [ {
          "system": "http://terminology.hl7.org/CodeSystem/observation-category",
          "code": "exam",
          "display": "exam",
          "userSelected": true
        } ]
      } ],
      "code": {
        "coding": [ {
          "system": "http://loinc.org",
          "code": "93857-1"
        } ]
      },
      "subject": {
        "reference": "Patient/36c39312-74f4-4e86-9ef8-0c7e191000eb"
      },
      "effectiveDateTime": "2026-06-08T19:00:00.000+00:00",
      "valueDateTime": "2026-06-08T19:00:00+00:00"
    },
    "request": {
      "method": "PUT",
      "url": "Observation/0b511656-3bf3-495d-b76f-38ce5a443efa"
    }
  }, {
    "fullUrl": "https://madie.cms.gov/Encounter/4de3eb26-b412-4a7c-bbe2-f07f783a13e6",
    "resource": {
      "resourceType": "Encounter",
      "id": "4de3eb26-b412-4a7c-bbe2-f07f783a13e6",
      "meta": {
        "profile": [ "http://hl7.org/fhir/us/qicore/StructureDefinition/qicore-encounter" ]
      },
      "status": "finished",
      "class": {
        "system": "http://terminology.hl7.org/CodeSystem/v3-ActCode",
        "code": "IMP",
        "display": "inpatient encounter"
      },
      "type": [ {
        "coding": [ {
          "system": "http://snomed.info/sct",
          "code": "183452005"
        } ]
      } ],
      "subject": {
        "reference": "Patient/36c39312-74f4-4e86-9ef8-0c7e191000eb"
      },
      "period": {
        "start": "2026-06-08T08:00:00.000Z",
        "end": "2026-06-10T08:15:00.000Z"
      },
      "length": {
        "value": 2,
        "unit": "days"
      },
      "diagnosis": [ {
        "condition": {
          "reference": "Condition/b7d6b7d9-f65e-4f8a-885a-0716189315f3"
        },
        "use": {
          "coding": [ {
            "system": "http://snomed.info/sct",
            "code": "169826009",
            "display": "Delivery of Singleton"
          } ]
        }
      } ]
    },
    "request": {
      "method": "PUT",
      "url": "Encounter/4de3eb26-b412-4a7c-bbe2-f07f783a13e6"
    }
  }, {
    "fullUrl": "https://madie.cms.gov/Procedure/5555e648-5239-43cf-ad59-6807e5f3c9a0",
    "resource": {
      "resourceType": "Procedure",
      "id": "5555e648-5239-43cf-ad59-6807e5f3c9a0",
      "meta": {
        "profile": [ "http://hl7.org/fhir/us/qicore/StructureDefinition/qicore-procedure" ]
      },
      "extension": [ {
        "url": "http://hl7.org/fhir/us/qicore/StructureDefinition/qicore-recorded",
        "valueDateTime": "2014-04-05T09:35:00-04:00"
      } ],
      "status": "completed",
      "code": {
        "coding": [ {
          "system": "http://www.cms.gov/Medicare/Coding/ICD10",
          "code": "10D07Z3"
        }, {
          "system": "http://www.icd10data.com/icd10pcs",
          "code": "10D07Z3",
          "userSelected": true
        } ]
      },
      "subject": {
        "reference": "Patient/36c39312-74f4-4e86-9ef8-0c7e191000eb"
      },
      "performedPeriod": {
        "start": "2026-06-08T08:10:00.000Z",
        "end": "2026-06-08T09:14:00.000Z"
      }
    },
    "request": {
      "method": "PUT",
      "url": "Procedure/5555e648-5239-43cf-ad59-6807e5f3c9a0"
    }
  }, {
    "fullUrl": "https://madie.cms.gov/Coverage/08b1159b-90ee-4a2c-90a6-e9be01f5a9d2",
    "resource": {
      "resourceType": "Coverage",
      "id": "08b1159b-90ee-4a2c-90a6-e9be01f5a9d2",
      "meta": {
        "profile": [ "http://hl7.org/fhir/us/qicore/StructureDefinition/qicore-coverage" ]
      },
      "status": "active",
      "beneficiary": {
        "reference": "Patient/36c39312-74f4-4e86-9ef8-0c7e191000eb"
      },
      "payor": [ {
        "reference": "Organization/387ea915-1a50-4f16-96ad-def06b6f6ec4"
      } ]
    },
    "request": {
      "method": "PUT",
      "url": "Coverage/08b1159b-90ee-4a2c-90a6-e9be01f5a9d2"
    }
  }, {
    "fullUrl": "https://madie.cms.gov/Organization/387ea915-1a50-4f16-96ad-def06b6f6ec4",
    "resource": {
      "resourceType": "Organization",
      "id": "387ea915-1a50-4f16-96ad-def06b6f6ec4",
      "meta": {
        "profile": [ "http://hl7.org/fhir/us/qicore/StructureDefinition/qicore-organization" ]
      },
      "identifier": [ {
        "use": "temp",
        "system": "urn:oid:2.16.840.1.113883.4.4",
        "value": "21-3259825"
      } ],
      "active": true,
      "type": [ {
        "coding": [ {
          "system": "http://terminology.hl7.org/CodeSystem/organization-type",
          "code": "pay",
          "display": "Payer"
        } ]
      } ],
      "name": "Blue Cross Blue Shield of Texas",
      "telecom": [ {
        "system": "phone",
        "value": "(+1) 972-766-6900"
      } ],
      "address": [ {
        "use": "billing",
        "type": "postal",
        "line": [ "P.O. Box 660044" ],
        "city": "Dallas",
        "state": "TX",
        "postalCode": "75266-0044",
        "country": "USA"
      } ]
    },
    "request": {
      "method": "PUT",
      "url": "Organization/387ea915-1a50-4f16-96ad-def06b6f6ec4"
    }
  }, {
    "fullUrl": "https://madie.cms.gov/Condition/b7d6b7d9-f65e-4f8a-885a-0716189315f3",
    "resource": {
      "resourceType": "Condition",
      "id": "b7d6b7d9-f65e-4f8a-885a-0716189315f3",
      "meta": {
        "profile": [ "http://hl7.org/fhir/us/qicore/StructureDefinition/qicore-condition" ]
      },
      "category": [ {
        "coding": [ {
          "system": "http://terminology.hl7.org/CodeSystem/condition-category",
          "code": "encounter-diagnosis",
          "display": "Encounter Diagnosis"
        } ]
      } ],
      "code": {
        "coding": [ {
          "system": "http://snomed.info/sct",
          "code": "169826009",
          "display": "Single live birth (finding)"
        } ]
      },
      "subject": {
        "reference": "Patient/36c39312-74f4-4e86-9ef8-0c7e191000eb"
      }
    },
    "request": {
      "method": "PUT",
      "url": "Condition/b7d6b7d9-f65e-4f8a-885a-0716189315f3"
    }
  }, {
    "fullUrl": "https://madie.cms.gov/Practitioner/f6d2739d-bd81-4790-a979-144ac3968b8a",
    "resource": {
      "resourceType": "Practitioner",
      "id": "f6d2739d-bd81-4790-a979-144ac3968b8a",
      "identifier": [ {
        "system": "http://hl7.org/fhir/sid/us-npi",
        "value": "123456"
      } ],
      "name": [ {
        "family": "Evil",
        "prefix": [ "Dr" ]
      } ]
    },
    "request": {
      "method": "PUT",
      "url": "Practitioner/f6d2739d-bd81-4790-a979-144ac3968b8a"
    }
  }, {
    "fullUrl": "https://madie.cms.gov/MeasureReport/693b4847-17fb-49a8-8137-826bef516033",
    "resource": {
      "resourceType": "MeasureReport",
      "id": "693b4847-17fb-49a8-8137-826bef516033",
      "meta": {
        "profile": [ "http://hl7.org/fhir/us/cqfmeasures/StructureDefinition/test-case-cqfm" ]
      },
      "contained": [ {
        "resourceType": "Parameters",
        "id": "08954191-f033-4e98-a951-fc7206be0222-parameters",
        "parameter": [ {
          "name": "subject",
          "valueString": "36c39312-74f4-4e86-9ef8-0c7e191000eb"
        } ]
      } ],
      "extension": [ {
        "url": "http://hl7.org/fhir/us/cqfmeasures/StructureDefinition/cqfm-inputParameters",
        "valueReference": {
          "reference": "#08954191-f033-4e98-a951-fc7206be0222-parameters"
        }
      }, {
        "url": "http://hl7.org/fhir/us/cqfmeasures/StructureDefinition/cqfm-testCaseDescription",
        "valueMarkdown": "Tests that Assess Gravida Rel  Date/Time is no more than 42 weeks before the Time of Delivery  Date/Time.  This case is 42 weeks and 1 min.\n"
      } ],
      "modifierExtension": [ {
        "url": "http://hl7.org/fhir/us/cqfmeasures/StructureDefinition/cqfm-isTestCase",
        "valueBoolean": true
      } ],
      "status": "complete",
      "type": "individual",
      "measure": "https://madie.cms.gov/Measure/CMS334FHIRPCCesareanBirth",
      "period": {
        "start": "2026-01-01",
        "end": "2026-12-31"
      },
      "group": [ {
        "population": [ {
          "code": {
            "coding": [ {
              "system": "http://terminology.hl7.org/CodeSystem/measure-population",
              "code": "initial-population",
              "display": "Initial Population"
            } ]
          },
          "count": 1
        }, {
          "code": {
            "coding": [ {
              "system": "http://terminology.hl7.org/CodeSystem/measure-population",
              "code": "denominator",
              "display": "Denominator"
            } ]
          },
          "count": 0
        }, {
          "code": {
            "coding": [ {
              "system": "http://terminology.hl7.org/CodeSystem/measure-population",
              "code": "denominator-exclusion",
              "display": "Denominator Exclusion"
            } ]
          },
          "count": 0
        }, {
          "code": {
            "coding": [ {
              "system": "http://terminology.hl7.org/CodeSystem/measure-population",
              "code": "numerator",
              "display": "Numerator"
            } ]
          },
          "count": 0
        } ]
      } ],
      "evaluatedResource": [ {
        "reference": "Patient/36c39312-74f4-4e86-9ef8-0c7e191000eb"
      }, {
        "reference": "Observation/e8756441-23d3-40b3-b7b7-5f2ccd1eed8f"
      }, {
        "reference": "Observation/8f89fc8e-4b76-41e0-94c0-33373ecd8dea"
      }, {
        "reference": "Observation/0b511656-3bf3-495d-b76f-38ce5a443efa"
      }, {
        "reference": "Encounter/4de3eb26-b412-4a7c-bbe2-f07f783a13e6"
      }, {
        "reference": "Procedure/5555e648-5239-43cf-ad59-6807e5f3c9a0"
      }, {
        "reference": "Coverage/08b1159b-90ee-4a2c-90a6-e9be01f5a9d2"
      }, {
        "reference": "Organization/387ea915-1a50-4f16-96ad-def06b6f6ec4"
      }, {
        "reference": "Condition/b7d6b7d9-f65e-4f8a-885a-0716189315f3"
      }, {
        "reference": "Practitioner/f6d2739d-bd81-4790-a979-144ac3968b8a"
      } ]
    },
    "request": {
      "method": "PUT",
      "url": "MeasureReport/693b4847-17fb-49a8-8137-826bef516033"
    }
  } ]
}