{
  "resourceType": "Bundle",
  "id": "633c9d030968f8012250fc77",
  "type": "transaction",
  "entry": [ {
    "fullUrl": "https://madie.cms.gov/Patient/4543f40b-6f71-47e7-8930-0340eede9145",
    "resource": {
      "resourceType": "Patient",
      "id": "4543f40b-6f71-47e7-8930-0340eede9145",
      "meta": {
        "profile": [ "http://hl7.org/fhir/us/qicore/StructureDefinition/qicore-patient" ]
      },
      "text": {
        "status": "generated",
        "div": "<div xmlns=\"http://www.w3.org/1999/xhtml\"><div class=\"hapiHeaderText\">EncEndsAfterMP <b>IPPFAIL </b></div><table class=\"hapiPropertyTable\"><tbody><tr><td>Identifier</td><td>a2be86eca3f69327b6dde627c8efe697</td></tr><tr><td>Date of birth</td><td><span>01 December 1960</span></td></tr></tbody></table></div>"
      },
      "extension": [ {
        "url": "http://hl7.org/fhir/us/core/StructureDefinition/us-core-race",
        "extension": [ {
          "url": "ombCategory",
          "valueCoding": {
            "system": "urn:oid:2.16.840.1.113883.6.238",
            "code": "1002-5",
            "display": "American Indian or Alaska Native",
            "userSelected": true
          }
        }, {
          "url": "text",
          "valueString": "American Indian or Alaska Native"
        } ]
      }, {
        "url": "http://hl7.org/fhir/us/core/StructureDefinition/us-core-ethnicity",
        "extension": [ {
          "url": "ombCategory",
          "valueCoding": {
            "system": "urn:oid:2.16.840.1.113883.6.238",
            "code": "2135-2",
            "display": "Hispanic or Latino",
            "userSelected": true
          }
        }, {
          "url": "text",
          "valueString": "Hispanic or Latino"
        } ]
      } ],
      "identifier": [ {
        "type": {
          "coding": [ {
            "system": "http://terminology.hl7.org/CodeSystem/v2-0203",
            "code": "MR"
          } ]
        },
        "system": "https://bonnie-fhir.healthit.gov/",
        "value": "633c9d030968f8012250fc77"
      } ],
      "active": true,
      "name": [ {
        "use": "usual",
        "family": "IPPFail ",
        "given": [ "EncEndsAfterMP " ]
      } ],
      "gender": "male",
      "birthDate": "1961-12-01"
    },
    "request": {
      "method": "PUT",
      "url": "Patient/4543f40b-6f71-47e7-8930-0340eede9145"
    }
  }, {
    "fullUrl": "https://madie.cms.gov/Encounter/a4a37215-5a70-4adf-acc2-4e84afb4bbfd",
    "resource": {
      "resourceType": "Encounter",
      "id": "a4a37215-5a70-4adf-acc2-4e84afb4bbfd",
      "meta": {
        "profile": [ "http://hl7.org/fhir/us/qicore/StructureDefinition/qicore-encounter" ]
      },
      "status": "finished",
      "class": {
        "system": "http://terminology.hl7.org/CodeSystem/v3-ActCode",
        "code": "IMP",
        "display": "inpatient encounter"
      },
      "type": [ {
        "coding": [ {
          "system": "http://snomed.info/sct",
          "code": "32485007"
        } ]
      } ],
      "subject": {
        "reference": "Patient/4543f40b-6f71-47e7-8930-0340eede9145"
      },
      "period": {
        "start": "2026-12-01T08:00:00.000Z",
        "end": "2027-01-01T00:01:00.000Z"
      },
      "length": {
        "value": 31,
        "unit": "days"
      },
      "diagnosis": [ {
        "condition": {
          "reference": "Condition/980dee49-3d02-4cc3-a42d-7ab2813a5991"
        },
        "rank": 1
      } ]
    },
    "request": {
      "method": "PUT",
      "url": "Encounter/a4a37215-5a70-4adf-acc2-4e84afb4bbfd"
    }
  }, {
    "fullUrl": "https://madie.cms.gov/Coverage/f23f16a6-cb43-4202-b051-ad669e8318d9",
    "resource": {
      "resourceType": "Coverage",
      "id": "f23f16a6-cb43-4202-b051-ad669e8318d9",
      "status": "active",
      "beneficiary": {
        "reference": "Patient/4543f40b-6f71-47e7-8930-0340eede9145"
      },
      "period": {
        "start": "1961-12-01T08:00:00.000Z"
      },
      "payor": [ {
        "reference": "Organization/3b10d36a-f9ca-4e58-acf5-b01592358b3b"
      } ]
    },
    "request": {
      "method": "PUT",
      "url": "Coverage/f23f16a6-cb43-4202-b051-ad669e8318d9"
    }
  }, {
    "fullUrl": "https://madie.cms.gov/Condition/980dee49-3d02-4cc3-a42d-7ab2813a5991",
    "resource": {
      "resourceType": "Condition",
      "id": "980dee49-3d02-4cc3-a42d-7ab2813a5991",
      "meta": {
        "profile": [ "http://hl7.org/fhir/us/qicore/StructureDefinition/qicore-condition" ]
      },
      "clinicalStatus": {
        "coding": [ {
          "system": "http://terminology.hl7.org/CodeSystem/condition-clinical",
          "code": "active"
        } ]
      },
      "verificationStatus": {
        "coding": [ {
          "system": "http://terminology.hl7.org/CodeSystem/condition-ver-status",
          "code": "confirmed"
        } ]
      },
      "category": [ {
        "coding": [ {
          "system": "http://terminology.hl7.org/CodeSystem/condition-category",
          "code": "encounter-diagnosis",
          "display": "Encounter Diagnosis"
        } ]
      } ],
      "code": {
        "coding": [ {
          "system": "http://snomed.info/sct",
          "version": "2021-09",
          "code": "111297002",
          "display": "Nonparalytic stroke (disorder)",
          "userSelected": true
        } ]
      },
      "subject": {
        "reference": "Patient/4543f40b-6f71-47e7-8930-0340eede9145"
      },
      "recordedDate": "2026-10-13T08:00:00.000+00:00"
    },
    "request": {
      "method": "PUT",
      "url": "Condition/980dee49-3d02-4cc3-a42d-7ab2813a5991"
    }
  }, {
    "fullUrl": "https://madie.cms.gov/Organization/3b10d36a-f9ca-4e58-acf5-b01592358b3b",
    "resource": {
      "resourceType": "Organization",
      "id": "3b10d36a-f9ca-4e58-acf5-b01592358b3b",
      "meta": {
        "profile": [ "http://hl7.org/fhir/us/qicore/StructureDefinition/qicore-organization" ]
      },
      "identifier": [ {
        "use": "temp",
        "system": "urn:oid:2.16.840.1.113883.4.4",
        "value": "21-3259825"
      } ],
      "active": true,
      "type": [ {
        "coding": [ {
          "system": "http://terminology.hl7.org/CodeSystem/organization-type",
          "code": "pay",
          "display": "Payer"
        } ]
      } ],
      "name": "Blue Cross Blue Shield of Texas",
      "telecom": [ {
        "system": "phone",
        "value": "(+1) 972-766-6900"
      } ],
      "address": [ {
        "use": "billing",
        "type": "postal",
        "line": [ "P.O. Box 660044" ],
        "city": "Dallas",
        "state": "TX",
        "postalCode": "75266-0044",
        "country": "USA"
      } ]
    },
    "request": {
      "method": "PUT",
      "url": "Organization/3b10d36a-f9ca-4e58-acf5-b01592358b3b"
    }
  }, {
    "fullUrl": "https://madie.cms.gov/Practitioner/4d5a5bc0-57ca-4a61-a7b9-8b69c7b3ea13",
    "resource": {
      "resourceType": "Practitioner",
      "id": "4d5a5bc0-57ca-4a61-a7b9-8b69c7b3ea13",
      "identifier": [ {
        "system": "http://hl7.org/fhir/sid/us-npi",
        "value": "123456"
      } ],
      "name": [ {
        "family": "Evil",
        "prefix": [ "Dr" ]
      } ]
    },
    "request": {
      "method": "PUT",
      "url": "Practitioner/4d5a5bc0-57ca-4a61-a7b9-8b69c7b3ea13"
    }
  }, {
    "fullUrl": "https://madie.cms.gov/MeasureReport/490e0bc7-6799-42d9-a786-c443700e77e3",
    "resource": {
      "resourceType": "MeasureReport",
      "id": "490e0bc7-6799-42d9-a786-c443700e77e3",
      "meta": {
        "profile": [ "http://hl7.org/fhir/us/cqfmeasures/StructureDefinition/test-case-cqfm" ]
      },
      "contained": [ {
        "resourceType": "Parameters",
        "id": "522790ce-1ea2-4090-ad23-f286e4b95e2d-parameters",
        "parameter": [ {
          "name": "subject",
          "valueString": "4543f40b-6f71-47e7-8930-0340eede9145"
        } ]
      } ],
      "extension": [ {
        "url": "http://hl7.org/fhir/us/cqfmeasures/StructureDefinition/cqfm-inputParameters",
        "valueReference": {
          "reference": "#522790ce-1ea2-4090-ad23-f286e4b95e2d-parameters"
        }
      }, {
        "url": "http://hl7.org/fhir/us/cqfmeasures/StructureDefinition/cqfm-testCaseDescription",
        "valueMarkdown": "Principal diagnosis = ischemic stroke, age GE 18, encounter ends after MP\n"
      } ],
      "modifierExtension": [ {
        "url": "http://hl7.org/fhir/us/cqfmeasures/StructureDefinition/cqfm-isTestCase",
        "valueBoolean": true
      } ],
      "status": "complete",
      "type": "individual",
      "measure": "https://madie.cms.gov/Measure/CMS71FHIRSTKAnticoagAFFlutter",
      "period": {
        "start": "2026-01-01",
        "end": "2026-12-31"
      },
      "group": [ {
        "population": [ {
          "code": {
            "coding": [ {
              "system": "http://terminology.hl7.org/CodeSystem/measure-population",
              "code": "initial-population",
              "display": "Initial Population"
            } ]
          },
          "count": 0
        }, {
          "code": {
            "coding": [ {
              "system": "http://terminology.hl7.org/CodeSystem/measure-population",
              "code": "denominator",
              "display": "Denominator"
            } ]
          },
          "count": 0
        }, {
          "code": {
            "coding": [ {
              "system": "http://terminology.hl7.org/CodeSystem/measure-population",
              "code": "denominator-exclusion",
              "display": "Denominator Exclusion"
            } ]
          },
          "count": 0
        }, {
          "code": {
            "coding": [ {
              "system": "http://terminology.hl7.org/CodeSystem/measure-population",
              "code": "numerator",
              "display": "Numerator"
            } ]
          },
          "count": 0
        }, {
          "code": {
            "coding": [ {
              "system": "http://terminology.hl7.org/CodeSystem/measure-population",
              "code": "denominator-exception",
              "display": "Denominator Exception"
            } ]
          },
          "count": 0
        } ]
      } ],
      "evaluatedResource": [ {
        "reference": "Patient/4543f40b-6f71-47e7-8930-0340eede9145"
      }, {
        "reference": "Encounter/a4a37215-5a70-4adf-acc2-4e84afb4bbfd"
      }, {
        "reference": "Coverage/f23f16a6-cb43-4202-b051-ad669e8318d9"
      }, {
        "reference": "Condition/980dee49-3d02-4cc3-a42d-7ab2813a5991"
      }, {
        "reference": "Organization/3b10d36a-f9ca-4e58-acf5-b01592358b3b"
      }, {
        "reference": "Practitioner/4d5a5bc0-57ca-4a61-a7b9-8b69c7b3ea13"
      } ]
    },
    "request": {
      "method": "PUT",
      "url": "MeasureReport/490e0bc7-6799-42d9-a786-c443700e77e3"
    }
  } ]
}