{"resourceType":"Bundle","id":"tests-95e62e34-9b8a-4076-9d09-5eb5e35fdc6a-bundle","type":"transaction","entry":[{"fullUrl":"https://madie.cms.gov/Patient/95e62e34-9b8a-4076-9d09-5eb5e35fdc6a","resource":{"resourceType":"Patient","id":"95e62e34-9b8a-4076-9d09-5eb5e35fdc6a","meta":{"profile":["http://hl7.org/fhir/us/qicore/StructureDefinition/qicore-patient"]},"extension":[{"url":"http://hl7.org/fhir/us/core/StructureDefinition/us-core-race","extension":[{"url":"ombCategory","valueCoding":{"system":"urn:oid:2.16.840.1.113883.6.238","code":"2028-9","display":"Asian","userSelected":true}},{"url":"text","valueString":"Asian"}]},{"url":"http://hl7.org/fhir/us/core/StructureDefinition/us-core-ethnicity","extension":[{"url":"ombCategory","valueCoding":{"system":"urn:oid:2.16.840.1.113883.6.238","code":"2135-2","display":"Hispanic or Latino","userSelected":true}},{"url":"text","valueString":"Hispanic or Latino"}]}],"identifier":[{"type":{"coding":[{"system":"http://terminology.hl7.org/CodeSystem/v2-0203","code":"MR"}]},"system":"http://hospital.smarthealthit.org","value":"999999995"}],"name":[{"family":"Bertha","given":["Betty"]}],"gender":"female","birthDate":"2012-01-01"},"request":{"method":"PUT","url":"Patient/95e62e34-9b8a-4076-9d09-5eb5e35fdc6a"}},{"fullUrl":"https://madie.cms.gov/Condition/Condition-1","resource":{"resourceType":"Condition","id":"9348b1ea-e721-4d5a-9414-d116536e089e","meta":{"profile":["http://hl7.org/fhir/us/qicore/StructureDefinition/qicore-condition"]},"clinicalStatus":{"coding":[{"system":"http://terminology.hl7.org/CodeSystem/condition-clinical","code":"active"}]},"category":[{"coding":[{"system":"http://terminology.hl7.org/CodeSystem/condition-category","code":"problem-list-item","display":"Problem List Item"}]}],"code":{"coding":[{"system":"http://hl7.org/fhir/sid/icd-10-cm","code":"F10.10","display":"Alcohol abuse, uncomplicated"}]},"subject":{"reference":"Patient/95e62e34-9b8a-4076-9d09-5eb5e35fdc6a"},"onsetDateTime":"2025-05-05T00:00:00.000Z"},"request":{"method":"PUT","url":"Condition/9348b1ea-e721-4d5a-9414-d116536e089e"}},{"fullUrl":"https://madie.cms.gov/Encounter/Encounter-1","resource":{"resourceType":"Encounter","id":"e6f33bf4-03b0-448d-9be9-874e348ba73e","meta":{"profile":["http://hl7.org/fhir/us/qicore/StructureDefinition/qicore-encounter"]},"status":"finished","class":{"system":"http://terminology.hl7.org/CodeSystem/v3-ActCode","code":"AMB","display":"ambulatory"},"type":[{"coding":[{"system":"http://www.ama-assn.org/go/cpt","code":"98970","display":"Qualified nonphysician health care professional online digital assessment and management, for an established patient, for up to 7 days, cumulative time during the 7 days; 5-10 minutes"}]}],"subject":{"reference":"Patient/95e62e34-9b8a-4076-9d09-5eb5e35fdc6a"},"period":{"start":"2025-05-05T00:00:00.000Z","end":"2025-05-05T01:15:00.000Z"}},"request":{"method":"PUT","url":"Encounter/e6f33bf4-03b0-448d-9be9-874e348ba73e"}},{"fullUrl":"https://madie.cms.gov/Encounter/Encounter-2","resource":{"resourceType":"Encounter","id":"269a5c8c-ed79-4462-87b5-7046168b54f9","meta":{"profile":["http://hl7.org/fhir/us/qicore/StructureDefinition/qicore-encounter"]},"status":"finished","class":{"system":"http://terminology.hl7.org/CodeSystem/v3-ActCode","code":"AMB","display":"ambulatory"},"type":[{"coding":[{"system":"http://www.ama-assn.org/go/cpt","code":"98970","display":"Qualified nonphysician health care professional online digital assessment and management, for an established patient, for up to 7 days, cumulative time during the 7 days; 5-10 minutes"}]}],"subject":{"reference":"Patient/95e62e34-9b8a-4076-9d09-5eb5e35fdc6a"},"period":{"start":"2025-05-05T02:00:00.000Z","end":"2025-05-05T03:00:00.000Z"},"diagnosis":[{"condition":{"reference":"Condition/Condition-1"}}]},"request":{"method":"PUT","url":"Encounter/269a5c8c-ed79-4462-87b5-7046168b54f9"}},{"fullUrl":"https://madie.cms.gov/MeasureReport/e939162b-6974-4ec5-8707-5045897cbe6e","resource":{"resourceType":"MeasureReport","id":"e939162b-6974-4ec5-8707-5045897cbe6e","meta":{"profile":["http://hl7.org/fhir/us/cqfmeasures/StructureDefinition/test-case-cqfm"]},"contained":[{"resourceType":"Parameters","id":"58a76fe7-d8cc-495f-a249-7dac527abaf2-parameters","parameter":[{"name":"subject","valueString":"95e62e34-9b8a-4076-9d09-5eb5e35fdc6a"}]}],"extension":[{"url":"http://hl7.org/fhir/us/cqfmeasures/StructureDefinition/cqfm-inputParameters","valueReference":{"reference":"#58a76fe7-d8cc-495f-a249-7dac527abaf2-parameters"}},{"url":"http://hl7.org/fhir/us/cqfmeasures/StructureDefinition/cqfm-testCaseDescription","valueMarkdown":"Two virtual encounters with SUD diagnosis. One meets initiation criteria."}],"modifierExtension":[{"url":"http://hl7.org/fhir/us/cqfmeasures/StructureDefinition/cqfm-isTestCase","valueBoolean":true}],"status":"complete","type":"individual","measure":"https://madie.cms.gov/Measure/InitiationandEngagementofSubstanceUseDisorderTreatmentFHIR","period":{"start":"2025-01-01","end":"2025-12-31"},"group":[{"population":[{"code":{"coding":[{"system":"http://terminology.hl7.org/CodeSystem/measure-population","code":"initial-population","display":"Initial Population"}]},"count":1},{"code":{"coding":[{"system":"http://terminology.hl7.org/CodeSystem/measure-population","code":"denominator","display":"Denominator"}]},"count":1},{"code":{"coding":[{"system":"http://terminology.hl7.org/CodeSystem/measure-population","code":"denominator-exclusion","display":"Denominator Exclusion"}]},"count":0},{"code":{"coding":[{"system":"http://terminology.hl7.org/CodeSystem/measure-population","code":"numerator","display":"Numerator"}]},"count":1}]},{"population":[{"code":{"coding":[{"system":"http://terminology.hl7.org/CodeSystem/measure-population","code":"initial-population","display":"Initial Population"}]},"count":1},{"code":{"coding":[{"system":"http://terminology.hl7.org/CodeSystem/measure-population","code":"denominator","display":"Denominator"}]},"count":1},{"code":{"coding":[{"system":"http://terminology.hl7.org/CodeSystem/measure-population","code":"denominator-exclusion","display":"Denominator Exclusion"}]},"count":0},{"code":{"coding":[{"system":"http://terminology.hl7.org/CodeSystem/measure-population","code":"numerator","display":"Numerator"}]},"count":0}]}]},"request":{"method":"PUT","url":"MeasureReport/e939162b-6974-4ec5-8707-5045897cbe6e"}}]}