{"resourceType":"Bundle","id":"tests-6d067136-ea2a-4ff3-a8bf-54ea13fcd261-bundle","type":"transaction","entry":[{"fullUrl":"https://madie.cms.gov/Patient/6d067136-ea2a-4ff3-a8bf-54ea13fcd261","resource":{"resourceType":"Patient","id":"6d067136-ea2a-4ff3-a8bf-54ea13fcd261","meta":{"profile":["http://hl7.org/fhir/us/qicore/StructureDefinition/qicore-patient"]},"extension":[{"url":"http://hl7.org/fhir/us/core/StructureDefinition/us-core-race","extension":[{"url":"ombCategory","valueCoding":{"system":"urn:oid:2.16.840.1.113883.6.238","code":"2028-9","display":"Asian"}},{"url":"text","valueString":"Asian"}]},{"url":"http://hl7.org/fhir/us/core/StructureDefinition/us-core-ethnicity","extension":[{"url":"ombCategory","valueCoding":{"system":"urn:oid:2.16.840.1.113883.6.238","code":"2135-2","display":"Hispanic or Latino"}},{"url":"text","valueString":"Hispanic or Latino"}]}],"identifier":[{"system":"http://hospital.smarthealthit.org","value":"999999995"}],"name":[{"family":"Bertha","given":["Betty"]}],"gender":"female","birthDate":"2023-01-01"},"request":{"method":"PUT","url":"Patient/6d067136-ea2a-4ff3-a8bf-54ea13fcd261"}},{"fullUrl":"https://madie.cms.gov/Encounter/Encounter-1","resource":{"resourceType":"Encounter","id":"b8f078c4-7672-4913-bfef-d1438840a723","meta":{"profile":["http://hl7.org/fhir/us/qicore/StructureDefinition/qicore-encounter"]},"status":"finished","class":{"system":"http://terminology.hl7.org/CodeSystem/v3-ActCode","code":"AMB","display":"ambulatory"},"type":[{"coding":[{"system":"http://snomed.info/sct","code":"185317003","display":"Telephone encounter (procedure)"}]}],"subject":{"reference":"Patient/6d067136-ea2a-4ff3-a8bf-54ea13fcd261"},"period":{"start":"2025-01-01T01:00:00.000Z","end":"2025-01-01T01:15:00.000Z"}},"request":{"method":"PUT","url":"Encounter/b8f078c4-7672-4913-bfef-d1438840a723"}},{"fullUrl":"https://madie.cms.gov/Immunization/Immunization-1a","resource":{"resourceType":"Immunization","id":"8a0d082b-4b18-4e2e-b94e-42d77db808ae","meta":{"profile":["http://hl7.org/fhir/us/qicore/StructureDefinition/qicore-immunization"]},"status":"completed","vaccineCode":{"coding":[{"system":"http://hl7.org/fhir/sid/cvx","code":"146","display":"Diphtheria and Tetanus Toxoids and Acellular Pertussis Adsorbed, Inactivated Poliovirus, Haemophilus b Conjugate (Meningococcal Protein Conjugate), and Hepatitis B (Recombinant) Vaccine."}]},"patient":{"reference":"Patient/6d067136-ea2a-4ff3-a8bf-54ea13fcd261"},"occurrenceDateTime":"2024-01-02T00:00:00.000Z","recorded":"2024-01-02T00:00:00.000Z","primarySource":true},"request":{"method":"PUT","url":"Immunization/8a0d082b-4b18-4e2e-b94e-42d77db808ae"}},{"fullUrl":"https://madie.cms.gov/Immunization/Immunization-1b","resource":{"resourceType":"Immunization","id":"61f3ca5d-c5ee-4ed3-85f5-72c1636e1f06","meta":{"profile":["http://hl7.org/fhir/us/qicore/StructureDefinition/qicore-immunization"]},"status":"completed","vaccineCode":{"coding":[{"system":"http://hl7.org/fhir/sid/cvx","code":"146","display":"Diphtheria and Tetanus Toxoids and Acellular Pertussis Adsorbed, Inactivated Poliovirus, Haemophilus b Conjugate (Meningococcal Protein Conjugate), and Hepatitis B (Recombinant) Vaccine."}]},"patient":{"reference":"Patient/6d067136-ea2a-4ff3-a8bf-54ea13fcd261"},"occurrenceDateTime":"2024-01-05T00:00:00.000Z","recorded":"2024-01-02T00:00:00.000Z","primarySource":true},"request":{"method":"PUT","url":"Immunization/61f3ca5d-c5ee-4ed3-85f5-72c1636e1f06"}},{"fullUrl":"https://madie.cms.gov/Immunization/Immunization-1c","resource":{"resourceType":"Immunization","id":"fb8ee846-a62d-4cb6-bba7-1c5557ce31ae","meta":{"profile":["http://hl7.org/fhir/us/qicore/StructureDefinition/qicore-immunization"]},"status":"completed","vaccineCode":{"coding":[{"system":"http://hl7.org/fhir/sid/cvx","code":"146","display":"Diphtheria and Tetanus Toxoids and Acellular Pertussis Adsorbed, Inactivated Poliovirus, Haemophilus b Conjugate (Meningococcal Protein Conjugate), and Hepatitis B (Recombinant) Vaccine."}]},"patient":{"reference":"Patient/6d067136-ea2a-4ff3-a8bf-54ea13fcd261"},"occurrenceDateTime":"2024-01-07T00:00:00.000Z","recorded":"2024-01-02T00:00:00.000Z","primarySource":true},"request":{"method":"PUT","url":"Immunization/fb8ee846-a62d-4cb6-bba7-1c5557ce31ae"}},{"fullUrl":"https://madie.cms.gov/Immunization/Immunization-1d","resource":{"resourceType":"Immunization","id":"8860e723-1fe4-4e73-9e39-5c6315d98039","meta":{"profile":["http://hl7.org/fhir/us/qicore/StructureDefinition/qicore-immunization"]},"status":"completed","vaccineCode":{"coding":[{"system":"http://hl7.org/fhir/sid/cvx","code":"146","display":"Diphtheria and Tetanus Toxoids and Acellular Pertussis Adsorbed, Inactivated Poliovirus, Haemophilus b Conjugate (Meningococcal Protein Conjugate), and Hepatitis B (Recombinant) Vaccine."}]},"patient":{"reference":"Patient/6d067136-ea2a-4ff3-a8bf-54ea13fcd261"},"occurrenceDateTime":"2024-01-10T00:00:00.000Z","recorded":"2024-01-02T00:00:00.000Z","primarySource":true},"request":{"method":"PUT","url":"Immunization/8860e723-1fe4-4e73-9e39-5c6315d98039"}},{"fullUrl":"https://madie.cms.gov/Immunization/Immunization-2a","resource":{"resourceType":"Immunization","id":"b604a368-3c05-4bbd-b4ac-6d1de98900bd","meta":{"profile":["http://hl7.org/fhir/us/qicore/StructureDefinition/qicore-immunization"]},"status":"completed","vaccineCode":{"coding":[{"system":"http://hl7.org/fhir/sid/cvx","code":"146","display":"\tDiphtheria and Tetanus Toxoids and Acellular Pertussis Adsorbed, Inactivated Poliovirus, Haemophilus b Conjugate (Meningococcal Protein Conjugate), and Hepatitis B (Recombinant) Vaccine."}]},"patient":{"reference":"Patient/6d067136-ea2a-4ff3-a8bf-54ea13fcd261"},"occurrenceDateTime":"2024-01-02T00:00:00.000Z","recorded":"2024-01-02T00:00:00.000Z","primarySource":true},"request":{"method":"PUT","url":"Immunization/b604a368-3c05-4bbd-b4ac-6d1de98900bd"}},{"fullUrl":"https://madie.cms.gov/Immunization/Immunization-2b","resource":{"resourceType":"Immunization","id":"dea3e34f-a89f-48f9-b571-9ee73dcc7b13","meta":{"profile":["http://hl7.org/fhir/us/qicore/StructureDefinition/qicore-immunization"]},"status":"completed","vaccineCode":{"coding":[{"system":"http://hl7.org/fhir/sid/cvx","code":"146","display":"\tDiphtheria and Tetanus Toxoids and Acellular Pertussis Adsorbed, Inactivated Poliovirus, Haemophilus b Conjugate (Meningococcal Protein Conjugate), and Hepatitis B (Recombinant) Vaccine."}]},"patient":{"reference":"Patient/6d067136-ea2a-4ff3-a8bf-54ea13fcd261"},"occurrenceDateTime":"2024-01-06T00:00:00.000Z","recorded":"2024-01-02T00:00:00.000Z","primarySource":true},"request":{"method":"PUT","url":"Immunization/dea3e34f-a89f-48f9-b571-9ee73dcc7b13"}},{"fullUrl":"https://madie.cms.gov/Immunization/Immunization-2c","resource":{"resourceType":"Immunization","id":"f653bb2c-5cce-4972-aec0-1078a0e67e21","meta":{"profile":["http://hl7.org/fhir/us/qicore/StructureDefinition/qicore-immunization"]},"status":"completed","vaccineCode":{"coding":[{"system":"http://hl7.org/fhir/sid/cvx","code":"146","display":"\tDiphtheria and Tetanus Toxoids and Acellular Pertussis Adsorbed, Inactivated Poliovirus, Haemophilus b Conjugate (Meningococcal Protein Conjugate), and Hepatitis B (Recombinant) Vaccine."}]},"patient":{"reference":"Patient/6d067136-ea2a-4ff3-a8bf-54ea13fcd261"},"occurrenceDateTime":"2024-01-09T00:00:00.000Z","recorded":"2024-01-02T00:00:00.000Z","primarySource":true},"request":{"method":"PUT","url":"Immunization/f653bb2c-5cce-4972-aec0-1078a0e67e21"}},{"fullUrl":"https://madie.cms.gov/Immunization/Immunization-3","resource":{"resourceType":"Immunization","id":"45639e52-6b0d-4c94-8ad3-8da003df403c","meta":{"profile":["http://hl7.org/fhir/us/qicore/StructureDefinition/qicore-immunization"]},"status":"completed","vaccineCode":{"coding":[{"system":"http://hl7.org/fhir/sid/cvx","code":"94","display":"measles, mumps, rubella, and varicella virus vaccine"}]},"patient":{"reference":"Patient/6d067136-ea2a-4ff3-a8bf-54ea13fcd261"},"occurrenceDateTime":"2024-01-02T00:00:00.000Z","recorded":"2024-01-02T00:00:00.000Z","primarySource":true},"request":{"method":"PUT","url":"Immunization/45639e52-6b0d-4c94-8ad3-8da003df403c"}},{"fullUrl":"https://madie.cms.gov/Immunization/Immunization-4a","resource":{"resourceType":"Immunization","id":"cbc2562f-fe33-4384-8673-7dc7030e28be","meta":{"profile":["http://hl7.org/fhir/us/qicore/StructureDefinition/qicore-immunization"]},"status":"completed","vaccineCode":{"coding":[{"system":"http://hl7.org/fhir/sid/cvx","code":"49","display":"Haemophilus influenzae type b vaccine, PRP-OMP conjugate"}]},"patient":{"reference":"Patient/6d067136-ea2a-4ff3-a8bf-54ea13fcd261"},"occurrenceDateTime":"2024-01-02T00:00:00.000Z","recorded":"2024-01-02T00:00:00.000Z","primarySource":true},"request":{"method":"PUT","url":"Immunization/cbc2562f-fe33-4384-8673-7dc7030e28be"}},{"fullUrl":"https://madie.cms.gov/Immunization/Immunization-4b","resource":{"resourceType":"Immunization","id":"00f7c00c-dffd-4f11-bd09-b66e950736c1","meta":{"profile":["http://hl7.org/fhir/us/qicore/StructureDefinition/qicore-immunization"]},"status":"completed","vaccineCode":{"coding":[{"system":"http://hl7.org/fhir/sid/cvx","code":"49","display":"Haemophilus influenzae type b vaccine, PRP-OMP conjugate"}]},"patient":{"reference":"Patient/6d067136-ea2a-4ff3-a8bf-54ea13fcd261"},"occurrenceDateTime":"2024-01-02T00:00:00.000Z","recorded":"2024-01-02T00:00:00.000Z","primarySource":true},"request":{"method":"PUT","url":"Immunization/00f7c00c-dffd-4f11-bd09-b66e950736c1"}},{"fullUrl":"https://madie.cms.gov/Immunization/Immunization-4c","resource":{"resourceType":"Immunization","id":"76eea075-0e19-4bea-b12d-e56ffc2d1d37","meta":{"profile":["http://hl7.org/fhir/us/qicore/StructureDefinition/qicore-immunization"]},"status":"completed","vaccineCode":{"coding":[{"system":"http://hl7.org/fhir/sid/cvx","code":"49","display":"Haemophilus influenzae type b vaccine, PRP-OMP conjugate"}]},"patient":{"reference":"Patient/6d067136-ea2a-4ff3-a8bf-54ea13fcd261"},"occurrenceDateTime":"2024-01-02T00:00:00.000Z","recorded":"2024-01-02T00:00:00.000Z","primarySource":true},"request":{"method":"PUT","url":"Immunization/76eea075-0e19-4bea-b12d-e56ffc2d1d37"}},{"fullUrl":"https://madie.cms.gov/Immunization/Immunization-5a","resource":{"resourceType":"Immunization","id":"17bd12f8-06e5-4b81-aa37-21e246d2298b","meta":{"profile":["http://hl7.org/fhir/us/qicore/StructureDefinition/qicore-immunization"]},"status":"completed","vaccineCode":{"coding":[{"system":"http://hl7.org/fhir/sid/cvx","code":"51","display":"Haemophilus influenzae type b conjugate and Hepatitis B vaccine"}]},"patient":{"reference":"Patient/6d067136-ea2a-4ff3-a8bf-54ea13fcd261"},"occurrenceDateTime":"2024-01-02T00:00:00.000Z","recorded":"2024-01-02T00:00:00.000Z","primarySource":true},"request":{"method":"PUT","url":"Immunization/17bd12f8-06e5-4b81-aa37-21e246d2298b"}},{"fullUrl":"https://madie.cms.gov/Immunization/Immunization-5b","resource":{"resourceType":"Immunization","id":"106faa4e-d18b-4a1b-9a6e-a3f955dd71a4","meta":{"profile":["http://hl7.org/fhir/us/qicore/StructureDefinition/qicore-immunization"]},"status":"completed","vaccineCode":{"coding":[{"system":"http://hl7.org/fhir/sid/cvx","code":"51","display":"Haemophilus influenzae type b conjugate and Hepatitis B vaccine"}]},"patient":{"reference":"Patient/6d067136-ea2a-4ff3-a8bf-54ea13fcd261"},"occurrenceDateTime":"2024-01-10T00:00:00.000Z","recorded":"2024-01-02T00:00:00.000Z","primarySource":true},"request":{"method":"PUT","url":"Immunization/106faa4e-d18b-4a1b-9a6e-a3f955dd71a4"}},{"fullUrl":"https://madie.cms.gov/Immunization/Immunization-5c","resource":{"resourceType":"Immunization","id":"d6457aaa-f201-4acf-9c96-c0108b202539","meta":{"profile":["http://hl7.org/fhir/us/qicore/StructureDefinition/qicore-immunization"]},"status":"completed","vaccineCode":{"coding":[{"system":"http://hl7.org/fhir/sid/cvx","code":"51","display":"Haemophilus influenzae type b conjugate and Hepatitis B vaccine"}]},"patient":{"reference":"Patient/6d067136-ea2a-4ff3-a8bf-54ea13fcd261"},"occurrenceDateTime":"2024-01-12T00:00:00.000Z","recorded":"2024-01-02T00:00:00.000Z","primarySource":true},"request":{"method":"PUT","url":"Immunization/d6457aaa-f201-4acf-9c96-c0108b202539"}},{"fullUrl":"https://madie.cms.gov/Immunization/Immunization-6","resource":{"resourceType":"Immunization","id":"859f40f3-616c-47b6-89ef-7509ee64376a","meta":{"profile":["http://hl7.org/fhir/us/qicore/StructureDefinition/qicore-immunization"]},"status":"completed","vaccineCode":{"coding":[{"system":"http://hl7.org/fhir/sid/cvx","code":"94","display":"measles, mumps, rubella, and varicella virus vaccine"}]},"patient":{"reference":"Patient/6d067136-ea2a-4ff3-a8bf-54ea13fcd261"},"occurrenceDateTime":"2024-01-02T00:00:00.000Z","recorded":"2024-01-02T00:00:00.000Z","primarySource":true},"request":{"method":"PUT","url":"Immunization/859f40f3-616c-47b6-89ef-7509ee64376a"}},{"fullUrl":"https://madie.cms.gov/Immunization/Immunization-7a","resource":{"resourceType":"Immunization","id":"cefe9908-7c68-4083-b84c-a62b5581fa97","meta":{"profile":["http://hl7.org/fhir/us/qicore/StructureDefinition/qicore-immunization"]},"status":"completed","vaccineCode":{"coding":[{"system":"http://hl7.org/fhir/sid/cvx","code":"215","display":"Pneumococcal conjugate vaccine 15-valent (PCV15), polysaccharide CRM197 conjugate, adjuvant, preservative free"}]},"patient":{"reference":"Patient/6d067136-ea2a-4ff3-a8bf-54ea13fcd261"},"occurrenceDateTime":"2024-01-12T00:00:00.000Z","recorded":"2024-01-02T00:00:00.000Z","primarySource":true},"request":{"method":"PUT","url":"Immunization/cefe9908-7c68-4083-b84c-a62b5581fa97"}},{"fullUrl":"https://madie.cms.gov/Immunization/Immunization-7b","resource":{"resourceType":"Immunization","id":"e9a11d2c-1fb7-48bb-a785-a3f19a9bf504","meta":{"profile":["http://hl7.org/fhir/us/qicore/StructureDefinition/qicore-immunization"]},"status":"completed","vaccineCode":{"coding":[{"system":"http://hl7.org/fhir/sid/cvx","code":"215","display":"Pneumococcal conjugate vaccine 15-valent (PCV15), polysaccharide CRM197 conjugate, adjuvant, preservative free"}]},"patient":{"reference":"Patient/6d067136-ea2a-4ff3-a8bf-54ea13fcd261"},"occurrenceDateTime":"2024-01-14T00:00:00.000Z","recorded":"2024-01-02T00:00:00.000Z","primarySource":true},"request":{"method":"PUT","url":"Immunization/e9a11d2c-1fb7-48bb-a785-a3f19a9bf504"}},{"fullUrl":"https://madie.cms.gov/Immunization/Immunization-7c","resource":{"resourceType":"Immunization","id":"26c52790-d8b9-4066-a934-6d839d93db2c","meta":{"profile":["http://hl7.org/fhir/us/qicore/StructureDefinition/qicore-immunization"]},"status":"completed","vaccineCode":{"coding":[{"system":"http://hl7.org/fhir/sid/cvx","code":"215","display":"Pneumococcal conjugate vaccine 15-valent (PCV15), polysaccharide CRM197 conjugate, adjuvant, preservative free"}]},"patient":{"reference":"Patient/6d067136-ea2a-4ff3-a8bf-54ea13fcd261"},"occurrenceDateTime":"2024-01-20T00:00:00.000Z","recorded":"2024-01-02T00:00:00.000Z","primarySource":true},"request":{"method":"PUT","url":"Immunization/26c52790-d8b9-4066-a934-6d839d93db2c"}},{"fullUrl":"https://madie.cms.gov/Immunization/Immunization-7d","resource":{"resourceType":"Immunization","id":"592872e3-2f5d-4d53-b457-ce699ffae9fb","meta":{"profile":["http://hl7.org/fhir/us/qicore/StructureDefinition/qicore-immunization"]},"status":"completed","vaccineCode":{"coding":[{"system":"http://hl7.org/fhir/sid/cvx","code":"215","display":"Pneumococcal conjugate vaccine 15-valent (PCV15), polysaccharide CRM197 conjugate, adjuvant, preservative free"}]},"patient":{"reference":"Patient/6d067136-ea2a-4ff3-a8bf-54ea13fcd261"},"occurrenceDateTime":"2024-01-22T00:00:00.000Z","recorded":"2024-01-02T00:00:00.000Z","primarySource":true},"request":{"method":"PUT","url":"Immunization/592872e3-2f5d-4d53-b457-ce699ffae9fb"}},{"fullUrl":"https://madie.cms.gov/Immunization/Immunization-8","resource":{"resourceType":"Immunization","id":"03b4f146-658a-4773-acb7-5f56108f5370","meta":{"profile":["http://hl7.org/fhir/us/qicore/StructureDefinition/qicore-immunization"]},"status":"completed","vaccineCode":{"coding":[{"system":"http://hl7.org/fhir/sid/cvx","code":"85","display":"hepatitis A vaccine, unspecified formulation"}]},"patient":{"reference":"Patient/6d067136-ea2a-4ff3-a8bf-54ea13fcd261"},"occurrenceDateTime":"2024-01-02T00:00:00.000Z","recorded":"2024-01-02T00:00:00.000Z","primarySource":true},"request":{"method":"PUT","url":"Immunization/03b4f146-658a-4773-acb7-5f56108f5370"}},{"fullUrl":"https://madie.cms.gov/Immunization/Immunization-9a","resource":{"resourceType":"Immunization","id":"2d03a5bf-c166-4e10-8093-c0f7cf1ce918","meta":{"profile":["http://hl7.org/fhir/us/qicore/StructureDefinition/qicore-immunization"]},"status":"completed","vaccineCode":{"coding":[{"system":"http://hl7.org/fhir/sid/cvx","code":"119","display":"rotavirus, live, monovalent vaccine"}]},"patient":{"reference":"Patient/6d067136-ea2a-4ff3-a8bf-54ea13fcd261"},"occurrenceDateTime":"2024-01-02T00:00:00.000Z","recorded":"2024-01-02T00:00:00.000Z","primarySource":true},"request":{"method":"PUT","url":"Immunization/2d03a5bf-c166-4e10-8093-c0f7cf1ce918"}},{"fullUrl":"https://madie.cms.gov/Immunization/Immunization-9b","resource":{"resourceType":"Immunization","id":"09718ba0-e783-4d0a-9335-1aff7da01875","meta":{"profile":["http://hl7.org/fhir/us/qicore/StructureDefinition/qicore-immunization"]},"status":"completed","vaccineCode":{"coding":[{"system":"http://hl7.org/fhir/sid/cvx","code":"119","display":"rotavirus, live, monovalent vaccine"}]},"patient":{"reference":"Patient/6d067136-ea2a-4ff3-a8bf-54ea13fcd261"},"occurrenceDateTime":"2024-01-07T00:00:00.000Z","recorded":"2024-01-02T00:00:00.000Z","primarySource":true},"request":{"method":"PUT","url":"Immunization/09718ba0-e783-4d0a-9335-1aff7da01875"}},{"fullUrl":"https://madie.cms.gov/Immunization/Immunization-10a","resource":{"resourceType":"Immunization","id":"ccc85a11-5c75-4eae-b04f-ea8078bfaeaf","meta":{"profile":["http://hl7.org/fhir/us/qicore/StructureDefinition/qicore-immunization"]},"status":"completed","vaccineCode":{"coding":[{"system":"http://hl7.org/fhir/sid/cvx","code":"153","display":"\tInfluenza, injectable, Madin Darby Canine Kidney, preservative free"}]},"patient":{"reference":"Patient/6d067136-ea2a-4ff3-a8bf-54ea13fcd261"},"occurrenceDateTime":"2024-01-02T00:00:00.000Z","recorded":"2024-01-02T00:00:00.000Z","primarySource":true},"request":{"method":"PUT","url":"Immunization/ccc85a11-5c75-4eae-b04f-ea8078bfaeaf"}},{"fullUrl":"https://madie.cms.gov/Immunization/Immunization-10b","resource":{"resourceType":"Immunization","id":"9a982b04-e565-4f06-9d99-7bdc5e131202","meta":{"profile":["http://hl7.org/fhir/us/qicore/StructureDefinition/qicore-immunization"]},"status":"completed","vaccineCode":{"coding":[{"system":"http://hl7.org/fhir/sid/cvx","code":"153","display":"\tInfluenza, injectable, Madin Darby Canine Kidney, preservative free"}]},"patient":{"reference":"Patient/6d067136-ea2a-4ff3-a8bf-54ea13fcd261"},"occurrenceDateTime":"2024-01-10T00:00:00.000Z","recorded":"2024-01-02T00:00:00.000Z","primarySource":true},"request":{"method":"PUT","url":"Immunization/9a982b04-e565-4f06-9d99-7bdc5e131202"}},{"fullUrl":"https://madie.cms.gov/MeasureReport/696aeb6a-29db-45a7-ac44-352f164a5a5f","resource":{"resourceType":"MeasureReport","id":"696aeb6a-29db-45a7-ac44-352f164a5a5f","meta":{"profile":["http://hl7.org/fhir/us/cqfmeasures/StructureDefinition/test-case-cqfm"]},"contained":[{"resourceType":"Parameters","id":"2f87ce87-0f81-43d8-86a4-88479fb8cbd4-parameters","parameter":[{"name":"subject","valueString":"6d067136-ea2a-4ff3-a8bf-54ea13fcd261"}]}],"extension":[{"url":"http://hl7.org/fhir/us/cqfmeasures/StructureDefinition/cqfm-inputParameters","valueReference":{"reference":"#2f87ce87-0f81-43d8-86a4-88479fb8cbd4-parameters"}},{"url":"http://hl7.org/fhir/us/cqfmeasures/StructureDefinition/cqfm-testCaseDescription","valueMarkdown":"All vaccines met - immunizations"}],"modifierExtension":[{"url":"http://hl7.org/fhir/us/cqfmeasures/StructureDefinition/cqfm-isTestCase","valueBoolean":true}],"status":"complete","type":"individual","measure":"https://madie.cms.gov/Measure/ChildhoodImmunizationStatusFHIR","period":{"start":"2025-01-01","end":"2025-12-31"},"group":[{"population":[{"code":{"coding":[{"system":"http://terminology.hl7.org/CodeSystem/measure-population","code":"initial-population","display":"Initial Population"}]},"count":1},{"code":{"coding":[{"system":"http://terminology.hl7.org/CodeSystem/measure-population","code":"denominator","display":"Denominator"}]},"count":1},{"code":{"coding":[{"system":"http://terminology.hl7.org/CodeSystem/measure-population","code":"denominator-exclusion","display":"Denominator Exclusion"}]},"count":0},{"code":{"coding":[{"system":"http://terminology.hl7.org/CodeSystem/measure-population","code":"numerator","display":"Numerator"}]},"count":1}]}]},"request":{"method":"PUT","url":"MeasureReport/696aeb6a-29db-45a7-ac44-352f164a5a5f"}}]}