{"resourceType":"Bundle","id":"tests-1e7dc519-5d75-4c07-b23f-ae9421a12943-bundle","type":"transaction","entry":[{"fullUrl":"https://madie.cms.gov/Patient/1e7dc519-5d75-4c07-b23f-ae9421a12943","resource":{"resourceType":"Patient","id":"1e7dc519-5d75-4c07-b23f-ae9421a12943","meta":{"profile":["http://hl7.org/fhir/us/qicore/StructureDefinition/qicore-patient"]},"extension":[{"url":"http://hl7.org/fhir/us/core/StructureDefinition/us-core-race","extension":[{"url":"ombCategory","valueCoding":{"system":"urn:oid:2.16.840.1.113883.6.238","code":"2028-9","display":"Asian","userSelected":true}},{"url":"text","valueString":"Asian"}]},{"url":"http://hl7.org/fhir/us/core/StructureDefinition/us-core-ethnicity","extension":[{"url":"ombCategory","valueCoding":{"system":"urn:oid:2.16.840.1.113883.6.238","code":"2135-2","display":"Hispanic or Latino","userSelected":true}},{"url":"text","valueString":"Hispanic or Latino"}]}],"identifier":[{"type":{"coding":[{"system":"http://terminology.hl7.org/CodeSystem/v2-0203","code":"MR"}]},"system":"http://hospital.smarthealthit.org","value":"999999995"}],"name":[{"family":"Bertha","given":["Betty"]}],"gender":"female","birthDate":"2023-01-01"},"request":{"method":"PUT","url":"Patient/1e7dc519-5d75-4c07-b23f-ae9421a12943"}},{"fullUrl":"https://madie.cms.gov/Encounter/Encounter-1","resource":{"resourceType":"Encounter","id":"6325f152-8d1d-4a8b-a66f-cb4649051450","meta":{"profile":["http://hl7.org/fhir/us/qicore/StructureDefinition/qicore-encounter"]},"status":"finished","class":{"system":"http://terminology.hl7.org/CodeSystem/v3-ActCode","code":"AMB","display":"ambulatory"},"type":[{"coding":[{"system":"http://snomed.info/sct","code":"185317003","display":"Telephone encounter (procedure)"}]}],"subject":{"reference":"Patient/1e7dc519-5d75-4c07-b23f-ae9421a12943"},"period":{"start":"2025-01-01T01:00:00.000Z","end":"2025-01-01T01:15:00.000Z"}},"request":{"method":"PUT","url":"Encounter/6325f152-8d1d-4a8b-a66f-cb4649051450"}},{"fullUrl":"https://madie.cms.gov/Immunization/Immunization-1a","resource":{"resourceType":"Immunization","id":"470faaa8-7f46-4f4f-b907-f989bc3e3c8b","meta":{"profile":["http://hl7.org/fhir/us/qicore/StructureDefinition/qicore-immunization"]},"status":"completed","vaccineCode":{"coding":[{"system":"http://hl7.org/fhir/sid/cvx","code":"146","display":"Diphtheria and Tetanus Toxoids and Acellular Pertussis Adsorbed, Inactivated Poliovirus, Haemophilus b Conjugate (Meningococcal Protein Conjugate), and Hepatitis B (Recombinant) Vaccine."}]},"patient":{"reference":"Patient/1e7dc519-5d75-4c07-b23f-ae9421a12943"},"occurrenceDateTime":"2024-01-02T00:00:00.000Z","recorded":"2024-01-02T00:00:00.000Z","primarySource":true},"request":{"method":"PUT","url":"Immunization/470faaa8-7f46-4f4f-b907-f989bc3e3c8b"}},{"fullUrl":"https://madie.cms.gov/Immunization/Immunization-1b","resource":{"resourceType":"Immunization","id":"46d6b697-2d2a-4dc7-b75f-f7a418f7d5a0","meta":{"profile":["http://hl7.org/fhir/us/qicore/StructureDefinition/qicore-immunization"]},"status":"completed","vaccineCode":{"coding":[{"system":"http://hl7.org/fhir/sid/cvx","code":"146","display":"Diphtheria and Tetanus Toxoids and Acellular Pertussis Adsorbed, Inactivated Poliovirus, Haemophilus b Conjugate (Meningococcal Protein Conjugate), and Hepatitis B (Recombinant) Vaccine."}]},"patient":{"reference":"Patient/1e7dc519-5d75-4c07-b23f-ae9421a12943"},"occurrenceDateTime":"2024-01-05T00:00:00.000Z","recorded":"2024-01-02T00:00:00.000Z","primarySource":true},"request":{"method":"PUT","url":"Immunization/46d6b697-2d2a-4dc7-b75f-f7a418f7d5a0"}},{"fullUrl":"https://madie.cms.gov/Immunization/Immunization-1c","resource":{"resourceType":"Immunization","id":"1f4eaaa4-e147-4527-afcc-4ae0cbd3bf8e","meta":{"profile":["http://hl7.org/fhir/us/qicore/StructureDefinition/qicore-immunization"]},"status":"completed","vaccineCode":{"coding":[{"system":"http://hl7.org/fhir/sid/cvx","code":"146","display":"Diphtheria and Tetanus Toxoids and Acellular Pertussis Adsorbed, Inactivated Poliovirus, Haemophilus b Conjugate (Meningococcal Protein Conjugate), and Hepatitis B (Recombinant) Vaccine."}]},"patient":{"reference":"Patient/1e7dc519-5d75-4c07-b23f-ae9421a12943"},"occurrenceDateTime":"2024-01-07T00:00:00.000Z","recorded":"2024-01-02T00:00:00.000Z","primarySource":true},"request":{"method":"PUT","url":"Immunization/1f4eaaa4-e147-4527-afcc-4ae0cbd3bf8e"}},{"fullUrl":"https://madie.cms.gov/Procedure/Procedure-1d","resource":{"resourceType":"Procedure","id":"f589c335-cf24-435c-8f99-a69492436529","meta":{"profile":["http://hl7.org/fhir/us/qicore/StructureDefinition/qicore-procedure"]},"extension":[{"url":"http://hl7.org/fhir/us/qicore/StructureDefinition/qicore-recorded","valueDateTime":"2024-01-02T00:00:00.000Z"}],"status":"completed","code":{"coding":[{"system":"http://www.ama-assn.org/go/cpt","code":"90700","display":"Diphtheria, tetanus toxoids, and acellular pertussis vaccine (DTaP), when administered to individuals younger than 7 years, for intramuscular use"}]},"subject":{"reference":"Patient/1e7dc519-5d75-4c07-b23f-ae9421a12943"},"performedPeriod":{"start":"2024-01-02T00:00:00.000Z","end":"2024-01-02T23:59:59.000Z"}},"request":{"method":"PUT","url":"Procedure/f589c335-cf24-435c-8f99-a69492436529"}},{"fullUrl":"https://madie.cms.gov/Immunization/Immunization-2a","resource":{"resourceType":"Immunization","id":"74e087b5-0a99-47d8-85e9-0589d896aabf","meta":{"profile":["http://hl7.org/fhir/us/qicore/StructureDefinition/qicore-immunization"]},"status":"completed","vaccineCode":{"coding":[{"system":"http://hl7.org/fhir/sid/cvx","code":"146","display":"\tDiphtheria and Tetanus Toxoids and Acellular Pertussis Adsorbed, Inactivated Poliovirus, Haemophilus b Conjugate (Meningococcal Protein Conjugate), and Hepatitis B (Recombinant) Vaccine."}]},"patient":{"reference":"Patient/1e7dc519-5d75-4c07-b23f-ae9421a12943"},"occurrenceDateTime":"2024-01-02T00:00:00.000Z","recorded":"2024-01-02T00:00:00.000Z","primarySource":true},"request":{"method":"PUT","url":"Immunization/74e087b5-0a99-47d8-85e9-0589d896aabf"}},{"fullUrl":"https://madie.cms.gov/Immunization/Immunization-2b","resource":{"resourceType":"Immunization","id":"c287275d-19b0-4702-8fe1-57f1fe9e6bba","meta":{"profile":["http://hl7.org/fhir/us/qicore/StructureDefinition/qicore-immunization"]},"status":"completed","vaccineCode":{"coding":[{"system":"http://hl7.org/fhir/sid/cvx","code":"146","display":"\tDiphtheria and Tetanus Toxoids and Acellular Pertussis Adsorbed, Inactivated Poliovirus, Haemophilus b Conjugate (Meningococcal Protein Conjugate), and Hepatitis B (Recombinant) Vaccine."}]},"patient":{"reference":"Patient/1e7dc519-5d75-4c07-b23f-ae9421a12943"},"occurrenceDateTime":"2024-01-06T00:00:00.000Z","recorded":"2024-01-02T00:00:00.000Z","primarySource":true},"request":{"method":"PUT","url":"Immunization/c287275d-19b0-4702-8fe1-57f1fe9e6bba"}},{"fullUrl":"https://madie.cms.gov/Procedure/Procedure-2c","resource":{"resourceType":"Procedure","id":"f202236e-b794-4646-a9c1-1c9cf2def2bc","meta":{"profile":["http://hl7.org/fhir/us/qicore/StructureDefinition/qicore-procedure"]},"extension":[{"url":"http://hl7.org/fhir/us/qicore/StructureDefinition/qicore-recorded","valueDateTime":"2024-01-02T00:00:00.000Z"}],"status":"completed","code":{"coding":[{"system":"http://www.ama-assn.org/go/cpt","code":"90713","display":"Poliovirus vaccine, inactivated (IPV), for subcutaneous or intramuscular use"}]},"subject":{"reference":"Patient/1e7dc519-5d75-4c07-b23f-ae9421a12943"},"performedPeriod":{"start":"2024-01-02T00:00:00.000Z","end":"2024-01-02T23:59:59.000Z"}},"request":{"method":"PUT","url":"Procedure/f202236e-b794-4646-a9c1-1c9cf2def2bc"}},{"fullUrl":"https://madie.cms.gov/Procedure/Procedure-3","resource":{"resourceType":"Procedure","id":"4d8281f1-632b-4af3-b1da-ad367d3819e3","meta":{"profile":["http://hl7.org/fhir/us/qicore/StructureDefinition/qicore-procedure"]},"extension":[{"url":"http://hl7.org/fhir/us/qicore/StructureDefinition/qicore-recorded","valueDateTime":"2024-01-02T00:00:00.000Z"}],"status":"completed","code":{"coding":[{"system":"http://www.ama-assn.org/go/cpt","code":"90710","display":"Measles, mumps, rubella, and varicella vaccine (MMRV), live, for subcutaneous use"}]},"subject":{"reference":"Patient/1e7dc519-5d75-4c07-b23f-ae9421a12943"},"performedPeriod":{"start":"2024-01-02T00:00:00.000Z","end":"2024-01-02T23:59:59.000Z"}},"request":{"method":"PUT","url":"Procedure/4d8281f1-632b-4af3-b1da-ad367d3819e3"}},{"fullUrl":"https://madie.cms.gov/Immunization/Immunization-4a","resource":{"resourceType":"Immunization","id":"f3a97047-988a-4982-b0d1-225f3caa5ad7","meta":{"profile":["http://hl7.org/fhir/us/qicore/StructureDefinition/qicore-immunization"]},"status":"completed","vaccineCode":{"coding":[{"system":"http://hl7.org/fhir/sid/cvx","code":"49","display":"Haemophilus influenzae type b vaccine, PRP-OMP conjugate"}]},"patient":{"reference":"Patient/1e7dc519-5d75-4c07-b23f-ae9421a12943"},"occurrenceDateTime":"2024-01-02T00:00:00.000Z","recorded":"2024-01-02T00:00:00.000Z","primarySource":true},"request":{"method":"PUT","url":"Immunization/f3a97047-988a-4982-b0d1-225f3caa5ad7"}},{"fullUrl":"https://madie.cms.gov/Immunization/Immunization-4b","resource":{"resourceType":"Immunization","id":"ac3b47c0-5374-4c72-bbab-89f09b4469de","meta":{"profile":["http://hl7.org/fhir/us/qicore/StructureDefinition/qicore-immunization"]},"status":"completed","vaccineCode":{"coding":[{"system":"http://hl7.org/fhir/sid/cvx","code":"49","display":"Haemophilus influenzae type b vaccine, PRP-OMP conjugate"}]},"patient":{"reference":"Patient/1e7dc519-5d75-4c07-b23f-ae9421a12943"},"occurrenceDateTime":"2024-01-02T00:00:00.000Z","recorded":"2024-01-02T00:00:00.000Z","primarySource":true},"request":{"method":"PUT","url":"Immunization/ac3b47c0-5374-4c72-bbab-89f09b4469de"}},{"fullUrl":"https://madie.cms.gov/Procedure/Procedure-4c","resource":{"resourceType":"Procedure","id":"c6118113-2524-4e1c-be5e-b59df103065b","meta":{"profile":["http://hl7.org/fhir/us/qicore/StructureDefinition/qicore-procedure"]},"extension":[{"url":"http://hl7.org/fhir/us/qicore/StructureDefinition/qicore-recorded","valueDateTime":"2024-01-02T00:00:00.000Z"}],"status":"completed","code":{"coding":[{"system":"http://www.ama-assn.org/go/cpt","code":"90697","display":"Diphtheria, tetanus toxoids, acellular pertussis vaccine, inactivated poliovirus vaccine, Haemophilus influenzae type b PRP-OMP conjugate vaccine, and hepatitis B vaccine (DTaP-IPV-Hib-HepB), for intramuscular use"}]},"subject":{"reference":"Patient/1e7dc519-5d75-4c07-b23f-ae9421a12943"},"performedPeriod":{"start":"2024-01-02T00:00:00.000Z","end":"2024-01-02T23:59:59.000Z"}},"request":{"method":"PUT","url":"Procedure/c6118113-2524-4e1c-be5e-b59df103065b"}},{"fullUrl":"https://madie.cms.gov/Immunization/Immunization-5a","resource":{"resourceType":"Immunization","id":"f94bbc1a-f15b-4582-8506-688d4ff56ad5","meta":{"profile":["http://hl7.org/fhir/us/qicore/StructureDefinition/qicore-immunization"]},"status":"completed","vaccineCode":{"coding":[{"system":"http://hl7.org/fhir/sid/cvx","code":"51","display":"Haemophilus influenzae type b conjugate and Hepatitis B vaccine"}]},"patient":{"reference":"Patient/1e7dc519-5d75-4c07-b23f-ae9421a12943"},"occurrenceDateTime":"2024-01-02T00:00:00.000Z","recorded":"2024-01-02T00:00:00.000Z","primarySource":true},"request":{"method":"PUT","url":"Immunization/f94bbc1a-f15b-4582-8506-688d4ff56ad5"}},{"fullUrl":"https://madie.cms.gov/Immunization/Immunization-5b","resource":{"resourceType":"Immunization","id":"74e691de-7a9f-4617-a8f4-569781c27bd7","meta":{"profile":["http://hl7.org/fhir/us/qicore/StructureDefinition/qicore-immunization"]},"status":"completed","vaccineCode":{"coding":[{"system":"http://hl7.org/fhir/sid/cvx","code":"51","display":"Haemophilus influenzae type b conjugate and Hepatitis B vaccine"}]},"patient":{"reference":"Patient/1e7dc519-5d75-4c07-b23f-ae9421a12943"},"occurrenceDateTime":"2024-01-10T00:00:00.000Z","recorded":"2024-01-02T00:00:00.000Z","primarySource":true},"request":{"method":"PUT","url":"Immunization/74e691de-7a9f-4617-a8f4-569781c27bd7"}},{"fullUrl":"https://madie.cms.gov/Procedure/Procedure-5c","resource":{"resourceType":"Procedure","id":"d9c83152-b984-4d27-b048-09026d31c55c","meta":{"profile":["http://hl7.org/fhir/us/qicore/StructureDefinition/qicore-procedure"]},"extension":[{"url":"http://hl7.org/fhir/us/qicore/StructureDefinition/qicore-recorded","valueDateTime":"2024-01-02T00:00:00.000Z"}],"status":"completed","code":{"coding":[{"system":"http://www.ama-assn.org/go/cpt","code":"90740","display":"Hepatitis B vaccine (HepB), dialysis or immunosuppressed patient dosage, 3 dose schedule, for intramuscular use"}]},"subject":{"reference":"Patient/1e7dc519-5d75-4c07-b23f-ae9421a12943"},"performedPeriod":{"start":"2024-01-02T00:00:00.000Z","end":"2024-01-02T23:59:59.000Z"}},"request":{"method":"PUT","url":"Procedure/d9c83152-b984-4d27-b048-09026d31c55c"}},{"fullUrl":"https://madie.cms.gov/Immunization/Immunization-6","resource":{"resourceType":"Immunization","id":"5f4ed77a-e516-42a6-a308-08de584a333a","meta":{"profile":["http://hl7.org/fhir/us/qicore/StructureDefinition/qicore-immunization"]},"status":"completed","vaccineCode":{"coding":[{"system":"http://hl7.org/fhir/sid/cvx","code":"94","display":"measles, mumps, rubella, and varicella virus vaccine"}]},"patient":{"reference":"Patient/1e7dc519-5d75-4c07-b23f-ae9421a12943"},"occurrenceDateTime":"2024-01-02T00:00:00.000Z","recorded":"2024-01-02T00:00:00.000Z","primarySource":true},"request":{"method":"PUT","url":"Immunization/5f4ed77a-e516-42a6-a308-08de584a333a"}},{"fullUrl":"https://madie.cms.gov/Immunization/Immunization-7a","resource":{"resourceType":"Immunization","id":"e81d42bb-7f1e-4f9f-8dc0-91857ba3b162","meta":{"profile":["http://hl7.org/fhir/us/qicore/StructureDefinition/qicore-immunization"]},"status":"completed","vaccineCode":{"coding":[{"system":"http://hl7.org/fhir/sid/cvx","code":"215","display":"Pneumococcal conjugate vaccine 15-valent (PCV15), polysaccharide CRM197 conjugate, adjuvant, preservative free"}]},"patient":{"reference":"Patient/1e7dc519-5d75-4c07-b23f-ae9421a12943"},"occurrenceDateTime":"2024-01-12T00:00:00.000Z","recorded":"2024-01-02T00:00:00.000Z","primarySource":true},"request":{"method":"PUT","url":"Immunization/e81d42bb-7f1e-4f9f-8dc0-91857ba3b162"}},{"fullUrl":"https://madie.cms.gov/Immunization/Immunization-7b","resource":{"resourceType":"Immunization","id":"07b771b4-9179-418b-afd6-bec8a00edf51","meta":{"profile":["http://hl7.org/fhir/us/qicore/StructureDefinition/qicore-immunization"]},"status":"completed","vaccineCode":{"coding":[{"system":"http://hl7.org/fhir/sid/cvx","code":"215","display":"Pneumococcal conjugate vaccine 15-valent (PCV15), polysaccharide CRM197 conjugate, adjuvant, preservative free"}]},"patient":{"reference":"Patient/1e7dc519-5d75-4c07-b23f-ae9421a12943"},"occurrenceDateTime":"2024-01-14T00:00:00.000Z","recorded":"2024-01-02T00:00:00.000Z","primarySource":true},"request":{"method":"PUT","url":"Immunization/07b771b4-9179-418b-afd6-bec8a00edf51"}},{"fullUrl":"https://madie.cms.gov/Immunization/Immunization-7c","resource":{"resourceType":"Immunization","id":"9f59cd37-52ee-4a09-a070-b318025167cf","meta":{"profile":["http://hl7.org/fhir/us/qicore/StructureDefinition/qicore-immunization"]},"status":"completed","vaccineCode":{"coding":[{"system":"http://hl7.org/fhir/sid/cvx","code":"215","display":"Pneumococcal conjugate vaccine 15-valent (PCV15), polysaccharide CRM197 conjugate, adjuvant, preservative free"}]},"patient":{"reference":"Patient/1e7dc519-5d75-4c07-b23f-ae9421a12943"},"occurrenceDateTime":"2024-01-20T00:00:00.000Z","recorded":"2024-01-02T00:00:00.000Z","primarySource":true},"request":{"method":"PUT","url":"Immunization/9f59cd37-52ee-4a09-a070-b318025167cf"}},{"fullUrl":"https://madie.cms.gov/Procedure/Procedure-7d","resource":{"resourceType":"Procedure","id":"64bbf843-2695-4588-b3d2-ba1939c98b29","meta":{"profile":["http://hl7.org/fhir/us/qicore/StructureDefinition/qicore-procedure"]},"extension":[{"url":"http://hl7.org/fhir/us/qicore/StructureDefinition/qicore-recorded","valueDateTime":"2024-01-02T00:00:00.000Z"}],"status":"completed","code":{"coding":[{"system":"http://www.ama-assn.org/go/cpt","code":"90670","display":"Pneumococcal conjugate vaccine, 13 valent (PCV13), for intramuscular use"}]},"subject":{"reference":"Patient/1e7dc519-5d75-4c07-b23f-ae9421a12943"},"performedPeriod":{"start":"2024-01-02T00:00:00.000Z","end":"2024-01-02T23:59:59.000Z"}},"request":{"method":"PUT","url":"Procedure/64bbf843-2695-4588-b3d2-ba1939c98b29"}},{"fullUrl":"https://madie.cms.gov/Procedure/Procedure-8","resource":{"resourceType":"Procedure","id":"ef5bcf70-9337-4bb1-aba3-30864cfc688c","meta":{"profile":["http://hl7.org/fhir/us/qicore/StructureDefinition/qicore-procedure"]},"extension":[{"url":"http://hl7.org/fhir/us/qicore/StructureDefinition/qicore-recorded","valueDateTime":"2024-01-02T00:00:00.000Z"}],"status":"completed","code":{"coding":[{"system":"http://www.ama-assn.org/go/cpt","code":"90633","display":"Hepatitis A vaccine (HepA), pediatric/adolescent dosage-2 dose schedule, for intramuscular use"}]},"subject":{"reference":"Patient/1e7dc519-5d75-4c07-b23f-ae9421a12943"},"performedPeriod":{"start":"2024-01-02T00:00:00.000Z","end":"2024-01-02T23:59:59.000Z"}},"request":{"method":"PUT","url":"Procedure/ef5bcf70-9337-4bb1-aba3-30864cfc688c"}},{"fullUrl":"https://madie.cms.gov/Immunization/Immunization-9a","resource":{"resourceType":"Immunization","id":"e6bf4a95-c92b-4f44-a943-77dfe5378089","meta":{"profile":["http://hl7.org/fhir/us/qicore/StructureDefinition/qicore-immunization"]},"status":"completed","vaccineCode":{"coding":[{"system":"http://hl7.org/fhir/sid/cvx","code":"119","display":"rotavirus, live, monovalent vaccine"}]},"patient":{"reference":"Patient/1e7dc519-5d75-4c07-b23f-ae9421a12943"},"occurrenceDateTime":"2024-01-02T00:00:00.000Z","recorded":"2024-01-02T00:00:00.000Z","primarySource":true},"request":{"method":"PUT","url":"Immunization/e6bf4a95-c92b-4f44-a943-77dfe5378089"}},{"fullUrl":"https://madie.cms.gov/Procedure/Procedure-9b","resource":{"resourceType":"Procedure","id":"c60bee95-6737-4fa7-a71f-2a1e929ae51c","meta":{"profile":["http://hl7.org/fhir/us/qicore/StructureDefinition/qicore-procedure"]},"extension":[{"url":"http://hl7.org/fhir/us/qicore/StructureDefinition/qicore-recorded","valueDateTime":"2024-01-02T00:00:00.000Z"}],"status":"completed","code":{"coding":[{"system":"http://www.ama-assn.org/go/cpt","code":"90681","display":"Rotavirus vaccine, human, attenuated (RV1), 2 dose schedule, live, for oral use"}]},"subject":{"reference":"Patient/1e7dc519-5d75-4c07-b23f-ae9421a12943"},"performedPeriod":{"start":"2024-01-07T00:00:00.000Z","end":"2024-01-07T23:59:59.000Z"}},"request":{"method":"PUT","url":"Procedure/c60bee95-6737-4fa7-a71f-2a1e929ae51c"}},{"fullUrl":"https://madie.cms.gov/Immunization/Immunization-10a","resource":{"resourceType":"Immunization","id":"07ca5c29-f467-47df-940e-2c736257267e","meta":{"profile":["http://hl7.org/fhir/us/qicore/StructureDefinition/qicore-immunization"]},"status":"completed","vaccineCode":{"coding":[{"system":"http://hl7.org/fhir/sid/cvx","code":"153","display":"\tInfluenza, injectable, Madin Darby Canine Kidney, preservative free"}]},"patient":{"reference":"Patient/1e7dc519-5d75-4c07-b23f-ae9421a12943"},"occurrenceDateTime":"2024-01-02T00:00:00.000Z","recorded":"2024-01-02T00:00:00.000Z","primarySource":true},"request":{"method":"PUT","url":"Immunization/07ca5c29-f467-47df-940e-2c736257267e"}},{"fullUrl":"https://madie.cms.gov/Procedure/Procedure-10b","resource":{"resourceType":"Procedure","id":"1dbe5f8a-72f3-4225-8e59-18b3e026e393","meta":{"profile":["http://hl7.org/fhir/us/qicore/StructureDefinition/qicore-procedure"]},"extension":[{"url":"http://hl7.org/fhir/us/qicore/StructureDefinition/qicore-recorded","valueDateTime":"2024-01-10T00:00:00.000Z"}],"status":"completed","code":{"coding":[{"system":"http://www.ama-assn.org/go/cpt","code":"90689","display":"Influenza virus vaccine, quadrivalent (IIV4), inactivated, adjuvanted, preservative free, 0.25 mL dosage, for intramuscular use"}]},"subject":{"reference":"Patient/1e7dc519-5d75-4c07-b23f-ae9421a12943"},"performedPeriod":{"start":"2024-01-10T00:00:00.000Z","end":"2024-01-10T23:59:59.000Z"}},"request":{"method":"PUT","url":"Procedure/1dbe5f8a-72f3-4225-8e59-18b3e026e393"}},{"fullUrl":"https://madie.cms.gov/MeasureReport/10989c2d-73c0-4e5f-8973-47a73f50ff72","resource":{"resourceType":"MeasureReport","id":"10989c2d-73c0-4e5f-8973-47a73f50ff72","meta":{"profile":["http://hl7.org/fhir/us/cqfmeasures/StructureDefinition/test-case-cqfm"]},"contained":[{"resourceType":"Parameters","id":"5d466efd-4349-4d9a-b6a6-1a749a05435d-parameters","parameter":[{"name":"subject","valueString":"1e7dc519-5d75-4c07-b23f-ae9421a12943"}]}],"extension":[{"url":"http://hl7.org/fhir/us/cqfmeasures/StructureDefinition/cqfm-inputParameters","valueReference":{"reference":"#5d466efd-4349-4d9a-b6a6-1a749a05435d-parameters"}},{"url":"http://hl7.org/fhir/us/cqfmeasures/StructureDefinition/cqfm-testCaseDescription","valueMarkdown":"All vaccines met - procedures"}],"modifierExtension":[{"url":"http://hl7.org/fhir/us/cqfmeasures/StructureDefinition/cqfm-isTestCase","valueBoolean":true}],"status":"complete","type":"individual","measure":"https://madie.cms.gov/Measure/ChildhoodImmunizationStatusFHIR","period":{"start":"2025-01-01","end":"2025-12-31"},"group":[{"population":[{"code":{"coding":[{"system":"http://terminology.hl7.org/CodeSystem/measure-population","code":"initial-population","display":"Initial Population"}]},"count":1},{"code":{"coding":[{"system":"http://terminology.hl7.org/CodeSystem/measure-population","code":"denominator","display":"Denominator"}]},"count":1},{"code":{"coding":[{"system":"http://terminology.hl7.org/CodeSystem/measure-population","code":"denominator-exclusion","display":"Denominator Exclusion"}]},"count":0},{"code":{"coding":[{"system":"http://terminology.hl7.org/CodeSystem/measure-population","code":"numerator","display":"Numerator"}]},"count":1}]}]},"request":{"method":"PUT","url":"MeasureReport/10989c2d-73c0-4e5f-8973-47a73f50ff72"}}]}