{"resourceType":"Bundle","id":"tests-bee704a0-f498-4a44-b223-edae5b432204-bundle","type":"transaction","entry":[{"fullUrl":"https://madie.cms.gov/Patient/bee704a0-f498-4a44-b223-edae5b432204","resource":{"resourceType":"Patient","id":"bee704a0-f498-4a44-b223-edae5b432204","meta":{"profile":["http://hl7.org/fhir/us/qicore/StructureDefinition/qicore-patient"]},"extension":[{"url":"http://hl7.org/fhir/us/core/StructureDefinition/us-core-race","extension":[{"url":"ombCategory","valueCoding":{"system":"urn:oid:2.16.840.1.113883.6.238","code":"2028-9","display":"Asian"}},{"url":"text","valueString":"Asian"}]},{"url":"http://hl7.org/fhir/us/core/StructureDefinition/us-core-ethnicity","extension":[{"url":"ombCategory","valueCoding":{"system":"urn:oid:2.16.840.1.113883.6.238","code":"2135-2","display":"Hispanic or Latino"}},{"url":"text","valueString":"Hispanic or Latino"}]}],"identifier":[{"system":"http://hospital.smarthealthit.org","value":"999999995"}],"name":[{"family":"Bertha","given":["Betty"]}],"gender":"female","birthDate":"2023-01-01"},"request":{"method":"PUT","url":"Patient/bee704a0-f498-4a44-b223-edae5b432204"}},{"fullUrl":"https://madie.cms.gov/Encounter/Encounter-1","resource":{"resourceType":"Encounter","id":"ba7e3726-d9ff-4f92-a80c-c28deb71007d","meta":{"profile":["http://hl7.org/fhir/us/qicore/StructureDefinition/qicore-encounter"]},"status":"finished","class":{"system":"http://terminology.hl7.org/CodeSystem/v3-ActCode","code":"AMB","display":"ambulatory"},"type":[{"coding":[{"system":"http://snomed.info/sct","code":"185317003","display":"Telephone encounter (procedure)"}]}],"subject":{"reference":"Patient/bee704a0-f498-4a44-b223-edae5b432204"},"period":{"start":"2025-01-01T01:00:00.000Z","end":"2025-01-01T01:15:00.000Z"}},"request":{"method":"PUT","url":"Encounter/ba7e3726-d9ff-4f92-a80c-c28deb71007d"}},{"fullUrl":"https://madie.cms.gov/Condition/Condition-1","resource":{"resourceType":"Condition","id":"17485629-7f9c-4114-8a61-a551e734b4ce","meta":{"profile":["http://hl7.org/fhir/us/qicore/StructureDefinition/qicore-condition"]},"clinicalStatus":{"coding":[{"system":"http://terminology.hl7.org/CodeSystem/condition-clinical","code":"active"}]},"category":[{"coding":[{"system":"http://terminology.hl7.org/CodeSystem/condition-category","code":"problem-list-item","display":"Problem List Item"}]}],"code":{"coding":[{"system":"http://snomed.info/sct","code":"64976006","display":"Cecocolic intussusception (disorder)"}]},"subject":{"reference":"Patient/bee704a0-f498-4a44-b223-edae5b432204"},"onsetDateTime":"2024-01-02T00:00:00.000Z"},"request":{"method":"PUT","url":"Condition/17485629-7f9c-4114-8a61-a551e734b4ce"}},{"fullUrl":"https://madie.cms.gov/Immunization/Immunization-1a","resource":{"resourceType":"Immunization","id":"9e8d6dd3-9540-4c85-af4a-4ea1b6fa5f64","meta":{"profile":["http://hl7.org/fhir/us/qicore/StructureDefinition/qicore-immunization"]},"status":"completed","vaccineCode":{"coding":[{"system":"http://hl7.org/fhir/sid/cvx","code":"146","display":"Diphtheria and Tetanus Toxoids and Acellular Pertussis Adsorbed, Inactivated Poliovirus, Haemophilus b Conjugate (Meningococcal Protein Conjugate), and Hepatitis B (Recombinant) Vaccine."}]},"patient":{"reference":"Patient/bee704a0-f498-4a44-b223-edae5b432204"},"occurrenceDateTime":"2024-01-02T00:00:00.000Z","recorded":"2024-01-02T00:00:00.000Z","primarySource":true},"request":{"method":"PUT","url":"Immunization/9e8d6dd3-9540-4c85-af4a-4ea1b6fa5f64"}},{"fullUrl":"https://madie.cms.gov/Immunization/Immunization-1b","resource":{"resourceType":"Immunization","id":"ec8ce419-8359-401d-9aed-8ad1bbe79ce8","meta":{"profile":["http://hl7.org/fhir/us/qicore/StructureDefinition/qicore-immunization"]},"status":"completed","vaccineCode":{"coding":[{"system":"http://hl7.org/fhir/sid/cvx","code":"146","display":"Diphtheria and Tetanus Toxoids and Acellular Pertussis Adsorbed, Inactivated Poliovirus, Haemophilus b Conjugate (Meningococcal Protein Conjugate), and Hepatitis B (Recombinant) Vaccine."}]},"patient":{"reference":"Patient/bee704a0-f498-4a44-b223-edae5b432204"},"occurrenceDateTime":"2024-01-05T00:00:00.000Z","recorded":"2024-01-02T00:00:00.000Z","primarySource":true},"request":{"method":"PUT","url":"Immunization/ec8ce419-8359-401d-9aed-8ad1bbe79ce8"}},{"fullUrl":"https://madie.cms.gov/Immunization/Immunization-1c","resource":{"resourceType":"Immunization","id":"ca99d8a6-93b3-46ca-8891-e8e81d1b168a","meta":{"profile":["http://hl7.org/fhir/us/qicore/StructureDefinition/qicore-immunization"]},"status":"completed","vaccineCode":{"coding":[{"system":"http://hl7.org/fhir/sid/cvx","code":"146","display":"Diphtheria and Tetanus Toxoids and Acellular Pertussis Adsorbed, Inactivated Poliovirus, Haemophilus b Conjugate (Meningococcal Protein Conjugate), and Hepatitis B (Recombinant) Vaccine."}]},"patient":{"reference":"Patient/bee704a0-f498-4a44-b223-edae5b432204"},"occurrenceDateTime":"2024-01-07T00:00:00.000Z","recorded":"2024-01-02T00:00:00.000Z","primarySource":true},"request":{"method":"PUT","url":"Immunization/ca99d8a6-93b3-46ca-8891-e8e81d1b168a"}},{"fullUrl":"https://madie.cms.gov/Immunization/Immunization-1d","resource":{"resourceType":"Immunization","id":"95a79254-e9c4-41bb-b14b-1263b3d2c49f","meta":{"profile":["http://hl7.org/fhir/us/qicore/StructureDefinition/qicore-immunization"]},"status":"completed","vaccineCode":{"coding":[{"system":"http://hl7.org/fhir/sid/cvx","code":"146","display":"Diphtheria and Tetanus Toxoids and Acellular Pertussis Adsorbed, Inactivated Poliovirus, Haemophilus b Conjugate (Meningococcal Protein Conjugate), and Hepatitis B (Recombinant) Vaccine."}]},"patient":{"reference":"Patient/bee704a0-f498-4a44-b223-edae5b432204"},"occurrenceDateTime":"2024-01-10T00:00:00.000Z","recorded":"2024-01-02T00:00:00.000Z","primarySource":true},"request":{"method":"PUT","url":"Immunization/95a79254-e9c4-41bb-b14b-1263b3d2c49f"}},{"fullUrl":"https://madie.cms.gov/Immunization/Immunization-2a","resource":{"resourceType":"Immunization","id":"b0d72e5d-df12-44dd-8c73-dd05fd5dc087","meta":{"profile":["http://hl7.org/fhir/us/qicore/StructureDefinition/qicore-immunization"]},"status":"completed","vaccineCode":{"coding":[{"system":"http://hl7.org/fhir/sid/cvx","code":"146","display":"\tDiphtheria and Tetanus Toxoids and Acellular Pertussis Adsorbed, Inactivated Poliovirus, Haemophilus b Conjugate (Meningococcal Protein Conjugate), and Hepatitis B (Recombinant) Vaccine."}]},"patient":{"reference":"Patient/bee704a0-f498-4a44-b223-edae5b432204"},"occurrenceDateTime":"2024-01-02T00:00:00.000Z","recorded":"2024-01-02T00:00:00.000Z","primarySource":true},"request":{"method":"PUT","url":"Immunization/b0d72e5d-df12-44dd-8c73-dd05fd5dc087"}},{"fullUrl":"https://madie.cms.gov/Immunization/Immunization-2b","resource":{"resourceType":"Immunization","id":"1eac64d8-0664-4e20-aa7c-2e0b48577b4b","meta":{"profile":["http://hl7.org/fhir/us/qicore/StructureDefinition/qicore-immunization"]},"status":"completed","vaccineCode":{"coding":[{"system":"http://hl7.org/fhir/sid/cvx","code":"146","display":"\tDiphtheria and Tetanus Toxoids and Acellular Pertussis Adsorbed, Inactivated Poliovirus, Haemophilus b Conjugate (Meningococcal Protein Conjugate), and Hepatitis B (Recombinant) Vaccine."}]},"patient":{"reference":"Patient/bee704a0-f498-4a44-b223-edae5b432204"},"occurrenceDateTime":"2024-01-06T00:00:00.000Z","recorded":"2024-01-02T00:00:00.000Z","primarySource":true},"request":{"method":"PUT","url":"Immunization/1eac64d8-0664-4e20-aa7c-2e0b48577b4b"}},{"fullUrl":"https://madie.cms.gov/Immunization/Immunization-2c","resource":{"resourceType":"Immunization","id":"24458496-cdf4-4f7c-ad08-66659afb4558","meta":{"profile":["http://hl7.org/fhir/us/qicore/StructureDefinition/qicore-immunization"]},"status":"completed","vaccineCode":{"coding":[{"system":"http://hl7.org/fhir/sid/cvx","code":"146","display":"\tDiphtheria and Tetanus Toxoids and Acellular Pertussis Adsorbed, Inactivated Poliovirus, Haemophilus b Conjugate (Meningococcal Protein Conjugate), and Hepatitis B (Recombinant) Vaccine."}]},"patient":{"reference":"Patient/bee704a0-f498-4a44-b223-edae5b432204"},"occurrenceDateTime":"2024-01-09T00:00:00.000Z","recorded":"2024-01-02T00:00:00.000Z","primarySource":true},"request":{"method":"PUT","url":"Immunization/24458496-cdf4-4f7c-ad08-66659afb4558"}},{"fullUrl":"https://madie.cms.gov/Immunization/Immunization-3","resource":{"resourceType":"Immunization","id":"31304a59-bc75-4ab1-92d7-235c4ad8db60","meta":{"profile":["http://hl7.org/fhir/us/qicore/StructureDefinition/qicore-immunization"]},"status":"completed","vaccineCode":{"coding":[{"system":"http://hl7.org/fhir/sid/cvx","code":"94","display":"measles, mumps, rubella, and varicella virus vaccine"}]},"patient":{"reference":"Patient/bee704a0-f498-4a44-b223-edae5b432204"},"occurrenceDateTime":"2024-01-02T00:00:00.000Z","recorded":"2024-01-02T00:00:00.000Z","primarySource":true},"request":{"method":"PUT","url":"Immunization/31304a59-bc75-4ab1-92d7-235c4ad8db60"}},{"fullUrl":"https://madie.cms.gov/Immunization/Immunization-4a","resource":{"resourceType":"Immunization","id":"2abdf94c-5c3f-4bb5-bad4-d896c481daad","meta":{"profile":["http://hl7.org/fhir/us/qicore/StructureDefinition/qicore-immunization"]},"status":"completed","vaccineCode":{"coding":[{"system":"http://hl7.org/fhir/sid/cvx","code":"49","display":"Haemophilus influenzae type b vaccine, PRP-OMP conjugate"}]},"patient":{"reference":"Patient/bee704a0-f498-4a44-b223-edae5b432204"},"occurrenceDateTime":"2024-01-02T00:00:00.000Z","recorded":"2024-01-02T00:00:00.000Z","primarySource":true},"request":{"method":"PUT","url":"Immunization/2abdf94c-5c3f-4bb5-bad4-d896c481daad"}},{"fullUrl":"https://madie.cms.gov/Immunization/Immunization-4b","resource":{"resourceType":"Immunization","id":"00163983-ff7c-4684-9afe-5b06a36e3125","meta":{"profile":["http://hl7.org/fhir/us/qicore/StructureDefinition/qicore-immunization"]},"status":"completed","vaccineCode":{"coding":[{"system":"http://hl7.org/fhir/sid/cvx","code":"49","display":"Haemophilus influenzae type b vaccine, PRP-OMP conjugate"}]},"patient":{"reference":"Patient/bee704a0-f498-4a44-b223-edae5b432204"},"occurrenceDateTime":"2024-01-02T00:00:00.000Z","recorded":"2024-01-02T00:00:00.000Z","primarySource":true},"request":{"method":"PUT","url":"Immunization/00163983-ff7c-4684-9afe-5b06a36e3125"}},{"fullUrl":"https://madie.cms.gov/Immunization/Immunization-4c","resource":{"resourceType":"Immunization","id":"f21bc141-69e2-40c6-b806-df44cf8d7e86","meta":{"profile":["http://hl7.org/fhir/us/qicore/StructureDefinition/qicore-immunization"]},"status":"completed","vaccineCode":{"coding":[{"system":"http://hl7.org/fhir/sid/cvx","code":"49","display":"Haemophilus influenzae type b vaccine, PRP-OMP conjugate"}]},"patient":{"reference":"Patient/bee704a0-f498-4a44-b223-edae5b432204"},"occurrenceDateTime":"2024-01-02T00:00:00.000Z","recorded":"2024-01-02T00:00:00.000Z","primarySource":true},"request":{"method":"PUT","url":"Immunization/f21bc141-69e2-40c6-b806-df44cf8d7e86"}},{"fullUrl":"https://madie.cms.gov/Immunization/Immunization-5a","resource":{"resourceType":"Immunization","id":"74dc5c1a-4063-47c8-aba4-329e774d4785","meta":{"profile":["http://hl7.org/fhir/us/qicore/StructureDefinition/qicore-immunization"]},"status":"completed","vaccineCode":{"coding":[{"system":"http://hl7.org/fhir/sid/cvx","code":"51","display":"Haemophilus influenzae type b conjugate and Hepatitis B vaccine"}]},"patient":{"reference":"Patient/bee704a0-f498-4a44-b223-edae5b432204"},"occurrenceDateTime":"2024-01-02T00:00:00.000Z","recorded":"2024-01-02T00:00:00.000Z","primarySource":true},"request":{"method":"PUT","url":"Immunization/74dc5c1a-4063-47c8-aba4-329e774d4785"}},{"fullUrl":"https://madie.cms.gov/Immunization/Immunization-5b","resource":{"resourceType":"Immunization","id":"73787fc6-390a-4971-97df-2f4ca921f573","meta":{"profile":["http://hl7.org/fhir/us/qicore/StructureDefinition/qicore-immunization"]},"status":"completed","vaccineCode":{"coding":[{"system":"http://hl7.org/fhir/sid/cvx","code":"51","display":"Haemophilus influenzae type b conjugate and Hepatitis B vaccine"}]},"patient":{"reference":"Patient/bee704a0-f498-4a44-b223-edae5b432204"},"occurrenceDateTime":"2024-01-10T00:00:00.000Z","recorded":"2024-01-02T00:00:00.000Z","primarySource":true},"request":{"method":"PUT","url":"Immunization/73787fc6-390a-4971-97df-2f4ca921f573"}},{"fullUrl":"https://madie.cms.gov/Immunization/Immunization-5c","resource":{"resourceType":"Immunization","id":"0963d00e-b865-4bce-9e5b-8978831b99fe","meta":{"profile":["http://hl7.org/fhir/us/qicore/StructureDefinition/qicore-immunization"]},"status":"completed","vaccineCode":{"coding":[{"system":"http://hl7.org/fhir/sid/cvx","code":"51","display":"Haemophilus influenzae type b conjugate and Hepatitis B vaccine"}]},"patient":{"reference":"Patient/bee704a0-f498-4a44-b223-edae5b432204"},"occurrenceDateTime":"2024-01-12T00:00:00.000Z","recorded":"2024-01-02T00:00:00.000Z","primarySource":true},"request":{"method":"PUT","url":"Immunization/0963d00e-b865-4bce-9e5b-8978831b99fe"}},{"fullUrl":"https://madie.cms.gov/Immunization/Immunization-6","resource":{"resourceType":"Immunization","id":"57ea9266-9f72-4c99-af2f-2c6a40b19825","meta":{"profile":["http://hl7.org/fhir/us/qicore/StructureDefinition/qicore-immunization"]},"status":"completed","vaccineCode":{"coding":[{"system":"http://hl7.org/fhir/sid/cvx","code":"94","display":"measles, mumps, rubella, and varicella virus vaccine"}]},"patient":{"reference":"Patient/bee704a0-f498-4a44-b223-edae5b432204"},"occurrenceDateTime":"2024-01-02T00:00:00.000Z","recorded":"2024-01-02T00:00:00.000Z","primarySource":true},"request":{"method":"PUT","url":"Immunization/57ea9266-9f72-4c99-af2f-2c6a40b19825"}},{"fullUrl":"https://madie.cms.gov/Immunization/Immunization-7a","resource":{"resourceType":"Immunization","id":"8c91f572-bbe6-4cba-a938-204a5752e427","meta":{"profile":["http://hl7.org/fhir/us/qicore/StructureDefinition/qicore-immunization"]},"status":"completed","vaccineCode":{"coding":[{"system":"http://hl7.org/fhir/sid/cvx","code":"215","display":"Pneumococcal conjugate vaccine 15-valent (PCV15), polysaccharide CRM197 conjugate, adjuvant, preservative free"}]},"patient":{"reference":"Patient/bee704a0-f498-4a44-b223-edae5b432204"},"occurrenceDateTime":"2024-01-12T00:00:00.000Z","recorded":"2024-01-02T00:00:00.000Z","primarySource":true},"request":{"method":"PUT","url":"Immunization/8c91f572-bbe6-4cba-a938-204a5752e427"}},{"fullUrl":"https://madie.cms.gov/Immunization/Immunization-7b","resource":{"resourceType":"Immunization","id":"960cdbf1-7a1c-4e94-af34-43c53c7a6d62","meta":{"profile":["http://hl7.org/fhir/us/qicore/StructureDefinition/qicore-immunization"]},"status":"completed","vaccineCode":{"coding":[{"system":"http://hl7.org/fhir/sid/cvx","code":"215","display":"Pneumococcal conjugate vaccine 15-valent (PCV15), polysaccharide CRM197 conjugate, adjuvant, preservative free"}]},"patient":{"reference":"Patient/bee704a0-f498-4a44-b223-edae5b432204"},"occurrenceDateTime":"2024-01-14T00:00:00.000Z","recorded":"2024-01-02T00:00:00.000Z","primarySource":true},"request":{"method":"PUT","url":"Immunization/960cdbf1-7a1c-4e94-af34-43c53c7a6d62"}},{"fullUrl":"https://madie.cms.gov/Immunization/Immunization-7c","resource":{"resourceType":"Immunization","id":"d488592d-1438-449f-a611-15406a605e66","meta":{"profile":["http://hl7.org/fhir/us/qicore/StructureDefinition/qicore-immunization"]},"status":"completed","vaccineCode":{"coding":[{"system":"http://hl7.org/fhir/sid/cvx","code":"215","display":"Pneumococcal conjugate vaccine 15-valent (PCV15), polysaccharide CRM197 conjugate, adjuvant, preservative free"}]},"patient":{"reference":"Patient/bee704a0-f498-4a44-b223-edae5b432204"},"occurrenceDateTime":"2024-01-20T00:00:00.000Z","recorded":"2024-01-02T00:00:00.000Z","primarySource":true},"request":{"method":"PUT","url":"Immunization/d488592d-1438-449f-a611-15406a605e66"}},{"fullUrl":"https://madie.cms.gov/Immunization/Immunization-7d","resource":{"resourceType":"Immunization","id":"589781db-b6bb-46a4-a1b8-e9287d8ebaf0","meta":{"profile":["http://hl7.org/fhir/us/qicore/StructureDefinition/qicore-immunization"]},"status":"completed","vaccineCode":{"coding":[{"system":"http://hl7.org/fhir/sid/cvx","code":"215","display":"Pneumococcal conjugate vaccine 15-valent (PCV15), polysaccharide CRM197 conjugate, adjuvant, preservative free"}]},"patient":{"reference":"Patient/bee704a0-f498-4a44-b223-edae5b432204"},"occurrenceDateTime":"2024-01-22T00:00:00.000Z","recorded":"2024-01-02T00:00:00.000Z","primarySource":true},"request":{"method":"PUT","url":"Immunization/589781db-b6bb-46a4-a1b8-e9287d8ebaf0"}},{"fullUrl":"https://madie.cms.gov/Immunization/Immunization-8","resource":{"resourceType":"Immunization","id":"3fc30418-827b-4e77-8a87-c8c87c9ce757","meta":{"profile":["http://hl7.org/fhir/us/qicore/StructureDefinition/qicore-immunization"]},"status":"completed","vaccineCode":{"coding":[{"system":"http://hl7.org/fhir/sid/cvx","code":"85","display":"hepatitis A vaccine, unspecified formulation"}]},"patient":{"reference":"Patient/bee704a0-f498-4a44-b223-edae5b432204"},"occurrenceDateTime":"2024-01-02T00:00:00.000Z","recorded":"2024-01-02T00:00:00.000Z","primarySource":true},"request":{"method":"PUT","url":"Immunization/3fc30418-827b-4e77-8a87-c8c87c9ce757"}},{"fullUrl":"https://madie.cms.gov/Immunization/Immunization-9a","resource":{"resourceType":"Immunization","id":"821a90b0-c464-44ff-80f5-31510a66d728","meta":{"profile":["http://hl7.org/fhir/us/qicore/StructureDefinition/qicore-immunization"]},"status":"completed","vaccineCode":{"coding":[{"system":"http://hl7.org/fhir/sid/cvx","code":"119","display":"rotavirus, live, monovalent vaccine"}]},"patient":{"reference":"Patient/bee704a0-f498-4a44-b223-edae5b432204"},"occurrenceDateTime":"2024-01-02T00:00:00.000Z","recorded":"2024-01-02T00:00:00.000Z","primarySource":true},"request":{"method":"PUT","url":"Immunization/821a90b0-c464-44ff-80f5-31510a66d728"}},{"fullUrl":"https://madie.cms.gov/Immunization/Immunization-9b","resource":{"resourceType":"Immunization","id":"aa7c6bb5-4adf-4545-b7f1-27a65374daf0","meta":{"profile":["http://hl7.org/fhir/us/qicore/StructureDefinition/qicore-immunization"]},"status":"completed","vaccineCode":{"coding":[{"system":"http://hl7.org/fhir/sid/cvx","code":"119","display":"rotavirus, live, monovalent vaccine"}]},"patient":{"reference":"Patient/bee704a0-f498-4a44-b223-edae5b432204"},"occurrenceDateTime":"2024-01-07T00:00:00.000Z","recorded":"2024-01-02T00:00:00.000Z","primarySource":true},"request":{"method":"PUT","url":"Immunization/aa7c6bb5-4adf-4545-b7f1-27a65374daf0"}},{"fullUrl":"https://madie.cms.gov/Immunization/Immunization-10a","resource":{"resourceType":"Immunization","id":"878e7148-6155-4009-bf41-5d89e7d14ef8","meta":{"profile":["http://hl7.org/fhir/us/qicore/StructureDefinition/qicore-immunization"]},"status":"completed","vaccineCode":{"coding":[{"system":"http://hl7.org/fhir/sid/cvx","code":"153","display":"\tInfluenza, injectable, Madin Darby Canine Kidney, preservative free"}]},"patient":{"reference":"Patient/bee704a0-f498-4a44-b223-edae5b432204"},"occurrenceDateTime":"2024-01-02T00:00:00.000Z","recorded":"2024-01-02T00:00:00.000Z","primarySource":true},"request":{"method":"PUT","url":"Immunization/878e7148-6155-4009-bf41-5d89e7d14ef8"}},{"fullUrl":"https://madie.cms.gov/Immunization/Immunization-10b","resource":{"resourceType":"Immunization","id":"6e0efd8c-4423-4a2a-b1e5-3e6ee79c81bb","meta":{"profile":["http://hl7.org/fhir/us/qicore/StructureDefinition/qicore-immunization"]},"status":"completed","vaccineCode":{"coding":[{"system":"http://hl7.org/fhir/sid/cvx","code":"153","display":"\tInfluenza, injectable, Madin Darby Canine Kidney, preservative free"}]},"patient":{"reference":"Patient/bee704a0-f498-4a44-b223-edae5b432204"},"occurrenceDateTime":"2024-01-10T00:00:00.000Z","recorded":"2024-01-02T00:00:00.000Z","primarySource":true},"request":{"method":"PUT","url":"Immunization/6e0efd8c-4423-4a2a-b1e5-3e6ee79c81bb"}},{"fullUrl":"https://madie.cms.gov/MeasureReport/ae974041-9ef7-458e-a3d5-f8958fb03e1a","resource":{"resourceType":"MeasureReport","id":"ae974041-9ef7-458e-a3d5-f8958fb03e1a","meta":{"profile":["http://hl7.org/fhir/us/cqfmeasures/StructureDefinition/test-case-cqfm"]},"contained":[{"resourceType":"Parameters","id":"230d1f1d-bcd4-4da6-b2da-0306c854455e-parameters","parameter":[{"name":"subject","valueString":"bee704a0-f498-4a44-b223-edae5b432204"}]}],"extension":[{"url":"http://hl7.org/fhir/us/cqfmeasures/StructureDefinition/cqfm-inputParameters","valueReference":{"reference":"#230d1f1d-bcd4-4da6-b2da-0306c854455e-parameters"}},{"url":"http://hl7.org/fhir/us/cqfmeasures/StructureDefinition/cqfm-testCaseDescription","valueMarkdown":"Patient has intussusception"}],"modifierExtension":[{"url":"http://hl7.org/fhir/us/cqfmeasures/StructureDefinition/cqfm-isTestCase","valueBoolean":true}],"status":"complete","type":"individual","measure":"https://madie.cms.gov/Measure/ChildhoodImmunizationStatusFHIR","period":{"start":"2025-01-01","end":"2025-12-31"},"group":[{"population":[{"code":{"coding":[{"system":"http://terminology.hl7.org/CodeSystem/measure-population","code":"initial-population","display":"Initial Population"}]},"count":1},{"code":{"coding":[{"system":"http://terminology.hl7.org/CodeSystem/measure-population","code":"denominator","display":"Denominator"}]},"count":1},{"code":{"coding":[{"system":"http://terminology.hl7.org/CodeSystem/measure-population","code":"denominator-exclusion","display":"Denominator Exclusion"}]},"count":1},{"code":{"coding":[{"system":"http://terminology.hl7.org/CodeSystem/measure-population","code":"numerator","display":"Numerator"}]},"count":0}]}]},"request":{"method":"PUT","url":"MeasureReport/ae974041-9ef7-458e-a3d5-f8958fb03e1a"}}]}