{"resourceType":"Bundle","id":"tests-a5ca4525-88bc-4b67-b880-ca1cf54daa88-bundle","type":"transaction","entry":[{"fullUrl":"https://madie.cms.gov/Patient/a5ca4525-88bc-4b67-b880-ca1cf54daa88","resource":{"resourceType":"Patient","id":"a5ca4525-88bc-4b67-b880-ca1cf54daa88","meta":{"profile":["http://hl7.org/fhir/us/qicore/StructureDefinition/qicore-patient"]},"extension":[{"url":"http://hl7.org/fhir/us/core/StructureDefinition/us-core-race","extension":[{"url":"ombCategory","valueCoding":{"system":"urn:oid:2.16.840.1.113883.6.238","code":"2028-9","display":"Asian","userSelected":true}},{"url":"text","valueString":"Asian"}]},{"url":"http://hl7.org/fhir/us/core/StructureDefinition/us-core-ethnicity","extension":[{"url":"ombCategory","valueCoding":{"system":"urn:oid:2.16.840.1.113883.6.238","code":"2135-2","display":"Hispanic or Latino","userSelected":true}},{"url":"text","valueString":"Hispanic or Latino"}]}],"identifier":[{"type":{"coding":[{"system":"http://terminology.hl7.org/CodeSystem/v2-0203","code":"MR"}]},"system":"http://hospital.smarthealthit.org","value":"999999995"}],"name":[{"family":"Bertha","given":["Betty"]}],"gender":"female","birthDate":"2023-01-01"},"request":{"method":"PUT","url":"Patient/a5ca4525-88bc-4b67-b880-ca1cf54daa88"}},{"fullUrl":"https://madie.cms.gov/Encounter/Encounter-1","resource":{"resourceType":"Encounter","id":"8aa305f0-1932-4423-98ae-f0057eb96b98","meta":{"profile":["http://hl7.org/fhir/us/qicore/StructureDefinition/qicore-encounter"]},"status":"finished","class":{"system":"http://terminology.hl7.org/CodeSystem/v3-ActCode","code":"AMB","display":"ambulatory"},"type":[{"coding":[{"system":"http://snomed.info/sct","code":"185317003","display":"Telephone encounter (procedure)"}]}],"subject":{"reference":"Patient/a5ca4525-88bc-4b67-b880-ca1cf54daa88"},"period":{"start":"2025-01-01T01:00:00.000Z","end":"2025-01-01T01:15:00.000Z"}},"request":{"method":"PUT","url":"Encounter/8aa305f0-1932-4423-98ae-f0057eb96b98"}},{"fullUrl":"https://madie.cms.gov/Condition/Condition-1","resource":{"resourceType":"Condition","id":"897c1f28-b509-4bd5-834c-5689c4de3a8e","meta":{"profile":["http://hl7.org/fhir/us/qicore/StructureDefinition/qicore-condition"]},"clinicalStatus":{"coding":[{"system":"http://terminology.hl7.org/CodeSystem/condition-clinical","code":"active"}]},"category":[{"coding":[{"system":"http://terminology.hl7.org/CodeSystem/condition-category","code":"problem-list-item","display":"Problem List Item"}]}],"code":{"coding":[{"system":"http://snomed.info/sct","code":"192711008","display":"Post diphtheria vaccination encephalitis (disorder)"}]},"subject":{"reference":"Patient/a5ca4525-88bc-4b67-b880-ca1cf54daa88"},"onsetDateTime":"2024-01-02T00:00:00.000Z"},"request":{"method":"PUT","url":"Condition/897c1f28-b509-4bd5-834c-5689c4de3a8e"}},{"fullUrl":"https://madie.cms.gov/Condition/Condition-2","resource":{"resourceType":"Condition","id":"30101681-719c-4a0f-a042-814b0dcf1e70","meta":{"profile":["http://hl7.org/fhir/us/qicore/StructureDefinition/qicore-condition"]},"clinicalStatus":{"coding":[{"system":"http://terminology.hl7.org/CodeSystem/condition-clinical","code":"active"}]},"category":[{"coding":[{"system":"http://terminology.hl7.org/CodeSystem/condition-category","code":"problem-list-item","display":"Problem List Item"}]}],"code":{"coding":[{"system":"http://snomed.info/sct","code":"471321000124106","display":"Anaphylaxis caused by vaccine product containing human poliovirus antigen (disorder)"}]},"subject":{"reference":"Patient/a5ca4525-88bc-4b67-b880-ca1cf54daa88"},"onsetDateTime":"2024-01-02T00:00:00.000Z"},"request":{"method":"PUT","url":"Condition/30101681-719c-4a0f-a042-814b0dcf1e70"}},{"fullUrl":"https://madie.cms.gov/Condition/Condition-3","resource":{"resourceType":"Condition","id":"74242fed-5eaa-4516-9cc1-1cd2e9e52adb","meta":{"profile":["http://hl7.org/fhir/us/qicore/StructureDefinition/qicore-condition"]},"clinicalStatus":{"coding":[{"system":"http://terminology.hl7.org/CodeSystem/condition-clinical","code":"active"}]},"category":[{"coding":[{"system":"http://terminology.hl7.org/CodeSystem/condition-category","code":"problem-list-item","display":"Problem List Item"}]}],"code":{"coding":[{"system":"http://snomed.info/sct","code":"471331000124109","display":"Anaphylaxis caused by vaccine product containing Measles morbillivirus and Mumps orthorubulavirus and Rubella virus antigens (disorder)"}]},"subject":{"reference":"Patient/a5ca4525-88bc-4b67-b880-ca1cf54daa88"},"onsetDateTime":"2024-01-02T00:00:00.000Z"},"request":{"method":"PUT","url":"Condition/74242fed-5eaa-4516-9cc1-1cd2e9e52adb"}},{"fullUrl":"https://madie.cms.gov/Condition/Condition-4","resource":{"resourceType":"Condition","id":"f3d6aea7-90da-41e5-b9d1-b5086b1c14d9","meta":{"profile":["http://hl7.org/fhir/us/qicore/StructureDefinition/qicore-condition"]},"clinicalStatus":{"coding":[{"system":"http://terminology.hl7.org/CodeSystem/condition-clinical","code":"active"}]},"category":[{"coding":[{"system":"http://terminology.hl7.org/CodeSystem/condition-category","code":"problem-list-item","display":"Problem List Item"}]}],"code":{"coding":[{"system":"http://snomed.info/sct","code":"433621000124101","display":"Anaphylaxis due to Haemophilus influenzae type b vaccine (disorder)"}]},"subject":{"reference":"Patient/a5ca4525-88bc-4b67-b880-ca1cf54daa88"},"onsetDateTime":"2024-01-02T00:00:00.000Z"},"request":{"method":"PUT","url":"Condition/f3d6aea7-90da-41e5-b9d1-b5086b1c14d9"}},{"fullUrl":"https://madie.cms.gov/Condition/Condition-5","resource":{"resourceType":"Condition","id":"824158cb-fe19-4818-b9cc-1dbea2514754","meta":{"profile":["http://hl7.org/fhir/us/qicore/StructureDefinition/qicore-condition"]},"clinicalStatus":{"coding":[{"system":"http://terminology.hl7.org/CodeSystem/condition-clinical","code":"active"}]},"category":[{"coding":[{"system":"http://terminology.hl7.org/CodeSystem/condition-category","code":"problem-list-item","display":"Problem List Item"}]}],"code":{"coding":[{"system":"http://snomed.info/sct","code":"235864009","display":"Acute hepatitis B with hepatitis D (disorder)"}]},"subject":{"reference":"Patient/a5ca4525-88bc-4b67-b880-ca1cf54daa88"},"onsetDateTime":"2024-01-02T00:00:00.000Z"},"request":{"method":"PUT","url":"Condition/824158cb-fe19-4818-b9cc-1dbea2514754"}},{"fullUrl":"https://madie.cms.gov/Condition/Condition-6","resource":{"resourceType":"Condition","id":"3b39bc7a-8a2c-427e-8f8c-fdfe51028475","meta":{"profile":["http://hl7.org/fhir/us/qicore/StructureDefinition/qicore-condition"]},"clinicalStatus":{"coding":[{"system":"http://terminology.hl7.org/CodeSystem/condition-clinical","code":"active"}]},"category":[{"coding":[{"system":"http://terminology.hl7.org/CodeSystem/condition-category","code":"problem-list-item","display":"Problem List Item"}]}],"code":{"coding":[{"system":"http://snomed.info/sct","code":"426570007","display":"Herpes zoster interstitial keratitis (disorder)"}]},"subject":{"reference":"Patient/a5ca4525-88bc-4b67-b880-ca1cf54daa88"},"onsetDateTime":"2024-01-02T00:00:00.000Z"},"request":{"method":"PUT","url":"Condition/3b39bc7a-8a2c-427e-8f8c-fdfe51028475"}},{"fullUrl":"https://madie.cms.gov/Condition/Condition-7","resource":{"resourceType":"Condition","id":"2b14b88c-b977-4669-93b4-44e39de85379","meta":{"profile":["http://hl7.org/fhir/us/qicore/StructureDefinition/qicore-condition"]},"clinicalStatus":{"coding":[{"system":"http://terminology.hl7.org/CodeSystem/condition-clinical","code":"active"}]},"category":[{"coding":[{"system":"http://terminology.hl7.org/CodeSystem/condition-category","code":"problem-list-item","display":"Problem List Item"}]}],"code":{"coding":[{"system":"http://snomed.info/sct","code":"471141000124102","display":"Anaphylaxis caused by vaccine product containing Streptococcus pneumoniae antigen (disorder)"}]},"subject":{"reference":"Patient/a5ca4525-88bc-4b67-b880-ca1cf54daa88"},"onsetDateTime":"2024-01-12T00:00:00.000Z"},"request":{"method":"PUT","url":"Condition/2b14b88c-b977-4669-93b4-44e39de85379"}},{"fullUrl":"https://madie.cms.gov/Condition/Condition-8","resource":{"resourceType":"Condition","id":"b5d4ed9a-c224-4ed9-adeb-5d531c1246e7","meta":{"profile":["http://hl7.org/fhir/us/qicore/StructureDefinition/qicore-condition"]},"clinicalStatus":{"coding":[{"system":"http://terminology.hl7.org/CodeSystem/condition-clinical","code":"active"}]},"category":[{"coding":[{"system":"http://terminology.hl7.org/CodeSystem/condition-category","code":"problem-list-item","display":"Problem List Item"}]}],"code":{"coding":[{"system":"http://snomed.info/sct","code":"40468003","display":"Viral hepatitis, type A (disorder)"}]},"subject":{"reference":"Patient/a5ca4525-88bc-4b67-b880-ca1cf54daa88"},"onsetDateTime":"2024-01-02T00:00:00.000Z"},"request":{"method":"PUT","url":"Condition/b5d4ed9a-c224-4ed9-adeb-5d531c1246e7"}},{"fullUrl":"https://madie.cms.gov/Condition/Condition-9","resource":{"resourceType":"Condition","id":"a50b779d-a412-4095-9105-1844c06728ff","meta":{"profile":["http://hl7.org/fhir/us/qicore/StructureDefinition/qicore-condition"]},"clinicalStatus":{"coding":[{"system":"http://terminology.hl7.org/CodeSystem/condition-clinical","code":"active"}]},"category":[{"coding":[{"system":"http://terminology.hl7.org/CodeSystem/condition-category","code":"problem-list-item","display":"Problem List Item"}]}],"code":{"coding":[{"system":"http://snomed.info/sct","code":"428331000124103","display":"Anaphylaxis caused by rotavirus vaccine (disorder)"}]},"subject":{"reference":"Patient/a5ca4525-88bc-4b67-b880-ca1cf54daa88"},"onsetDateTime":"2024-01-02T00:00:00.000Z"},"request":{"method":"PUT","url":"Condition/a50b779d-a412-4095-9105-1844c06728ff"}},{"fullUrl":"https://madie.cms.gov/Condition/Condition-10","resource":{"resourceType":"Condition","id":"45e6ec41-6f22-40ff-8573-88c4b2066ac7","meta":{"profile":["http://hl7.org/fhir/us/qicore/StructureDefinition/qicore-condition"]},"clinicalStatus":{"coding":[{"system":"http://terminology.hl7.org/CodeSystem/condition-clinical","code":"active"}]},"category":[{"coding":[{"system":"http://terminology.hl7.org/CodeSystem/condition-category","code":"problem-list-item","display":"Problem List Item"}]}],"code":{"coding":[{"system":"http://snomed.info/sct","code":"471361000124100","display":"Anaphylaxis caused by vaccine product containing Influenza virus antigen (disorder)"}]},"subject":{"reference":"Patient/a5ca4525-88bc-4b67-b880-ca1cf54daa88"},"onsetDateTime":"2024-01-02T00:00:00.000Z"},"request":{"method":"PUT","url":"Condition/45e6ec41-6f22-40ff-8573-88c4b2066ac7"}},{"fullUrl":"https://madie.cms.gov/MeasureReport/d87038d0-ca89-44e2-8ef1-4fd3e7fe2a70","resource":{"resourceType":"MeasureReport","id":"d87038d0-ca89-44e2-8ef1-4fd3e7fe2a70","meta":{"profile":["http://hl7.org/fhir/us/cqfmeasures/StructureDefinition/test-case-cqfm"]},"contained":[{"resourceType":"Parameters","id":"e4f388f1-d5a4-4f4a-ae02-d04d7f2d552d-parameters","parameter":[{"name":"subject","valueString":"a5ca4525-88bc-4b67-b880-ca1cf54daa88"}]}],"extension":[{"url":"http://hl7.org/fhir/us/cqfmeasures/StructureDefinition/cqfm-inputParameters","valueReference":{"reference":"#e4f388f1-d5a4-4f4a-ae02-d04d7f2d552d-parameters"}},{"url":"http://hl7.org/fhir/us/cqfmeasures/StructureDefinition/cqfm-testCaseDescription","valueMarkdown":"All anaphylaxis or conditions in lieu"}],"modifierExtension":[{"url":"http://hl7.org/fhir/us/cqfmeasures/StructureDefinition/cqfm-isTestCase","valueBoolean":true}],"status":"complete","type":"individual","measure":"https://madie.cms.gov/Measure/ChildhoodImmunizationStatusFHIR","period":{"start":"2025-01-01","end":"2025-12-31"},"group":[{"population":[{"code":{"coding":[{"system":"http://terminology.hl7.org/CodeSystem/measure-population","code":"initial-population","display":"Initial Population"}]},"count":1},{"code":{"coding":[{"system":"http://terminology.hl7.org/CodeSystem/measure-population","code":"denominator","display":"Denominator"}]},"count":1},{"code":{"coding":[{"system":"http://terminology.hl7.org/CodeSystem/measure-population","code":"denominator-exclusion","display":"Denominator Exclusion"}]},"count":0},{"code":{"coding":[{"system":"http://terminology.hl7.org/CodeSystem/measure-population","code":"numerator","display":"Numerator"}]},"count":1}]}]},"request":{"method":"PUT","url":"MeasureReport/d87038d0-ca89-44e2-8ef1-4fd3e7fe2a70"}}]}