{"resourceType":"Bundle","id":"tests-15067a1f-bfa9-4dbc-b622-b2da823bea79-bundle","type":"transaction","entry":[{"fullUrl":"https://madie.cms.gov/Patient/15067a1f-bfa9-4dbc-b622-b2da823bea79","resource":{"resourceType":"Patient","id":"15067a1f-bfa9-4dbc-b622-b2da823bea79","meta":{"profile":["http://hl7.org/fhir/us/qicore/StructureDefinition/qicore-patient"]},"extension":[{"url":"http://hl7.org/fhir/us/core/StructureDefinition/us-core-race","extension":[{"url":"ombCategory","valueCoding":{"system":"urn:oid:2.16.840.1.113883.6.238","code":"2028-9","display":"Asian","userSelected":true}},{"url":"text","valueString":"Asian"}]},{"url":"http://hl7.org/fhir/us/core/StructureDefinition/us-core-ethnicity","extension":[{"url":"ombCategory","valueCoding":{"system":"urn:oid:2.16.840.1.113883.6.238","code":"2135-2","display":"Hispanic or Latino","userSelected":true}},{"url":"text","valueString":"Hispanic or Latino"}]}],"identifier":[{"type":{"coding":[{"system":"http://terminology.hl7.org/CodeSystem/v2-0203","code":"MR"}]},"system":"http://hospital.smarthealthit.org","value":"999999995"}],"name":[{"family":"Bertha","given":["Betty"]}],"gender":"female","birthDate":"2023-01-01"},"request":{"method":"PUT","url":"Patient/15067a1f-bfa9-4dbc-b622-b2da823bea79"}},{"fullUrl":"https://madie.cms.gov/Encounter/Encounter-1","resource":{"resourceType":"Encounter","id":"ac17f5b7-0b47-4a50-860e-9c9dcd8b96e1","meta":{"profile":["http://hl7.org/fhir/us/qicore/StructureDefinition/qicore-encounter"]},"status":"finished","class":{"system":"http://terminology.hl7.org/CodeSystem/v3-ActCode","code":"AMB","display":"ambulatory"},"type":[{"coding":[{"system":"http://snomed.info/sct","code":"185317003","display":"Telephone encounter (procedure)"}]}],"subject":{"reference":"Patient/15067a1f-bfa9-4dbc-b622-b2da823bea79"},"period":{"start":"2025-01-01T01:00:00.000Z","end":"2025-01-01T01:15:00.000Z"}},"request":{"method":"PUT","url":"Encounter/ac17f5b7-0b47-4a50-860e-9c9dcd8b96e1"}},{"fullUrl":"https://madie.cms.gov/Immunization/Immunization-1a","resource":{"resourceType":"Immunization","id":"de291e10-d781-4573-9d1d-a8aff7c95634","meta":{"profile":["http://hl7.org/fhir/us/qicore/StructureDefinition/qicore-immunization"]},"status":"completed","vaccineCode":{"coding":[{"system":"http://hl7.org/fhir/sid/cvx","code":"146","display":"Diphtheria and Tetanus Toxoids and Acellular Pertussis Adsorbed, Inactivated Poliovirus, Haemophilus b Conjugate (Meningococcal Protein Conjugate), and Hepatitis B (Recombinant) Vaccine."}]},"patient":{"reference":"Patient/15067a1f-bfa9-4dbc-b622-b2da823bea79"},"occurrenceDateTime":"2024-01-02T00:00:00.000Z","recorded":"2024-01-02T00:00:00.000Z","primarySource":true},"request":{"method":"PUT","url":"Immunization/de291e10-d781-4573-9d1d-a8aff7c95634"}},{"fullUrl":"https://madie.cms.gov/Immunization/Immunization-1b","resource":{"resourceType":"Immunization","id":"e1e75bd9-9aa3-4e74-8825-7b1acf156440","meta":{"profile":["http://hl7.org/fhir/us/qicore/StructureDefinition/qicore-immunization"]},"status":"completed","vaccineCode":{"coding":[{"system":"http://hl7.org/fhir/sid/cvx","code":"146","display":"Diphtheria and Tetanus Toxoids and Acellular Pertussis Adsorbed, Inactivated Poliovirus, Haemophilus b Conjugate (Meningococcal Protein Conjugate), and Hepatitis B (Recombinant) Vaccine."}]},"patient":{"reference":"Patient/15067a1f-bfa9-4dbc-b622-b2da823bea79"},"occurrenceDateTime":"2024-01-05T00:00:00.000Z","recorded":"2024-01-02T00:00:00.000Z","primarySource":true},"request":{"method":"PUT","url":"Immunization/e1e75bd9-9aa3-4e74-8825-7b1acf156440"}},{"fullUrl":"https://madie.cms.gov/Immunization/Immunization-1c","resource":{"resourceType":"Immunization","id":"56f903de-845a-4cad-ac64-e93ebf416570","meta":{"profile":["http://hl7.org/fhir/us/qicore/StructureDefinition/qicore-immunization"]},"status":"completed","vaccineCode":{"coding":[{"system":"http://hl7.org/fhir/sid/cvx","code":"146","display":"Diphtheria and Tetanus Toxoids and Acellular Pertussis Adsorbed, Inactivated Poliovirus, Haemophilus b Conjugate (Meningococcal Protein Conjugate), and Hepatitis B (Recombinant) Vaccine."}]},"patient":{"reference":"Patient/15067a1f-bfa9-4dbc-b622-b2da823bea79"},"occurrenceDateTime":"2024-01-07T00:00:00.000Z","recorded":"2024-01-02T00:00:00.000Z","primarySource":true},"request":{"method":"PUT","url":"Immunization/56f903de-845a-4cad-ac64-e93ebf416570"}},{"fullUrl":"https://madie.cms.gov/Procedure/Procedure-1d","resource":{"resourceType":"Procedure","id":"be7f1643-9158-46b8-83d3-6c53d8947195","meta":{"profile":["http://hl7.org/fhir/us/qicore/StructureDefinition/qicore-procedure"]},"extension":[{"url":"http://hl7.org/fhir/us/qicore/StructureDefinition/qicore-recorded","valueDateTime":"2024-01-02T00:00:00.000Z"}],"status":"completed","code":{"coding":[{"system":"http://www.ama-assn.org/go/cpt","code":"90700","display":"Diphtheria, tetanus toxoids, and acellular pertussis vaccine (DTaP), when administered to individuals younger than 7 years, for intramuscular use"}]},"subject":{"reference":"Patient/15067a1f-bfa9-4dbc-b622-b2da823bea79"},"performedPeriod":{"start":"2024-01-02T00:00:00.000Z","end":"2024-01-02T23:59:59.000Z"}},"request":{"method":"PUT","url":"Procedure/be7f1643-9158-46b8-83d3-6c53d8947195"}},{"fullUrl":"https://madie.cms.gov/Immunization/Immunization-2a","resource":{"resourceType":"Immunization","id":"16459a61-93a8-4766-be7c-b1b67b12f82f","meta":{"profile":["http://hl7.org/fhir/us/qicore/StructureDefinition/qicore-immunization"]},"status":"completed","vaccineCode":{"coding":[{"system":"http://hl7.org/fhir/sid/cvx","code":"146","display":"\tDiphtheria and Tetanus Toxoids and Acellular Pertussis Adsorbed, Inactivated Poliovirus, Haemophilus b Conjugate (Meningococcal Protein Conjugate), and Hepatitis B (Recombinant) Vaccine."}]},"patient":{"reference":"Patient/15067a1f-bfa9-4dbc-b622-b2da823bea79"},"occurrenceDateTime":"2024-01-02T00:00:00.000Z","recorded":"2024-01-02T00:00:00.000Z","primarySource":true},"request":{"method":"PUT","url":"Immunization/16459a61-93a8-4766-be7c-b1b67b12f82f"}},{"fullUrl":"https://madie.cms.gov/Immunization/Immunization-2b","resource":{"resourceType":"Immunization","id":"91a90ea0-d1f7-4b4b-99cf-61005f61e219","meta":{"profile":["http://hl7.org/fhir/us/qicore/StructureDefinition/qicore-immunization"]},"status":"completed","vaccineCode":{"coding":[{"system":"http://hl7.org/fhir/sid/cvx","code":"146","display":"\tDiphtheria and Tetanus Toxoids and Acellular Pertussis Adsorbed, Inactivated Poliovirus, Haemophilus b Conjugate (Meningococcal Protein Conjugate), and Hepatitis B (Recombinant) Vaccine."}]},"patient":{"reference":"Patient/15067a1f-bfa9-4dbc-b622-b2da823bea79"},"occurrenceDateTime":"2024-01-06T00:00:00.000Z","recorded":"2024-01-02T00:00:00.000Z","primarySource":true},"request":{"method":"PUT","url":"Immunization/91a90ea0-d1f7-4b4b-99cf-61005f61e219"}},{"fullUrl":"https://madie.cms.gov/Procedure/Procedure-2c","resource":{"resourceType":"Procedure","id":"9b58cd27-2cee-4ec9-ba8e-79b87fa99351","meta":{"profile":["http://hl7.org/fhir/us/qicore/StructureDefinition/qicore-procedure"]},"extension":[{"url":"http://hl7.org/fhir/us/qicore/StructureDefinition/qicore-recorded","valueDateTime":"2024-01-02T00:00:00.000Z"}],"status":"completed","code":{"coding":[{"system":"http://www.ama-assn.org/go/cpt","code":"90713","display":"Poliovirus vaccine, inactivated (IPV), for subcutaneous or intramuscular use"}]},"subject":{"reference":"Patient/15067a1f-bfa9-4dbc-b622-b2da823bea79"},"performedPeriod":{"start":"2024-01-02T00:00:00.000Z","end":"2024-01-02T23:59:59.000Z"}},"request":{"method":"PUT","url":"Procedure/9b58cd27-2cee-4ec9-ba8e-79b87fa99351"}},{"fullUrl":"https://madie.cms.gov/Procedure/Procedure-3","resource":{"resourceType":"Procedure","id":"f3195380-4367-48f4-9af8-514ad33b2598","meta":{"profile":["http://hl7.org/fhir/us/qicore/StructureDefinition/qicore-procedure"]},"extension":[{"url":"http://hl7.org/fhir/us/qicore/StructureDefinition/qicore-recorded","valueDateTime":"2024-01-02T00:00:00.000Z"}],"status":"completed","code":{"coding":[{"system":"http://www.ama-assn.org/go/cpt","code":"90710","display":"Measles, mumps, rubella, and varicella vaccine (MMRV), live, for subcutaneous use"}]},"subject":{"reference":"Patient/15067a1f-bfa9-4dbc-b622-b2da823bea79"},"performedPeriod":{"start":"2024-01-02T00:00:00.000Z","end":"2024-01-02T23:59:59.000Z"}},"request":{"method":"PUT","url":"Procedure/f3195380-4367-48f4-9af8-514ad33b2598"}},{"fullUrl":"https://madie.cms.gov/Immunization/Immunization-4a","resource":{"resourceType":"Immunization","id":"73005eb5-04e5-4c61-baaa-9d1c576f62d3","meta":{"profile":["http://hl7.org/fhir/us/qicore/StructureDefinition/qicore-immunization"]},"status":"completed","vaccineCode":{"coding":[{"system":"http://hl7.org/fhir/sid/cvx","code":"49","display":"Haemophilus influenzae type b vaccine, PRP-OMP conjugate"}]},"patient":{"reference":"Patient/15067a1f-bfa9-4dbc-b622-b2da823bea79"},"occurrenceDateTime":"2024-01-02T00:00:00.000Z","recorded":"2024-01-02T00:00:00.000Z","primarySource":true},"request":{"method":"PUT","url":"Immunization/73005eb5-04e5-4c61-baaa-9d1c576f62d3"}},{"fullUrl":"https://madie.cms.gov/Immunization/Immunization-4b","resource":{"resourceType":"Immunization","id":"6a4a7c94-28d0-4248-8bbb-8922c2b2414c","meta":{"profile":["http://hl7.org/fhir/us/qicore/StructureDefinition/qicore-immunization"]},"status":"completed","vaccineCode":{"coding":[{"system":"http://hl7.org/fhir/sid/cvx","code":"49","display":"Haemophilus influenzae type b vaccine, PRP-OMP conjugate"}]},"patient":{"reference":"Patient/15067a1f-bfa9-4dbc-b622-b2da823bea79"},"occurrenceDateTime":"2024-01-02T00:00:00.000Z","recorded":"2024-01-02T00:00:00.000Z","primarySource":true},"request":{"method":"PUT","url":"Immunization/6a4a7c94-28d0-4248-8bbb-8922c2b2414c"}},{"fullUrl":"https://madie.cms.gov/Procedure/Procedure-4c","resource":{"resourceType":"Procedure","id":"787e3669-291d-41a6-9caf-12c832aa57d3","meta":{"profile":["http://hl7.org/fhir/us/qicore/StructureDefinition/qicore-procedure"]},"extension":[{"url":"http://hl7.org/fhir/us/qicore/StructureDefinition/qicore-recorded","valueDateTime":"2024-01-02T00:00:00.000Z"}],"status":"completed","code":{"coding":[{"system":"http://www.ama-assn.org/go/cpt","code":"90697","display":"Diphtheria, tetanus toxoids, acellular pertussis vaccine, inactivated poliovirus vaccine, Haemophilus influenzae type b PRP-OMP conjugate vaccine, and hepatitis B vaccine (DTaP-IPV-Hib-HepB), for intramuscular use"}]},"subject":{"reference":"Patient/15067a1f-bfa9-4dbc-b622-b2da823bea79"},"performedPeriod":{"start":"2024-01-02T00:00:00.000Z","end":"2024-01-02T23:59:59.000Z"}},"request":{"method":"PUT","url":"Procedure/787e3669-291d-41a6-9caf-12c832aa57d3"}},{"fullUrl":"https://madie.cms.gov/Procedure/Procedure-4d","resource":{"resourceType":"Procedure","id":"71ce9f07-ea62-413e-a498-01ec1fa7f3cc","meta":{"profile":["http://hl7.org/fhir/us/qicore/StructureDefinition/qicore-procedure"]},"extension":[{"url":"http://hl7.org/fhir/us/qicore/StructureDefinition/qicore-recorded","valueDateTime":"2024-01-02T00:00:00.000Z"}],"status":"completed","code":{"coding":[{"system":"http://www.ama-assn.org/go/cpt","code":"90648","display":"Haemophilus influenzae type b vaccine (Hib), PRP-T conjugate, 4 dose schedule, for intramuscular use"}]},"subject":{"reference":"Patient/15067a1f-bfa9-4dbc-b622-b2da823bea79"},"performedPeriod":{"start":"2024-01-02T00:00:00.000Z","end":"2024-01-02T23:59:59.000Z"}},"request":{"method":"PUT","url":"Procedure/71ce9f07-ea62-413e-a498-01ec1fa7f3cc"}},{"fullUrl":"https://madie.cms.gov/Immunization/Immunization-5a","resource":{"resourceType":"Immunization","id":"19ce387d-7a35-440e-8b04-078d60189a52","meta":{"profile":["http://hl7.org/fhir/us/qicore/StructureDefinition/qicore-immunization"]},"status":"completed","vaccineCode":{"coding":[{"system":"http://hl7.org/fhir/sid/cvx","code":"51","display":"Haemophilus influenzae type b conjugate and Hepatitis B vaccine"}]},"patient":{"reference":"Patient/15067a1f-bfa9-4dbc-b622-b2da823bea79"},"occurrenceDateTime":"2024-01-02T00:00:00.000Z","recorded":"2024-01-02T00:00:00.000Z","primarySource":true},"request":{"method":"PUT","url":"Immunization/19ce387d-7a35-440e-8b04-078d60189a52"}},{"fullUrl":"https://madie.cms.gov/Immunization/Immunization-5b","resource":{"resourceType":"Immunization","id":"629e2d9a-c509-410e-9a46-fb6944176b12","meta":{"profile":["http://hl7.org/fhir/us/qicore/StructureDefinition/qicore-immunization"]},"status":"completed","vaccineCode":{"coding":[{"system":"http://hl7.org/fhir/sid/cvx","code":"51","display":"Haemophilus influenzae type b conjugate and Hepatitis B vaccine"}]},"patient":{"reference":"Patient/15067a1f-bfa9-4dbc-b622-b2da823bea79"},"occurrenceDateTime":"2024-01-10T00:00:00.000Z","recorded":"2024-01-02T00:00:00.000Z","primarySource":true},"request":{"method":"PUT","url":"Immunization/629e2d9a-c509-410e-9a46-fb6944176b12"}},{"fullUrl":"https://madie.cms.gov/Procedure/Procedure-5c","resource":{"resourceType":"Procedure","id":"80626ab9-abd8-4e7d-962c-1966649f067e","meta":{"profile":["http://hl7.org/fhir/us/qicore/StructureDefinition/qicore-procedure"]},"extension":[{"url":"http://hl7.org/fhir/us/qicore/StructureDefinition/qicore-recorded","valueDateTime":"2024-01-02T00:00:00.000Z"}],"status":"completed","code":{"coding":[{"system":"http://www.ama-assn.org/go/cpt","code":"90740","display":"Hepatitis B vaccine (HepB), dialysis or immunosuppressed patient dosage, 3 dose schedule, for intramuscular use"}]},"subject":{"reference":"Patient/15067a1f-bfa9-4dbc-b622-b2da823bea79"},"performedPeriod":{"start":"2024-01-02T00:00:00.000Z","end":"2024-01-02T23:59:59.000Z"}},"request":{"method":"PUT","url":"Procedure/80626ab9-abd8-4e7d-962c-1966649f067e"}},{"fullUrl":"https://madie.cms.gov/Immunization/Immunization-6","resource":{"resourceType":"Immunization","id":"b88906c1-10a7-4622-af78-40e9cc4dc23e","meta":{"profile":["http://hl7.org/fhir/us/qicore/StructureDefinition/qicore-immunization"]},"status":"completed","vaccineCode":{"coding":[{"system":"http://hl7.org/fhir/sid/cvx","code":"94","display":"measles, mumps, rubella, and varicella virus vaccine"}]},"patient":{"reference":"Patient/15067a1f-bfa9-4dbc-b622-b2da823bea79"},"occurrenceDateTime":"2024-01-02T00:00:00.000Z","recorded":"2024-01-02T00:00:00.000Z","primarySource":true},"request":{"method":"PUT","url":"Immunization/b88906c1-10a7-4622-af78-40e9cc4dc23e"}},{"fullUrl":"https://madie.cms.gov/Immunization/Immunization-7a","resource":{"resourceType":"Immunization","id":"18568231-3fba-4cbd-815c-009158198acc","meta":{"profile":["http://hl7.org/fhir/us/qicore/StructureDefinition/qicore-immunization"]},"status":"completed","vaccineCode":{"coding":[{"system":"http://hl7.org/fhir/sid/cvx","code":"215","display":"Pneumococcal conjugate vaccine 15-valent (PCV15), polysaccharide CRM197 conjugate, adjuvant, preservative free"}]},"patient":{"reference":"Patient/15067a1f-bfa9-4dbc-b622-b2da823bea79"},"occurrenceDateTime":"2024-01-12T00:00:00.000Z","recorded":"2024-01-02T00:00:00.000Z","primarySource":true},"request":{"method":"PUT","url":"Immunization/18568231-3fba-4cbd-815c-009158198acc"}},{"fullUrl":"https://madie.cms.gov/Immunization/Immunization-7b","resource":{"resourceType":"Immunization","id":"cf61de95-b936-4c4a-aec1-0be68470518b","meta":{"profile":["http://hl7.org/fhir/us/qicore/StructureDefinition/qicore-immunization"]},"status":"completed","vaccineCode":{"coding":[{"system":"http://hl7.org/fhir/sid/cvx","code":"215","display":"Pneumococcal conjugate vaccine 15-valent (PCV15), polysaccharide CRM197 conjugate, adjuvant, preservative free"}]},"patient":{"reference":"Patient/15067a1f-bfa9-4dbc-b622-b2da823bea79"},"occurrenceDateTime":"2024-01-14T00:00:00.000Z","recorded":"2024-01-02T00:00:00.000Z","primarySource":true},"request":{"method":"PUT","url":"Immunization/cf61de95-b936-4c4a-aec1-0be68470518b"}},{"fullUrl":"https://madie.cms.gov/Immunization/Immunization-7c","resource":{"resourceType":"Immunization","id":"82c3a8c0-0bc7-4c7e-81c6-3a87a8904954","meta":{"profile":["http://hl7.org/fhir/us/qicore/StructureDefinition/qicore-immunization"]},"status":"completed","vaccineCode":{"coding":[{"system":"http://hl7.org/fhir/sid/cvx","code":"215","display":"Pneumococcal conjugate vaccine 15-valent (PCV15), polysaccharide CRM197 conjugate, adjuvant, preservative free"}]},"patient":{"reference":"Patient/15067a1f-bfa9-4dbc-b622-b2da823bea79"},"occurrenceDateTime":"2024-01-20T00:00:00.000Z","recorded":"2024-01-02T00:00:00.000Z","primarySource":true},"request":{"method":"PUT","url":"Immunization/82c3a8c0-0bc7-4c7e-81c6-3a87a8904954"}},{"fullUrl":"https://madie.cms.gov/Procedure/Procedure-7d","resource":{"resourceType":"Procedure","id":"fca12532-05b9-4fe9-9524-11557c3c1398","meta":{"profile":["http://hl7.org/fhir/us/qicore/StructureDefinition/qicore-procedure"]},"extension":[{"url":"http://hl7.org/fhir/us/qicore/StructureDefinition/qicore-recorded","valueDateTime":"2024-01-02T00:00:00.000Z"}],"status":"completed","code":{"coding":[{"system":"http://www.ama-assn.org/go/cpt","code":"90670","display":"Pneumococcal conjugate vaccine, 13 valent (PCV13), for intramuscular use"}]},"subject":{"reference":"Patient/15067a1f-bfa9-4dbc-b622-b2da823bea79"},"performedPeriod":{"start":"2024-01-02T00:00:00.000Z","end":"2024-01-02T23:59:59.000Z"}},"request":{"method":"PUT","url":"Procedure/fca12532-05b9-4fe9-9524-11557c3c1398"}},{"fullUrl":"https://madie.cms.gov/Procedure/Procedure-8","resource":{"resourceType":"Procedure","id":"85e0a327-b53b-4928-b550-7342b7caaa4b","meta":{"profile":["http://hl7.org/fhir/us/qicore/StructureDefinition/qicore-procedure"]},"extension":[{"url":"http://hl7.org/fhir/us/qicore/StructureDefinition/qicore-recorded","valueDateTime":"2024-01-02T00:00:00.000Z"}],"status":"completed","code":{"coding":[{"system":"http://www.ama-assn.org/go/cpt","code":"90633","display":"Hepatitis A vaccine (HepA), pediatric/adolescent dosage-2 dose schedule, for intramuscular use"}]},"subject":{"reference":"Patient/15067a1f-bfa9-4dbc-b622-b2da823bea79"},"performedPeriod":{"start":"2024-01-02T00:00:00.000Z","end":"2024-01-02T23:59:59.000Z"}},"request":{"method":"PUT","url":"Procedure/85e0a327-b53b-4928-b550-7342b7caaa4b"}},{"fullUrl":"https://madie.cms.gov/Immunization/Immunization-9a","resource":{"resourceType":"Immunization","id":"7d3eafdd-bbbe-420e-9420-edc07a646524","meta":{"profile":["http://hl7.org/fhir/us/qicore/StructureDefinition/qicore-immunization"]},"status":"completed","vaccineCode":{"coding":[{"system":"http://hl7.org/fhir/sid/cvx","code":"119","display":"rotavirus, live, monovalent vaccine"}]},"patient":{"reference":"Patient/15067a1f-bfa9-4dbc-b622-b2da823bea79"},"occurrenceDateTime":"2024-01-02T00:00:00.000Z","recorded":"2024-01-02T00:00:00.000Z","primarySource":true},"request":{"method":"PUT","url":"Immunization/7d3eafdd-bbbe-420e-9420-edc07a646524"}},{"fullUrl":"https://madie.cms.gov/Procedure/Procedure-9b","resource":{"resourceType":"Procedure","id":"c5385a23-528f-4e11-b890-261baef0ae3d","meta":{"profile":["http://hl7.org/fhir/us/qicore/StructureDefinition/qicore-procedure"]},"extension":[{"url":"http://hl7.org/fhir/us/qicore/StructureDefinition/qicore-recorded","valueDateTime":"2024-01-07T00:00:00.000Z"}],"status":"completed","code":{"coding":[{"system":"http://www.ama-assn.org/go/cpt","code":"90681","display":"Rotavirus vaccine, human, attenuated (RV1), 2 dose schedule, live, for oral use"}]},"subject":{"reference":"Patient/15067a1f-bfa9-4dbc-b622-b2da823bea79"},"performedPeriod":{"start":"2024-01-07T00:00:00.000Z","end":"2024-01-07T23:59:59.000Z"}},"request":{"method":"PUT","url":"Procedure/c5385a23-528f-4e11-b890-261baef0ae3d"}},{"fullUrl":"https://madie.cms.gov/Procedure/Procedure-9c","resource":{"resourceType":"Procedure","id":"3457cb54-1654-4c99-818d-5c113afd8c77","meta":{"profile":["http://hl7.org/fhir/us/qicore/StructureDefinition/qicore-procedure"]},"extension":[{"url":"http://hl7.org/fhir/us/qicore/StructureDefinition/qicore-recorded","valueDateTime":"2024-01-08T00:00:00.000Z"}],"status":"completed","code":{"coding":[{"system":"http://www.ama-assn.org/go/cpt","code":"90680","display":"Rotavirus vaccine, pentavalent (RV5), 3 dose schedule, live, for oral use"}]},"subject":{"reference":"Patient/15067a1f-bfa9-4dbc-b622-b2da823bea79"},"performedPeriod":{"start":"2024-01-08T00:00:00.000Z","end":"2024-01-08T23:59:59.000Z"}},"request":{"method":"PUT","url":"Procedure/3457cb54-1654-4c99-818d-5c113afd8c77"}},{"fullUrl":"https://madie.cms.gov/Immunization/Immunization-10a","resource":{"resourceType":"Immunization","id":"7f71b64d-90ad-4b19-a7ea-ff11c987c8c9","meta":{"profile":["http://hl7.org/fhir/us/qicore/StructureDefinition/qicore-immunization"]},"status":"completed","vaccineCode":{"coding":[{"system":"http://hl7.org/fhir/sid/cvx","code":"153","display":"\tInfluenza, injectable, Madin Darby Canine Kidney, preservative free"}]},"patient":{"reference":"Patient/15067a1f-bfa9-4dbc-b622-b2da823bea79"},"occurrenceDateTime":"2024-01-02T00:00:00.000Z","recorded":"2024-01-02T00:00:00.000Z","primarySource":true},"request":{"method":"PUT","url":"Immunization/7f71b64d-90ad-4b19-a7ea-ff11c987c8c9"}},{"fullUrl":"https://madie.cms.gov/Procedure/Procedure-10b","resource":{"resourceType":"Procedure","id":"c7fef15a-5406-4257-9a4a-d359f47cb49b","meta":{"profile":["http://hl7.org/fhir/us/qicore/StructureDefinition/qicore-procedure"]},"extension":[{"url":"http://hl7.org/fhir/us/qicore/StructureDefinition/qicore-recorded","valueDateTime":"2025-01-01T00:00:00.000Z"}],"status":"completed","code":{"coding":[{"system":"http://www.ama-assn.org/go/cpt","code":"90672","display":"Influenza virus vaccine, quadrivalent, live (LAIV4), for intranasal use"}]},"subject":{"reference":"Patient/15067a1f-bfa9-4dbc-b622-b2da823bea79"},"performedPeriod":{"start":"2025-01-01T00:00:00.000Z","end":"2025-01-01T23:59:59.000Z"}},"request":{"method":"PUT","url":"Procedure/c7fef15a-5406-4257-9a4a-d359f47cb49b"}},{"fullUrl":"https://madie.cms.gov/MeasureReport/75489d32-0b7e-4666-bf26-405a9609d6c1","resource":{"resourceType":"MeasureReport","id":"75489d32-0b7e-4666-bf26-405a9609d6c1","meta":{"profile":["http://hl7.org/fhir/us/cqfmeasures/StructureDefinition/test-case-cqfm"]},"contained":[{"resourceType":"Parameters","id":"bfb49d17-b45b-444a-8d80-ea31275a8318-parameters","parameter":[{"name":"subject","valueString":"15067a1f-bfa9-4dbc-b622-b2da823bea79"}]}],"extension":[{"url":"http://hl7.org/fhir/us/cqfmeasures/StructureDefinition/cqfm-inputParameters","valueReference":{"reference":"#bfb49d17-b45b-444a-8d80-ea31275a8318-parameters"}},{"url":"http://hl7.org/fhir/us/cqfmeasures/StructureDefinition/cqfm-testCaseDescription","valueMarkdown":"All vaccines met - procedures - with Hib4, LAIV, RV3 codes"}],"modifierExtension":[{"url":"http://hl7.org/fhir/us/cqfmeasures/StructureDefinition/cqfm-isTestCase","valueBoolean":true}],"status":"complete","type":"individual","measure":"https://madie.cms.gov/Measure/ChildhoodImmunizationStatusFHIR","period":{"start":"2025-01-01","end":"2025-12-31"},"group":[{"population":[{"code":{"coding":[{"system":"http://terminology.hl7.org/CodeSystem/measure-population","code":"initial-population","display":"Initial Population"}]},"count":1},{"code":{"coding":[{"system":"http://terminology.hl7.org/CodeSystem/measure-population","code":"denominator","display":"Denominator"}]},"count":1},{"code":{"coding":[{"system":"http://terminology.hl7.org/CodeSystem/measure-population","code":"denominator-exclusion","display":"Denominator Exclusion"}]},"count":0},{"code":{"coding":[{"system":"http://terminology.hl7.org/CodeSystem/measure-population","code":"numerator","display":"Numerator"}]},"count":1}]}]},"request":{"method":"PUT","url":"MeasureReport/75489d32-0b7e-4666-bf26-405a9609d6c1"}}]}