{"resourceType":"Bundle","id":"tests-46362f30-f48e-4839-a562-941e85cf55ea-bundle","type":"transaction","entry":[{"fullUrl":"https://madie.cms.gov/Patient/46362f30-f48e-4839-a562-941e85cf55ea","resource":{"resourceType":"Patient","id":"46362f30-f48e-4839-a562-941e85cf55ea","meta":{"profile":["http://hl7.org/fhir/us/qicore/StructureDefinition/qicore-patient"]},"extension":[{"url":"http://hl7.org/fhir/us/core/StructureDefinition/us-core-race","extension":[{"url":"ombCategory","valueCoding":{"system":"urn:oid:2.16.840.1.113883.6.238","code":"2028-9","display":"Asian"}},{"url":"text","valueString":"Asian"}]},{"url":"http://hl7.org/fhir/us/core/StructureDefinition/us-core-ethnicity","extension":[{"url":"ombCategory","valueCoding":{"system":"urn:oid:2.16.840.1.113883.6.238","code":"2135-2","display":"Hispanic or Latino"}},{"url":"text","valueString":"Hispanic or Latino"}]}],"identifier":[{"system":"http://hospital.smarthealthit.org","value":"999999995"}],"name":[{"family":"Bertha","given":["Betty"]}],"gender":"female","birthDate":"2023-01-01"},"request":{"method":"PUT","url":"Patient/46362f30-f48e-4839-a562-941e85cf55ea"}},{"fullUrl":"https://madie.cms.gov/Encounter/Encounter-1","resource":{"resourceType":"Encounter","id":"757653c6-492b-4113-a1da-cf801759cd70","meta":{"profile":["http://hl7.org/fhir/us/qicore/StructureDefinition/qicore-encounter"]},"status":"finished","class":{"system":"http://terminology.hl7.org/CodeSystem/v3-ActCode","code":"AMB","display":"ambulatory"},"type":[{"coding":[{"system":"http://snomed.info/sct","code":"185317003","display":"Telephone encounter (procedure)"}]}],"subject":{"reference":"Patient/46362f30-f48e-4839-a562-941e85cf55ea"},"period":{"start":"2025-01-01T01:00:00.000Z","end":"2025-01-01T01:15:00.000Z"}},"request":{"method":"PUT","url":"Encounter/757653c6-492b-4113-a1da-cf801759cd70"}},{"fullUrl":"https://madie.cms.gov/Immunization/Immunization-1a","resource":{"resourceType":"Immunization","id":"a4fb545a-84a1-4c3b-89d0-8a688337dd3c","meta":{"profile":["http://hl7.org/fhir/us/qicore/StructureDefinition/qicore-immunization"]},"status":"completed","vaccineCode":{"coding":[{"system":"http://hl7.org/fhir/sid/cvx","code":"146","display":"Diphtheria and Tetanus Toxoids and Acellular Pertussis Adsorbed, Inactivated Poliovirus, Haemophilus b Conjugate (Meningococcal Protein Conjugate), and Hepatitis B (Recombinant) Vaccine."}]},"patient":{"reference":"Patient/46362f30-f48e-4839-a562-941e85cf55ea"},"occurrenceDateTime":"2024-01-02T00:00:00.000Z","recorded":"2024-01-02T00:00:00.000Z","primarySource":true},"request":{"method":"PUT","url":"Immunization/a4fb545a-84a1-4c3b-89d0-8a688337dd3c"}},{"fullUrl":"https://madie.cms.gov/Immunization/Immunization-1b","resource":{"resourceType":"Immunization","id":"f0b44ab6-267b-4b9c-8169-32ea9fe79d28","meta":{"profile":["http://hl7.org/fhir/us/qicore/StructureDefinition/qicore-immunization"]},"status":"completed","vaccineCode":{"coding":[{"system":"http://hl7.org/fhir/sid/cvx","code":"146","display":"Diphtheria and Tetanus Toxoids and Acellular Pertussis Adsorbed, Inactivated Poliovirus, Haemophilus b Conjugate (Meningococcal Protein Conjugate), and Hepatitis B (Recombinant) Vaccine."}]},"patient":{"reference":"Patient/46362f30-f48e-4839-a562-941e85cf55ea"},"occurrenceDateTime":"2024-01-05T00:00:00.000Z","recorded":"2024-01-02T00:00:00.000Z","primarySource":true},"request":{"method":"PUT","url":"Immunization/f0b44ab6-267b-4b9c-8169-32ea9fe79d28"}},{"fullUrl":"https://madie.cms.gov/Immunization/Immunization-1c","resource":{"resourceType":"Immunization","id":"c5d63edf-a423-4979-96b5-7205c791d6e4","meta":{"profile":["http://hl7.org/fhir/us/qicore/StructureDefinition/qicore-immunization"]},"status":"completed","vaccineCode":{"coding":[{"system":"http://hl7.org/fhir/sid/cvx","code":"146","display":"Diphtheria and Tetanus Toxoids and Acellular Pertussis Adsorbed, Inactivated Poliovirus, Haemophilus b Conjugate (Meningococcal Protein Conjugate), and Hepatitis B (Recombinant) Vaccine."}]},"patient":{"reference":"Patient/46362f30-f48e-4839-a562-941e85cf55ea"},"occurrenceDateTime":"2024-01-07T00:00:00.000Z","recorded":"2024-01-02T00:00:00.000Z","primarySource":true},"request":{"method":"PUT","url":"Immunization/c5d63edf-a423-4979-96b5-7205c791d6e4"}},{"fullUrl":"https://madie.cms.gov/Immunization/Immunization-1d","resource":{"resourceType":"Immunization","id":"73ce9e98-3256-4365-86ff-c9100a5445b2","meta":{"profile":["http://hl7.org/fhir/us/qicore/StructureDefinition/qicore-immunization"]},"status":"completed","vaccineCode":{"coding":[{"system":"http://hl7.org/fhir/sid/cvx","code":"146","display":"Diphtheria and Tetanus Toxoids and Acellular Pertussis Adsorbed, Inactivated Poliovirus, Haemophilus b Conjugate (Meningococcal Protein Conjugate), and Hepatitis B (Recombinant) Vaccine."}]},"patient":{"reference":"Patient/46362f30-f48e-4839-a562-941e85cf55ea"},"occurrenceDateTime":"2024-01-10T00:00:00.000Z","recorded":"2024-01-02T00:00:00.000Z","primarySource":true},"request":{"method":"PUT","url":"Immunization/73ce9e98-3256-4365-86ff-c9100a5445b2"}},{"fullUrl":"https://madie.cms.gov/Immunization/Immunization-2a","resource":{"resourceType":"Immunization","id":"ae8d8b96-d76b-40c5-ad12-1b337fcd255c","meta":{"profile":["http://hl7.org/fhir/us/qicore/StructureDefinition/qicore-immunization"]},"status":"completed","vaccineCode":{"coding":[{"system":"http://hl7.org/fhir/sid/cvx","code":"146","display":"\tDiphtheria and Tetanus Toxoids and Acellular Pertussis Adsorbed, Inactivated Poliovirus, Haemophilus b Conjugate (Meningococcal Protein Conjugate), and Hepatitis B (Recombinant) Vaccine."}]},"patient":{"reference":"Patient/46362f30-f48e-4839-a562-941e85cf55ea"},"occurrenceDateTime":"2024-01-02T00:00:00.000Z","recorded":"2024-01-02T00:00:00.000Z","primarySource":true},"request":{"method":"PUT","url":"Immunization/ae8d8b96-d76b-40c5-ad12-1b337fcd255c"}},{"fullUrl":"https://madie.cms.gov/Immunization/Immunization-2b","resource":{"resourceType":"Immunization","id":"34fb0e30-9935-45b8-b69a-64dfd6c7f197","meta":{"profile":["http://hl7.org/fhir/us/qicore/StructureDefinition/qicore-immunization"]},"status":"completed","vaccineCode":{"coding":[{"system":"http://hl7.org/fhir/sid/cvx","code":"146","display":"\tDiphtheria and Tetanus Toxoids and Acellular Pertussis Adsorbed, Inactivated Poliovirus, Haemophilus b Conjugate (Meningococcal Protein Conjugate), and Hepatitis B (Recombinant) Vaccine."}]},"patient":{"reference":"Patient/46362f30-f48e-4839-a562-941e85cf55ea"},"occurrenceDateTime":"2024-01-06T00:00:00.000Z","recorded":"2024-01-02T00:00:00.000Z","primarySource":true},"request":{"method":"PUT","url":"Immunization/34fb0e30-9935-45b8-b69a-64dfd6c7f197"}},{"fullUrl":"https://madie.cms.gov/Immunization/Immunization-2c","resource":{"resourceType":"Immunization","id":"576aadfc-84b0-4cf2-973e-52e658201f73","meta":{"profile":["http://hl7.org/fhir/us/qicore/StructureDefinition/qicore-immunization"]},"status":"completed","vaccineCode":{"coding":[{"system":"http://hl7.org/fhir/sid/cvx","code":"146","display":"\tDiphtheria and Tetanus Toxoids and Acellular Pertussis Adsorbed, Inactivated Poliovirus, Haemophilus b Conjugate (Meningococcal Protein Conjugate), and Hepatitis B (Recombinant) Vaccine."}]},"patient":{"reference":"Patient/46362f30-f48e-4839-a562-941e85cf55ea"},"occurrenceDateTime":"2024-01-09T00:00:00.000Z","recorded":"2024-01-02T00:00:00.000Z","primarySource":true},"request":{"method":"PUT","url":"Immunization/576aadfc-84b0-4cf2-973e-52e658201f73"}},{"fullUrl":"https://madie.cms.gov/Immunization/Immunization-3","resource":{"resourceType":"Immunization","id":"d04d4162-d9db-45a7-8966-209f2d917068","meta":{"profile":["http://hl7.org/fhir/us/qicore/StructureDefinition/qicore-immunization"]},"status":"completed","vaccineCode":{"coding":[{"system":"http://hl7.org/fhir/sid/cvx","code":"94","display":"measles, mumps, rubella, and varicella virus vaccine"}]},"patient":{"reference":"Patient/46362f30-f48e-4839-a562-941e85cf55ea"},"occurrenceDateTime":"2024-01-02T00:00:00.000Z","recorded":"2024-01-02T00:00:00.000Z","primarySource":true},"request":{"method":"PUT","url":"Immunization/d04d4162-d9db-45a7-8966-209f2d917068"}},{"fullUrl":"https://madie.cms.gov/Immunization/Immunization-4a","resource":{"resourceType":"Immunization","id":"dba417d7-8c92-4161-a6da-299d6f44f874","meta":{"profile":["http://hl7.org/fhir/us/qicore/StructureDefinition/qicore-immunization"]},"status":"completed","vaccineCode":{"coding":[{"system":"http://hl7.org/fhir/sid/cvx","code":"49","display":"Haemophilus influenzae type b vaccine, PRP-OMP conjugate"}]},"patient":{"reference":"Patient/46362f30-f48e-4839-a562-941e85cf55ea"},"occurrenceDateTime":"2024-01-02T00:00:00.000Z","recorded":"2024-01-02T00:00:00.000Z","primarySource":true},"request":{"method":"PUT","url":"Immunization/dba417d7-8c92-4161-a6da-299d6f44f874"}},{"fullUrl":"https://madie.cms.gov/Immunization/Immunization-4b","resource":{"resourceType":"Immunization","id":"7b29306b-0a3f-45f0-a1cc-ba9d51708716","meta":{"profile":["http://hl7.org/fhir/us/qicore/StructureDefinition/qicore-immunization"]},"status":"completed","vaccineCode":{"coding":[{"system":"http://hl7.org/fhir/sid/cvx","code":"49","display":"Haemophilus influenzae type b vaccine, PRP-OMP conjugate"}]},"patient":{"reference":"Patient/46362f30-f48e-4839-a562-941e85cf55ea"},"occurrenceDateTime":"2024-01-02T00:00:00.000Z","recorded":"2024-01-02T00:00:00.000Z","primarySource":true},"request":{"method":"PUT","url":"Immunization/7b29306b-0a3f-45f0-a1cc-ba9d51708716"}},{"fullUrl":"https://madie.cms.gov/Immunization/Immunization-4c","resource":{"resourceType":"Immunization","id":"5d3fba2d-6cba-4036-9989-a8f61764927a","meta":{"profile":["http://hl7.org/fhir/us/qicore/StructureDefinition/qicore-immunization"]},"status":"completed","vaccineCode":{"coding":[{"system":"http://hl7.org/fhir/sid/cvx","code":"49","display":"Haemophilus influenzae type b vaccine, PRP-OMP conjugate"}]},"patient":{"reference":"Patient/46362f30-f48e-4839-a562-941e85cf55ea"},"occurrenceDateTime":"2024-01-02T00:00:00.000Z","recorded":"2024-01-02T00:00:00.000Z","primarySource":true},"request":{"method":"PUT","url":"Immunization/5d3fba2d-6cba-4036-9989-a8f61764927a"}},{"fullUrl":"https://madie.cms.gov/Immunization/Immunization-5a","resource":{"resourceType":"Immunization","id":"a6a667a7-ff30-481b-927f-8a0c5aecc375","meta":{"profile":["http://hl7.org/fhir/us/qicore/StructureDefinition/qicore-immunization"]},"status":"completed","vaccineCode":{"coding":[{"system":"http://hl7.org/fhir/sid/cvx","code":"51","display":"Haemophilus influenzae type b conjugate and Hepatitis B vaccine"}]},"patient":{"reference":"Patient/46362f30-f48e-4839-a562-941e85cf55ea"},"occurrenceDateTime":"2024-01-02T00:00:00.000Z","recorded":"2024-01-02T00:00:00.000Z","primarySource":true},"request":{"method":"PUT","url":"Immunization/a6a667a7-ff30-481b-927f-8a0c5aecc375"}},{"fullUrl":"https://madie.cms.gov/Immunization/Immunization-5b","resource":{"resourceType":"Immunization","id":"eaebc125-1ad8-4f39-bf62-eda488bfc039","meta":{"profile":["http://hl7.org/fhir/us/qicore/StructureDefinition/qicore-immunization"]},"status":"completed","vaccineCode":{"coding":[{"system":"http://hl7.org/fhir/sid/cvx","code":"51","display":"Haemophilus influenzae type b conjugate and Hepatitis B vaccine"}]},"patient":{"reference":"Patient/46362f30-f48e-4839-a562-941e85cf55ea"},"occurrenceDateTime":"2024-01-10T00:00:00.000Z","recorded":"2024-01-02T00:00:00.000Z","primarySource":true},"request":{"method":"PUT","url":"Immunization/eaebc125-1ad8-4f39-bf62-eda488bfc039"}},{"fullUrl":"https://madie.cms.gov/Immunization/Immunization-5c","resource":{"resourceType":"Immunization","id":"b0ef8d01-4ddf-474d-9b0e-b28a5efdab1b","meta":{"profile":["http://hl7.org/fhir/us/qicore/StructureDefinition/qicore-immunization"]},"status":"completed","vaccineCode":{"coding":[{"system":"http://hl7.org/fhir/sid/cvx","code":"51","display":"Haemophilus influenzae type b conjugate and Hepatitis B vaccine"}]},"patient":{"reference":"Patient/46362f30-f48e-4839-a562-941e85cf55ea"},"occurrenceDateTime":"2024-01-12T00:00:00.000Z","recorded":"2024-01-02T00:00:00.000Z","primarySource":true},"request":{"method":"PUT","url":"Immunization/b0ef8d01-4ddf-474d-9b0e-b28a5efdab1b"}},{"fullUrl":"https://madie.cms.gov/Immunization/Immunization-6","resource":{"resourceType":"Immunization","id":"6b8d5c82-0803-4cf8-800f-472031e746a9","meta":{"profile":["http://hl7.org/fhir/us/qicore/StructureDefinition/qicore-immunization"]},"status":"completed","vaccineCode":{"coding":[{"system":"http://hl7.org/fhir/sid/cvx","code":"94","display":"measles, mumps, rubella, and varicella virus vaccine"}]},"patient":{"reference":"Patient/46362f30-f48e-4839-a562-941e85cf55ea"},"occurrenceDateTime":"2024-01-02T00:00:00.000Z","recorded":"2024-01-02T00:00:00.000Z","primarySource":true},"request":{"method":"PUT","url":"Immunization/6b8d5c82-0803-4cf8-800f-472031e746a9"}},{"fullUrl":"https://madie.cms.gov/Immunization/Immunization-7a","resource":{"resourceType":"Immunization","id":"72b9bcd7-bd37-41e5-b250-13596ccee1dd","meta":{"profile":["http://hl7.org/fhir/us/qicore/StructureDefinition/qicore-immunization"]},"status":"completed","vaccineCode":{"coding":[{"system":"http://hl7.org/fhir/sid/cvx","code":"215","display":"Pneumococcal conjugate vaccine 15-valent (PCV15), polysaccharide CRM197 conjugate, adjuvant, preservative free"}]},"patient":{"reference":"Patient/46362f30-f48e-4839-a562-941e85cf55ea"},"occurrenceDateTime":"2024-01-12T00:00:00.000Z","recorded":"2024-01-02T00:00:00.000Z","primarySource":true},"request":{"method":"PUT","url":"Immunization/72b9bcd7-bd37-41e5-b250-13596ccee1dd"}},{"fullUrl":"https://madie.cms.gov/Immunization/Immunization-7b","resource":{"resourceType":"Immunization","id":"8473feee-9077-458d-a77a-5cdb74354e6d","meta":{"profile":["http://hl7.org/fhir/us/qicore/StructureDefinition/qicore-immunization"]},"status":"completed","vaccineCode":{"coding":[{"system":"http://hl7.org/fhir/sid/cvx","code":"215","display":"Pneumococcal conjugate vaccine 15-valent (PCV15), polysaccharide CRM197 conjugate, adjuvant, preservative free"}]},"patient":{"reference":"Patient/46362f30-f48e-4839-a562-941e85cf55ea"},"occurrenceDateTime":"2024-01-14T00:00:00.000Z","recorded":"2024-01-02T00:00:00.000Z","primarySource":true},"request":{"method":"PUT","url":"Immunization/8473feee-9077-458d-a77a-5cdb74354e6d"}},{"fullUrl":"https://madie.cms.gov/Immunization/Immunization-7c","resource":{"resourceType":"Immunization","id":"2dcc4884-5feb-4663-b04f-3423efb512e3","meta":{"profile":["http://hl7.org/fhir/us/qicore/StructureDefinition/qicore-immunization"]},"status":"completed","vaccineCode":{"coding":[{"system":"http://hl7.org/fhir/sid/cvx","code":"215","display":"Pneumococcal conjugate vaccine 15-valent (PCV15), polysaccharide CRM197 conjugate, adjuvant, preservative free"}]},"patient":{"reference":"Patient/46362f30-f48e-4839-a562-941e85cf55ea"},"occurrenceDateTime":"2024-01-20T00:00:00.000Z","recorded":"2024-01-02T00:00:00.000Z","primarySource":true},"request":{"method":"PUT","url":"Immunization/2dcc4884-5feb-4663-b04f-3423efb512e3"}},{"fullUrl":"https://madie.cms.gov/Immunization/Immunization-7d","resource":{"resourceType":"Immunization","id":"b6d773cb-0616-49b3-9723-e6d922264e29","meta":{"profile":["http://hl7.org/fhir/us/qicore/StructureDefinition/qicore-immunization"]},"status":"completed","vaccineCode":{"coding":[{"system":"http://hl7.org/fhir/sid/cvx","code":"215","display":"Pneumococcal conjugate vaccine 15-valent (PCV15), polysaccharide CRM197 conjugate, adjuvant, preservative free"}]},"patient":{"reference":"Patient/46362f30-f48e-4839-a562-941e85cf55ea"},"occurrenceDateTime":"2024-01-22T00:00:00.000Z","recorded":"2024-01-02T00:00:00.000Z","primarySource":true},"request":{"method":"PUT","url":"Immunization/b6d773cb-0616-49b3-9723-e6d922264e29"}},{"fullUrl":"https://madie.cms.gov/Immunization/Immunization-8","resource":{"resourceType":"Immunization","id":"3149cbeb-e606-4853-b232-18324dc10067","meta":{"profile":["http://hl7.org/fhir/us/qicore/StructureDefinition/qicore-immunization"]},"status":"completed","vaccineCode":{"coding":[{"system":"http://hl7.org/fhir/sid/cvx","code":"85","display":"hepatitis A vaccine, unspecified formulation"}]},"patient":{"reference":"Patient/46362f30-f48e-4839-a562-941e85cf55ea"},"occurrenceDateTime":"2024-01-02T00:00:00.000Z","recorded":"2024-01-02T00:00:00.000Z","primarySource":true},"request":{"method":"PUT","url":"Immunization/3149cbeb-e606-4853-b232-18324dc10067"}},{"fullUrl":"https://madie.cms.gov/Immunization/Immunization-9a","resource":{"resourceType":"Immunization","id":"0622f58f-a47b-49ac-9fa6-19570e4122ab","meta":{"profile":["http://hl7.org/fhir/us/qicore/StructureDefinition/qicore-immunization"]},"status":"completed","vaccineCode":{"coding":[{"system":"http://hl7.org/fhir/sid/cvx","code":"119","display":"rotavirus, live, monovalent vaccine"}]},"patient":{"reference":"Patient/46362f30-f48e-4839-a562-941e85cf55ea"},"occurrenceDateTime":"2024-01-02T00:00:00.000Z","recorded":"2024-01-02T00:00:00.000Z","primarySource":true},"request":{"method":"PUT","url":"Immunization/0622f58f-a47b-49ac-9fa6-19570e4122ab"}},{"fullUrl":"https://madie.cms.gov/Immunization/Immunization-9b","resource":{"resourceType":"Immunization","id":"f00bfd91-cbea-4f80-848a-d7e0d09219b7","meta":{"profile":["http://hl7.org/fhir/us/qicore/StructureDefinition/qicore-immunization"]},"status":"completed","vaccineCode":{"coding":[{"system":"http://hl7.org/fhir/sid/cvx","code":"119","display":"rotavirus, live, monovalent vaccine"}]},"patient":{"reference":"Patient/46362f30-f48e-4839-a562-941e85cf55ea"},"occurrenceDateTime":"2024-01-07T00:00:00.000Z","recorded":"2024-01-02T00:00:00.000Z","primarySource":true},"request":{"method":"PUT","url":"Immunization/f00bfd91-cbea-4f80-848a-d7e0d09219b7"}},{"fullUrl":"https://madie.cms.gov/Immunization/Immunization-10a","resource":{"resourceType":"Immunization","id":"6cd6f661-4832-4b63-a384-186657ac1a42","meta":{"profile":["http://hl7.org/fhir/us/qicore/StructureDefinition/qicore-immunization"]},"status":"completed","vaccineCode":{"coding":[{"system":"http://hl7.org/fhir/sid/cvx","code":"153","display":"\tInfluenza, injectable, Madin Darby Canine Kidney, preservative free"}]},"patient":{"reference":"Patient/46362f30-f48e-4839-a562-941e85cf55ea"},"occurrenceDateTime":"2024-01-02T00:00:00.000Z","recorded":"2024-01-02T00:00:00.000Z","primarySource":true},"request":{"method":"PUT","url":"Immunization/6cd6f661-4832-4b63-a384-186657ac1a42"}},{"fullUrl":"https://madie.cms.gov/Immunization/Immunization-10b","resource":{"resourceType":"Immunization","id":"67d643e6-8c04-488e-a67d-6e243488600f","meta":{"profile":["http://hl7.org/fhir/us/qicore/StructureDefinition/qicore-immunization"]},"status":"completed","vaccineCode":{"coding":[{"system":"http://hl7.org/fhir/sid/cvx","code":"149","display":"influenza, live, intranasal, quadrivalent"}]},"patient":{"reference":"Patient/46362f30-f48e-4839-a562-941e85cf55ea"},"occurrenceDateTime":"2025-01-01T00:00:00.000Z","recorded":"2025-01-01T00:00:00.000Z","primarySource":true},"request":{"method":"PUT","url":"Immunization/67d643e6-8c04-488e-a67d-6e243488600f"}},{"fullUrl":"https://madie.cms.gov/MeasureReport/9829b306-58aa-48d2-86fc-d5210b423da7","resource":{"resourceType":"MeasureReport","id":"9829b306-58aa-48d2-86fc-d5210b423da7","meta":{"profile":["http://hl7.org/fhir/us/cqfmeasures/StructureDefinition/test-case-cqfm"]},"contained":[{"resourceType":"Parameters","id":"fff0e97a-e38f-4798-b277-0b703813d9c7-parameters","parameter":[{"name":"subject","valueString":"46362f30-f48e-4839-a562-941e85cf55ea"}]}],"extension":[{"url":"http://hl7.org/fhir/us/cqfmeasures/StructureDefinition/cqfm-inputParameters","valueReference":{"reference":"#fff0e97a-e38f-4798-b277-0b703813d9c7-parameters"}},{"url":"http://hl7.org/fhir/us/cqfmeasures/StructureDefinition/cqfm-testCaseDescription","valueMarkdown":"Patient has LAIV"}],"modifierExtension":[{"url":"http://hl7.org/fhir/us/cqfmeasures/StructureDefinition/cqfm-isTestCase","valueBoolean":true}],"status":"complete","type":"individual","measure":"https://madie.cms.gov/Measure/ChildhoodImmunizationStatusFHIR","period":{"start":"2025-01-01","end":"2025-12-31"},"group":[{"population":[{"code":{"coding":[{"system":"http://terminology.hl7.org/CodeSystem/measure-population","code":"initial-population","display":"Initial Population"}]},"count":1},{"code":{"coding":[{"system":"http://terminology.hl7.org/CodeSystem/measure-population","code":"denominator","display":"Denominator"}]},"count":1},{"code":{"coding":[{"system":"http://terminology.hl7.org/CodeSystem/measure-population","code":"denominator-exclusion","display":"Denominator Exclusion"}]},"count":0},{"code":{"coding":[{"system":"http://terminology.hl7.org/CodeSystem/measure-population","code":"numerator","display":"Numerator"}]},"count":1}]}]},"request":{"method":"PUT","url":"MeasureReport/9829b306-58aa-48d2-86fc-d5210b423da7"}}]}