{
  "resourceType": "Bundle",
  "id": "6129134802c62a011f2e6ecd",
  "type": "transaction",
  "entry": [ {
    "fullUrl": "https://madie.cms.gov/Patient/ba8bb5f1-966b-4ac1-a311-b2550c0e4858",
    "resource": {
      "resourceType": "Patient",
      "id": "ba8bb5f1-966b-4ac1-a311-b2550c0e4858",
      "meta": {
        "profile": [ "http://hl7.org/fhir/us/qicore/StructureDefinition/qicore-patient" ]
      },
      "text": {
        "status": "generated",
        "div": "<div xmlns=\"http://www.w3.org/1999/xhtml\"><div class=\"hapiHeaderText\"> CMOdurObs_ED&lt;1hrObs=1hrBFEnc <b>DENEXPASS </b></div><table class=\"hapiPropertyTable\"><tbody><tr><td>Identifier</td><td>dc7e6049ea43f7ad31b61fb7a8136fca8505eb34b7c74639e804e4d17e525cbe</td></tr><tr><td>Date of birth</td><td><span>21 August 1994</span></td></tr></tbody></table></div>"
      },
      "extension": [ {
        "url": "http://hl7.org/fhir/us/core/StructureDefinition/us-core-race",
        "extension": [ {
          "url": "ombCategory",
          "valueCoding": {
            "system": "urn:oid:2.16.840.1.113883.6.238",
            "code": "1002-5",
            "display": "American Indian or Alaska Native",
            "userSelected": true
          }
        }, {
          "url": "text",
          "valueString": "American Indian or Alaska Native"
        } ]
      }, {
        "url": "http://hl7.org/fhir/us/core/StructureDefinition/us-core-ethnicity",
        "extension": [ {
          "url": "ombCategory",
          "valueCoding": {
            "system": "urn:oid:2.16.840.1.113883.6.238",
            "code": "2135-2",
            "display": "Hispanic or Latino",
            "userSelected": true
          }
        }, {
          "url": "text",
          "valueString": "Hispanic or Latino"
        } ]
      } ],
      "identifier": [ {
        "type": {
          "coding": [ {
            "system": "http://terminology.hl7.org/CodeSystem/v2-0203",
            "code": "MR"
          } ]
        },
        "system": "https://bonnie-fhir.healthit.gov/",
        "value": "6129134802c62a011f2e6ecd"
      } ],
      "active": true,
      "name": [ {
        "use": "usual",
        "family": "DENEXPass",
        "given": [ "CMOdurObs_ED<1hrObs=1hrBFEnc" ]
      } ],
      "gender": "male",
      "birthDate": "1995-08-21"
    },
    "request": {
      "method": "PUT",
      "url": "Patient/ba8bb5f1-966b-4ac1-a311-b2550c0e4858"
    }
  }, {
    "fullUrl": "https://madie.cms.gov/Encounter/1e0fa6cb-6487-4d70-9f9d-c5ed42bf0e09",
    "resource": {
      "resourceType": "Encounter",
      "id": "1e0fa6cb-6487-4d70-9f9d-c5ed42bf0e09",
      "meta": {
        "profile": [ "http://hl7.org/fhir/us/qicore/StructureDefinition/qicore-encounter" ]
      },
      "status": "finished",
      "class": {
        "system": "http://terminology.hl7.org/CodeSystem/v3-ActCode",
        "code": "EMER",
        "display": "emergency",
        "userSelected": true
      },
      "type": [ {
        "coding": [ {
          "system": "http://snomed.info/sct",
          "code": "4525004"
        } ]
      } ],
      "subject": {
        "reference": "Patient/ba8bb5f1-966b-4ac1-a311-b2550c0e4858"
      },
      "period": {
        "start": "2026-10-10T07:30:00.000+00:00",
        "end": "2026-10-10T08:00:00.000+00:00"
      },
      "length": {
        "value": 0,
        "unit": "days"
      }
    },
    "request": {
      "method": "PUT",
      "url": "Encounter/1e0fa6cb-6487-4d70-9f9d-c5ed42bf0e09"
    }
  }, {
    "fullUrl": "https://madie.cms.gov/Encounter/ad6bcd5a-acf1-4cfa-aadc-569a6bac8451",
    "resource": {
      "resourceType": "Encounter",
      "id": "ad6bcd5a-acf1-4cfa-aadc-569a6bac8451",
      "meta": {
        "profile": [ "http://hl7.org/fhir/us/qicore/StructureDefinition/qicore-encounter" ]
      },
      "status": "finished",
      "class": {
        "system": "http://terminology.hl7.org/CodeSystem/v3-ActCode",
        "code": "OBSENC",
        "display": "observation encounter",
        "userSelected": true
      },
      "type": [ {
        "coding": [ {
          "system": "http://snomed.info/sct",
          "code": "448951000124107"
        } ]
      } ],
      "subject": {
        "reference": "Patient/ba8bb5f1-966b-4ac1-a311-b2550c0e4858"
      },
      "period": {
        "start": "2026-10-10T08:01:00.000+00:00",
        "end": "2026-10-10T08:05:00.000+00:00"
      },
      "length": {
        "value": 0,
        "unit": "days"
      }
    },
    "request": {
      "method": "PUT",
      "url": "Encounter/ad6bcd5a-acf1-4cfa-aadc-569a6bac8451"
    }
  }, {
    "fullUrl": "https://madie.cms.gov/Encounter/8a5450df-eec6-4434-bf86-84c1b5fc2da2",
    "resource": {
      "resourceType": "Encounter",
      "id": "8a5450df-eec6-4434-bf86-84c1b5fc2da2",
      "meta": {
        "profile": [ "http://hl7.org/fhir/us/qicore/StructureDefinition/qicore-encounter" ]
      },
      "status": "finished",
      "class": {
        "system": "http://terminology.hl7.org/CodeSystem/v3-ActCode",
        "code": "IMP",
        "display": "inpatient encounter",
        "userSelected": true
      },
      "type": [ {
        "coding": [ {
          "system": "http://snomed.info/sct",
          "code": "32485007"
        } ]
      } ],
      "subject": {
        "reference": "Patient/ba8bb5f1-966b-4ac1-a311-b2550c0e4858"
      },
      "period": {
        "start": "2026-10-10T09:05:00.000+00:00",
        "end": "2026-10-12T10:30:00.000+00:00"
      },
      "length": {
        "value": 2,
        "unit": "days"
      },
      "diagnosis": [ {
        "condition": {
          "reference": "Condition/e9deda0f-6e8a-46bc-bb0e-31b9b6d73aea"
        },
        "use": {
          "coding": [ {
            "system": "http://terminology.hl7.org/CodeSystem/diagnosis-role",
            "code": "billing",
            "display": "Billing"
          } ]
        },
        "rank": 1
      } ]
    },
    "request": {
      "method": "PUT",
      "url": "Encounter/8a5450df-eec6-4434-bf86-84c1b5fc2da2"
    }
  }, {
    "fullUrl": "https://madie.cms.gov/ServiceRequest/1d08302c-84cc-4554-a0b6-94a4e724a13e",
    "resource": {
      "resourceType": "ServiceRequest",
      "id": "1d08302c-84cc-4554-a0b6-94a4e724a13e",
      "meta": {
        "profile": [ "http://hl7.org/fhir/us/qicore/StructureDefinition/qicore-servicerequest" ]
      },
      "status": "active",
      "intent": "order",
      "code": {
        "coding": [ {
          "system": "http://snomed.info/sct",
          "code": "133918004"
        } ]
      },
      "subject": {
        "reference": "Patient/ba8bb5f1-966b-4ac1-a311-b2550c0e4858"
      },
      "authoredOn": "2026-10-10T08:01:00.000+00:00"
    },
    "request": {
      "method": "PUT",
      "url": "ServiceRequest/1d08302c-84cc-4554-a0b6-94a4e724a13e"
    }
  }, {
    "fullUrl": "https://madie.cms.gov/Condition/e9deda0f-6e8a-46bc-bb0e-31b9b6d73aea",
    "resource": {
      "resourceType": "Condition",
      "id": "e9deda0f-6e8a-46bc-bb0e-31b9b6d73aea",
      "meta": {
        "profile": [ "http://hl7.org/fhir/us/qicore/StructureDefinition/qicore-condition" ]
      },
      "clinicalStatus": {
        "coding": [ {
          "system": "http://terminology.hl7.org/CodeSystem/condition-clinical",
          "code": "active"
        } ]
      },
      "verificationStatus": {
        "coding": [ {
          "system": "http://terminology.hl7.org/CodeSystem/condition-ver-status",
          "code": "confirmed"
        } ]
      },
      "category": [ {
        "coding": [ {
          "system": "http://terminology.hl7.org/CodeSystem/condition-category",
          "code": "encounter-diagnosis",
          "display": "Encounter Diagnosis"
        } ]
      } ],
      "code": {
        "coding": [ {
          "system": "http://snomed.info/sct",
          "version": "2020-09",
          "code": "111297002",
          "display": "Nonparalytic stroke (disorder)",
          "userSelected": true
        } ]
      },
      "subject": {
        "reference": "Patient/ba8bb5f1-966b-4ac1-a311-b2550c0e4858"
      },
      "recordedDate": "2026-07-14T08:00:00.000+00:00"
    },
    "request": {
      "method": "PUT",
      "url": "Condition/e9deda0f-6e8a-46bc-bb0e-31b9b6d73aea"
    }
  }, {
    "fullUrl": "https://madie.cms.gov/MeasureReport/441b09d1-01d7-45c4-929a-f0f9cc1bbc4e",
    "resource": {
      "resourceType": "MeasureReport",
      "id": "441b09d1-01d7-45c4-929a-f0f9cc1bbc4e",
      "meta": {
        "profile": [ "http://hl7.org/fhir/us/cqfmeasures/StructureDefinition/test-case-cqfm" ]
      },
      "contained": [ {
        "resourceType": "Parameters",
        "id": "7f7a5c25-9755-44ed-beb0-c12ad8d61095-parameters",
        "parameter": [ {
          "name": "subject",
          "valueString": "ba8bb5f1-966b-4ac1-a311-b2550c0e4858"
        } ]
      } ],
      "extension": [ {
        "url": "http://hl7.org/fhir/us/cqfmeasures/StructureDefinition/cqfm-inputParameters",
        "valueReference": {
          "reference": "#7f7a5c25-9755-44ed-beb0-c12ad8d61095-parameters"
        }
      }, {
        "url": "http://hl7.org/fhir/us/cqfmeasures/StructureDefinition/cqfm-testCaseDescription",
        "valueMarkdown": "Patient receives CMO during observation.ED ends 1 min before Obs. Obs ends 60 min before inpatient encounter start. Testing day of operator with HospitalizationWithObservation function."
      } ],
      "modifierExtension": [ {
        "url": "http://hl7.org/fhir/us/cqfmeasures/StructureDefinition/cqfm-isTestCase",
        "valueBoolean": true
      } ],
      "status": "complete",
      "type": "individual",
      "measure": "https://madie.cms.gov/Measure/CMS104FHIRSTKDCAntithrombotic",
      "period": {
        "start": "2026-01-01",
        "end": "2026-12-31"
      },
      "group": [ {
        "population": [ {
          "code": {
            "coding": [ {
              "system": "http://terminology.hl7.org/CodeSystem/measure-population",
              "code": "initial-population",
              "display": "Initial Population"
            } ]
          },
          "count": 1
        }, {
          "code": {
            "coding": [ {
              "system": "http://terminology.hl7.org/CodeSystem/measure-population",
              "code": "denominator",
              "display": "Denominator"
            } ]
          },
          "count": 1
        }, {
          "code": {
            "coding": [ {
              "system": "http://terminology.hl7.org/CodeSystem/measure-population",
              "code": "denominator-exclusion",
              "display": "Denominator Exclusion"
            } ]
          },
          "count": 1
        }, {
          "code": {
            "coding": [ {
              "system": "http://terminology.hl7.org/CodeSystem/measure-population",
              "code": "numerator",
              "display": "Numerator"
            } ]
          },
          "count": 0
        }, {
          "code": {
            "coding": [ {
              "system": "http://terminology.hl7.org/CodeSystem/measure-population",
              "code": "denominator-exception",
              "display": "Denominator Exception"
            } ]
          },
          "count": 0
        } ]
      } ],
      "evaluatedResource": [ {
        "reference": "Patient/ba8bb5f1-966b-4ac1-a311-b2550c0e4858"
      }, {
        "reference": "Encounter/1e0fa6cb-6487-4d70-9f9d-c5ed42bf0e09"
      }, {
        "reference": "Encounter/ad6bcd5a-acf1-4cfa-aadc-569a6bac8451"
      }, {
        "reference": "Encounter/8a5450df-eec6-4434-bf86-84c1b5fc2da2"
      }, {
        "reference": "ServiceRequest/1d08302c-84cc-4554-a0b6-94a4e724a13e"
      }, {
        "reference": "Condition/e9deda0f-6e8a-46bc-bb0e-31b9b6d73aea"
      } ]
    },
    "request": {
      "method": "PUT",
      "url": "MeasureReport/441b09d1-01d7-45c4-929a-f0f9cc1bbc4e"
    }
  } ]
}