{
  "resourceType": "Bundle",
  "id": "363b28a9-e77d-4fee-aaaf-73ebb35bc57c",
  "type": "transaction",
  "entry": [ {
    "fullUrl": "https://madie.cms.gov/Patient/41217ce4-1628-4779-a9ab-4134c5901715",
    "resource": {
      "resourceType": "Patient",
      "id": "41217ce4-1628-4779-a9ab-4134c5901715",
      "meta": {
        "profile": [ "http://hl7.org/fhir/us/qicore/StructureDefinition/qicore-patient" ]
      },
      "extension": [ {
        "url": "http://hl7.org/fhir/us/core/StructureDefinition/us-core-race",
        "extension": [ {
          "url": "ombCategory",
          "valueCoding": {
            "system": "urn:oid:2.16.840.1.113883.6.238",
            "code": "2106-3",
            "display": "White"
          }
        }, {
          "url": "text",
          "valueString": "White"
        } ]
      }, {
        "url": "http://hl7.org/fhir/us/core/StructureDefinition/us-core-ethnicity",
        "extension": [ {
          "url": "ombCategory",
          "valueCoding": {
            "system": "urn:oid:2.16.840.1.113883.6.238",
            "code": "2135-2",
            "display": "Hispanic or Latino"
          }
        }, {
          "url": "text",
          "valueString": "Hispanic or Latino"
        } ]
      } ],
      "identifier": [ {
        "system": "http://hospital.smarthealthit.org",
        "value": "999999999"
      } ],
      "name": [ {
        "family": "Example",
        "given": [ "Patient" ]
      } ],
      "gender": "male",
      "birthDate": "1956-01-01"
    },
    "request": {
      "method": "PUT",
      "url": "Patient/41217ce4-1628-4779-a9ab-4134c5901715"
    }
  }, {
    "fullUrl": "https://madie.cms.gov/Encounter/f5cfff1e-5612-4d8f-aaf5-8c6e5454b682",
    "resource": {
      "resourceType": "Encounter",
      "id": "f5cfff1e-5612-4d8f-aaf5-8c6e5454b682",
      "meta": {
        "profile": [ "http://hl7.org/fhir/us/qicore/StructureDefinition/qicore-encounter" ]
      },
      "status": "finished",
      "class": {
        "system": "http://terminology.hl7.org/CodeSystem/v3-ActCode",
        "code": "IMP",
        "display": "inpatient encounter"
      },
      "type": [ {
        "coding": [ {
          "system": "http://snomed.info/sct",
          "code": "183452005"
        } ]
      } ],
      "subject": {
        "reference": "Patient/41217ce4-1628-4779-a9ab-4134c5901715"
      },
      "period": {
        "start": "2026-04-07T08:00:00.000Z",
        "end": "2026-04-11T08:15:00.000Z"
      }
    },
    "request": {
      "method": "PUT",
      "url": "Encounter/f5cfff1e-5612-4d8f-aaf5-8c6e5454b682"
    }
  }, {
    "fullUrl": "https://madie.cms.gov/Condition/62507cd8-96eb-42d6-9e13-b508dc3f7990",
    "resource": {
      "resourceType": "Condition",
      "id": "62507cd8-96eb-42d6-9e13-b508dc3f7990",
      "meta": {
        "profile": [ "http://hl7.org/fhir/us/qicore/StructureDefinition/qicore-condition" ]
      },
      "category": [ {
        "coding": [ {
          "system": "http://terminology.hl7.org/CodeSystem/condition-category",
          "code": "encounter-diagnosis",
          "display": "Encounter Diagnosis"
        } ]
      } ],
      "code": {
        "coding": [ {
          "system": "http://hl7.org/fhir/sid/icd-10-cm",
          "code": "E10.21",
          "display": "Type 1 diabetes mellitus with diabetic nephropathy"
        } ]
      },
      "subject": {
        "reference": "Patient/41217ce4-1628-4779-a9ab-4134c5901715"
      },
      "onsetDateTime": "2011-01-02"
    },
    "request": {
      "method": "PUT",
      "url": "Condition/62507cd8-96eb-42d6-9e13-b508dc3f7990"
    }
  }, {
    "fullUrl": "https://madie.cms.gov/Observation/0e2c1928-2d7e-44a2-a697-3c9868d0595a",
    "resource": {
      "resourceType": "Observation",
      "id": "0e2c1928-2d7e-44a2-a697-3c9868d0595a",
      "meta": {
        "profile": [ "http://hl7.org/fhir/us/qicore/StructureDefinition/qicore-observation" ]
      },
      "status": "final",
      "category": [ {
        "coding": [ {
          "system": "http://terminology.hl7.org/CodeSystem/observation-category",
          "code": "laboratory",
          "display": "Laboratory"
        } ]
      } ],
      "code": {
        "coding": [ {
          "system": "http://loinc.org",
          "version": "2.72",
          "code": "1556-0",
          "display": "Fasting glucose [Mass/volume] in Capillary blood",
          "userSelected": true
        } ]
      },
      "subject": {
        "reference": "Patient/41217ce4-1628-4779-a9ab-4134c5901715"
      },
      "effectiveDateTime": "2026-04-07T08:00:00.000+00:00",
      "valueQuantity": {
        "value": 1001,
        "unit": "mg/dL"
      }
    },
    "request": {
      "method": "PUT",
      "url": "Observation/0e2c1928-2d7e-44a2-a697-3c9868d0595a"
    }
  }, {
    "fullUrl": "https://madie.cms.gov/MeasureReport/55e5a2fe-1673-4df3-a2f8-1efd0fd98f39",
    "resource": {
      "resourceType": "MeasureReport",
      "id": "55e5a2fe-1673-4df3-a2f8-1efd0fd98f39",
      "meta": {
        "profile": [ "http://hl7.org/fhir/us/cqfmeasures/StructureDefinition/test-case-cqfm" ]
      },
      "contained": [ {
        "resourceType": "Parameters",
        "id": "5bf30712-0fe1-42bf-962b-2c379ae5a0b3-parameters",
        "parameter": [ {
          "name": "subject",
          "valueString": "41217ce4-1628-4779-a9ab-4134c5901715"
        } ]
      } ],
      "extension": [ {
        "url": "http://hl7.org/fhir/us/cqfmeasures/StructureDefinition/cqfm-inputParameters",
        "valueReference": {
          "reference": "#5bf30712-0fe1-42bf-962b-2c379ae5a0b3-parameters"
        }
      }, {
        "url": "http://hl7.org/fhir/us/cqfmeasures/StructureDefinition/cqfm-testCaseDescription",
        "valueMarkdown": "IP Encounter with glucose >1000 1 hour prior to encounter start. Meets exclusion. "
      } ],
      "modifierExtension": [ {
        "url": "http://hl7.org/fhir/us/cqfmeasures/StructureDefinition/cqfm-isTestCase",
        "valueBoolean": true
      } ],
      "status": "complete",
      "type": "individual",
      "measure": "https://madie.cms.gov/Measure/HospitalHarmHyperglycemiainHospitalizedPatientsFHIR",
      "period": {
        "start": "2026-01-01",
        "end": "2026-12-31"
      },
      "group": [ {
        "population": [ {
          "code": {
            "coding": [ {
              "system": "http://terminology.hl7.org/CodeSystem/measure-population",
              "code": "initial-population",
              "display": "Initial Population"
            } ]
          },
          "count": 1
        }, {
          "code": {
            "coding": [ {
              "system": "http://terminology.hl7.org/CodeSystem/measure-population",
              "code": "denominator",
              "display": "Denominator"
            } ]
          },
          "count": 1
        }, {
          "code": {
            "coding": [ {
              "system": "http://terminology.hl7.org/CodeSystem/measure-population",
              "code": "denominator-exclusion",
              "display": "Denominator Exclusion"
            } ]
          },
          "count": 1
        }, {
          "code": {
            "coding": [ {
              "system": "http://terminology.hl7.org/CodeSystem/measure-population",
              "code": "numerator",
              "display": "Numerator"
            } ]
          },
          "count": 0
        } ]
      } ],
      "evaluatedResource": [ {
        "reference": "Patient/41217ce4-1628-4779-a9ab-4134c5901715"
      }, {
        "reference": "Encounter/f5cfff1e-5612-4d8f-aaf5-8c6e5454b682"
      }, {
        "reference": "Condition/62507cd8-96eb-42d6-9e13-b508dc3f7990"
      }, {
        "reference": "Observation/0e2c1928-2d7e-44a2-a697-3c9868d0595a"
      } ]
    },
    "request": {
      "method": "PUT",
      "url": "MeasureReport/55e5a2fe-1673-4df3-a2f8-1efd0fd98f39"
    }
  } ]
}