{"resourceType":"Bundle","id":"tests-79915431-9035-4e4c-811a-bcc9b927d15b-bundle","type":"transaction","entry":[{"fullUrl":"https://madie.cms.gov/Patient/79915431-9035-4e4c-811a-bcc9b927d15b","resource":{"resourceType":"Patient","id":"79915431-9035-4e4c-811a-bcc9b927d15b","meta":{"profile":["http://hl7.org/fhir/us/qicore/StructureDefinition/qicore-patient"]},"extension":[{"url":"http://hl7.org/fhir/us/core/StructureDefinition/us-core-race","extension":[{"url":"ombCategory","valueCoding":{"system":"urn:oid:2.16.840.1.113883.6.238","code":"2028-9","display":"Asian"}},{"url":"text","valueString":"Asian"}]},{"url":"http://hl7.org/fhir/us/core/StructureDefinition/us-core-ethnicity","extension":[{"url":"ombCategory","valueCoding":{"system":"urn:oid:2.16.840.1.113883.6.238","code":"2135-2","display":"Hispanic or Latino"}},{"url":"text","valueString":"Hispanic or Latino"}]}],"identifier":[{"system":"http://hospital.smarthealthit.org","value":"999999995"}],"name":[{"family":"Bertha","given":["Betty"]}],"gender":"female","birthDate":"1958-12-31"},"request":{"method":"PUT","url":"Patient/79915431-9035-4e4c-811a-bcc9b927d15b"}},{"fullUrl":"https://madie.cms.gov/Encounter/Encounter-53","resource":{"resourceType":"Encounter","id":"Encounter-53","meta":{"profile":["http://hl7.org/fhir/us/qicore/StructureDefinition/qicore-encounter"]},"status":"finished","class":{"system":"http://terminology.hl7.org/CodeSystem/v3-ActCode","code":"AMB","display":"ambulatory"},"type":[{"coding":[{"system":"http://snomed.info/sct","code":"185460008","display":"Home visit request by patient (procedure)"}]}],"subject":{"reference":"Patient/79915431-9035-4e4c-811a-bcc9b927d15b"},"period":{"start":"2025-01-01T00:00:00.000Z","end":"2025-01-01T00:15:00.000Z"}},"request":{"method":"PUT","url":"Encounter/Encounter-53"}},{"fullUrl":"https://madie.cms.gov/Condition/Condition-47","resource":{"resourceType":"Condition","id":"Condition-47","meta":{"profile":["http://hl7.org/fhir/us/qicore/StructureDefinition/qicore-condition"]},"clinicalStatus":{"coding":[{"system":"http://terminology.hl7.org/CodeSystem/condition-clinical","code":"active"}]},"category":[{"coding":[{"system":"http://terminology.hl7.org/CodeSystem/condition-category","code":"problem-list-item","display":"Problem List Item"}]}],"code":{"coding":[{"system":"http://snomed.info/sct","code":"102781000119107","display":"Sensory neuropathy due to type 1 diabetes mellitus (disorder)"}]},"subject":{"reference":"Patient/79915431-9035-4e4c-811a-bcc9b927d15b"},"onsetDateTime":"2025-01-01T23:59:00.000Z"},"request":{"method":"PUT","url":"Condition/Condition-47"}},{"fullUrl":"https://madie.cms.gov/Condition/Condition-48","resource":{"resourceType":"Condition","id":"Condition-48","meta":{"profile":["http://hl7.org/fhir/us/qicore/StructureDefinition/qicore-condition"]},"clinicalStatus":{"coding":[{"system":"http://terminology.hl7.org/CodeSystem/condition-clinical","code":"active"}]},"category":[{"coding":[{"system":"http://terminology.hl7.org/CodeSystem/condition-category","code":"problem-list-item","display":"Problem List Item"}]}],"code":{"coding":[{"system":"http://snomed.info/sct","code":"101421000119107","display":"Dementia due to Parkinson's disease (disorder)"}]},"subject":{"reference":"Patient/79915431-9035-4e4c-811a-bcc9b927d15b"},"onsetDateTime":"2024-12-31T23:59:59.000Z"},"request":{"method":"PUT","url":"Condition/Condition-48"}},{"fullUrl":"https://madie.cms.gov/Encounter/Encounter-54","resource":{"resourceType":"Encounter","id":"Encounter-54","meta":{"profile":["http://hl7.org/fhir/us/qicore/StructureDefinition/qicore-encounter"]},"status":"finished","class":{"system":"http://terminology.hl7.org/CodeSystem/v3-ActCode","code":"AMB","display":"ambulatory"},"type":[{"coding":[{"system":"http://snomed.info/sct","code":"183450002","display":"Admission to burn unit (procedure)"}]}],"subject":{"reference":"Patient/79915431-9035-4e4c-811a-bcc9b927d15b"},"period":{"start":"2025-05-01T00:00:00.000Z","end":"2025-05-01T01:00:00.000Z"}},"request":{"method":"PUT","url":"Encounter/Encounter-54"}},{"fullUrl":"https://madie.cms.gov/DeviceRequest/DeviceRequest-6","resource":{"resourceType":"DeviceRequest","id":"DeviceRequest-6","meta":{"profile":["http://hl7.org/fhir/us/qicore/StructureDefinition/qicore-devicerequest"]},"modifierExtension":[{"url":"http://hl7.org/fhir/us/qicore/StructureDefinition/qicore-doNotPeform","valueBoolean":false}],"status":"completed","intent":"order","codeCodeableConcept":{"coding":[{"system":"http://snomed.info/sct","code":"183240000","display":"Self-propelled wheelchair (physical object)"}]},"subject":{"reference":"Patient/79915431-9035-4e4c-811a-bcc9b927d15b"},"authoredOn":"2025-11-01T23:59:00.000Z"},"request":{"method":"PUT","url":"DeviceRequest/DeviceRequest-6"}},{"fullUrl":"https://madie.cms.gov/MeasureReport/86d3c66a-51eb-4979-a0ca-0ae668839d46","resource":{"resourceType":"MeasureReport","id":"86d3c66a-51eb-4979-a0ca-0ae668839d46","meta":{"profile":["http://hl7.org/fhir/us/cqfmeasures/StructureDefinition/test-case-cqfm"]},"contained":[{"resourceType":"Parameters","id":"23cef748-79d4-4e9d-9417-f3cd31c6c64d-parameters","parameter":[{"name":"subject","valueString":"79915431-9035-4e4c-811a-bcc9b927d15b"}]}],"extension":[{"url":"http://hl7.org/fhir/us/cqfmeasures/StructureDefinition/cqfm-inputParameters","valueReference":{"reference":"#23cef748-79d4-4e9d-9417-f3cd31c6c64d-parameters"}},{"url":"http://hl7.org/fhir/us/cqfmeasures/StructureDefinition/cqfm-testCaseDescription","valueMarkdown":"One inpatient visit during the MP with no encounter diagnosis"}],"modifierExtension":[{"url":"http://hl7.org/fhir/us/cqfmeasures/StructureDefinition/cqfm-isTestCase","valueBoolean":true}],"status":"complete","type":"individual","measure":"https://madie.cms.gov/Measure/DiabetesHemoglobinA1cHbA1cPoorControl9FHIR","period":{"start":"2025-01-01","end":"2025-12-31"},"group":[{"population":[{"code":{"coding":[{"system":"http://terminology.hl7.org/CodeSystem/measure-population","code":"initial-population","display":"Initial Population"}]},"count":1},{"code":{"coding":[{"system":"http://terminology.hl7.org/CodeSystem/measure-population","code":"denominator","display":"Denominator"}]},"count":1},{"code":{"coding":[{"system":"http://terminology.hl7.org/CodeSystem/measure-population","code":"denominator-exclusion","display":"Denominator Exclusion"}]},"count":0},{"code":{"coding":[{"system":"http://terminology.hl7.org/CodeSystem/measure-population","code":"numerator","display":"Numerator"}]},"count":1}]}],"evaluatedResource":[{"reference":"Patient/79915431-9035-4e4c-811a-bcc9b927d15b"},{"reference":"Encounter/Encounter-53"},{"reference":"Condition/Condition-47"},{"reference":"Condition/Condition-48"},{"reference":"Encounter/Encounter-54"},{"reference":"DeviceRequest/DeviceRequest-6"}]},"request":{"method":"PUT","url":"MeasureReport/86d3c66a-51eb-4979-a0ca-0ae668839d46"}}]}