{"resourceType":"Bundle","id":"tests-0ffa64bf-29c7-478b-aaaf-9cb19bb6245e-bundle","type":"transaction","entry":[{"fullUrl":"https://madie.cms.gov/Patient/0ffa64bf-29c7-478b-aaaf-9cb19bb6245e","resource":{"resourceType":"Patient","id":"0ffa64bf-29c7-478b-aaaf-9cb19bb6245e","meta":{"profile":["http://hl7.org/fhir/us/qicore/StructureDefinition/qicore-patient"]},"extension":[{"url":"http://hl7.org/fhir/us/core/StructureDefinition/us-core-race","extension":[{"url":"ombCategory","valueCoding":{"system":"urn:oid:2.16.840.1.113883.6.238","code":"2028-9","display":"Asian"}},{"url":"text","valueString":"Asian"}]},{"url":"http://hl7.org/fhir/us/core/StructureDefinition/us-core-ethnicity","extension":[{"url":"ombCategory","valueCoding":{"system":"urn:oid:2.16.840.1.113883.6.238","code":"2135-2","display":"Hispanic or Latino"}},{"url":"text","valueString":"Hispanic or Latino"}]}],"identifier":[{"system":"http://hospital.smarthealthit.org","value":"999999995"}],"name":[{"family":"Bertha","given":["Betty"]}],"gender":"female","birthDate":"1958-12-31"},"request":{"method":"PUT","url":"Patient/0ffa64bf-29c7-478b-aaaf-9cb19bb6245e"}},{"fullUrl":"https://madie.cms.gov/Encounter/Encounter-9","resource":{"resourceType":"Encounter","id":"Encounter-9","meta":{"profile":["http://hl7.org/fhir/us/qicore/StructureDefinition/qicore-encounter"]},"status":"finished","class":{"system":"http://terminology.hl7.org/CodeSystem/v3-ActCode","code":"AMB","display":"ambulatory"},"type":[{"coding":[{"system":"http://snomed.info/sct","code":"185460008","display":"Home visit request by patient (procedure)"}]}],"subject":{"reference":"Patient/0ffa64bf-29c7-478b-aaaf-9cb19bb6245e"},"period":{"start":"2025-01-01T00:00:00.000Z","end":"2025-01-01T00:15:00.000Z"}},"request":{"method":"PUT","url":"Encounter/Encounter-9"}},{"fullUrl":"https://madie.cms.gov/Condition/Condition-8","resource":{"resourceType":"Condition","id":"Condition-8","meta":{"profile":["http://hl7.org/fhir/us/qicore/StructureDefinition/qicore-condition"]},"clinicalStatus":{"coding":[{"system":"http://terminology.hl7.org/CodeSystem/condition-clinical","code":"active"}]},"category":[{"coding":[{"system":"http://terminology.hl7.org/CodeSystem/condition-category","code":"problem-list-item","display":"Problem List Item"}]}],"code":{"coding":[{"system":"http://snomed.info/sct","code":"102781000119107","display":"Sensory neuropathy due to type 1 diabetes mellitus (disorder)"}]},"subject":{"reference":"Patient/0ffa64bf-29c7-478b-aaaf-9cb19bb6245e"},"onsetDateTime":"2025-01-01T23:59:00.000Z"},"request":{"method":"PUT","url":"Condition/Condition-8"}},{"fullUrl":"https://madie.cms.gov/Condition/Condition-9","resource":{"resourceType":"Condition","id":"Condition-9","meta":{"profile":["http://hl7.org/fhir/us/qicore/StructureDefinition/qicore-condition"]},"clinicalStatus":{"coding":[{"system":"http://terminology.hl7.org/CodeSystem/condition-clinical","code":"active"}]},"category":[{"coding":[{"system":"http://terminology.hl7.org/CodeSystem/condition-category","code":"problem-list-item","display":"Problem List Item"}]}],"code":{"coding":[{"system":"http://snomed.info/sct","code":"101421000119107","display":"Dementia due to Parkinson's disease (disorder)"}]},"subject":{"reference":"Patient/0ffa64bf-29c7-478b-aaaf-9cb19bb6245e"},"onsetDateTime":"2024-12-31T23:59:59.000Z"},"request":{"method":"PUT","url":"Condition/Condition-9"}},{"fullUrl":"https://madie.cms.gov/Encounter/Encounter-10","resource":{"resourceType":"Encounter","id":"Encounter-10","meta":{"profile":["http://hl7.org/fhir/us/qicore/StructureDefinition/qicore-encounter"]},"status":"finished","class":{"system":"http://terminology.hl7.org/CodeSystem/v3-ActCode","code":"AMB","display":"ambulatory"},"type":[{"coding":[{"system":"http://snomed.info/sct","code":"4525004","display":"Emergency department patient visit (procedure)"}]}],"subject":{"reference":"Patient/0ffa64bf-29c7-478b-aaaf-9cb19bb6245e"},"period":{"start":"2025-05-01T00:00:00.000Z","end":"2025-05-01T01:00:00.000Z"},"diagnosis":[{"condition":{"reference":"Condition/Condition-9"}}]},"request":{"method":"PUT","url":"Encounter/Encounter-10"}},{"fullUrl":"https://madie.cms.gov/Encounter/Encounter-11","resource":{"resourceType":"Encounter","id":"Encounter-11","meta":{"profile":["http://hl7.org/fhir/us/qicore/StructureDefinition/qicore-encounter"]},"status":"finished","class":{"system":"http://terminology.hl7.org/CodeSystem/v3-ActCode","code":"AMB","display":"ambulatory"},"type":[{"coding":[{"system":"http://snomed.info/sct","code":"4525004","display":"Emergency department patient visit (procedure)"}]}],"subject":{"reference":"Patient/0ffa64bf-29c7-478b-aaaf-9cb19bb6245e"},"period":{"start":"2025-05-01T00:00:00.000Z","end":"2025-05-01T01:00:00.000Z"},"diagnosis":[{"condition":{"reference":"Condition/Condition-9"}}]},"request":{"method":"PUT","url":"Encounter/Encounter-11"}},{"fullUrl":"https://madie.cms.gov/DeviceRequest/DeviceRequest-2","resource":{"resourceType":"DeviceRequest","id":"DeviceRequest-2","meta":{"profile":["http://hl7.org/fhir/us/qicore/StructureDefinition/qicore-devicerequest"]},"modifierExtension":[{"url":"http://hl7.org/fhir/us/qicore/StructureDefinition/qicore-doNotPeform","valueBoolean":false}],"status":"completed","intent":"order","codeCodeableConcept":{"coding":[{"system":"http://snomed.info/sct","code":"183240000","display":"Self-propelled wheelchair (physical object)"}]},"subject":{"reference":"Patient/0ffa64bf-29c7-478b-aaaf-9cb19bb6245e"},"authoredOn":"2025-11-01T23:59:00.000Z"},"request":{"method":"PUT","url":"DeviceRequest/DeviceRequest-2"}},{"fullUrl":"https://madie.cms.gov/MeasureReport/1653716d-ff1e-4629-8859-9b44c3f5d527","resource":{"resourceType":"MeasureReport","id":"1653716d-ff1e-4629-8859-9b44c3f5d527","meta":{"profile":["http://hl7.org/fhir/us/cqfmeasures/StructureDefinition/test-case-cqfm"]},"contained":[{"resourceType":"Parameters","id":"e1ba9ea8-bc27-4bd9-b8c7-4e50c5b9f327-parameters","parameter":[{"name":"subject","valueString":"0ffa64bf-29c7-478b-aaaf-9cb19bb6245e"}]}],"extension":[{"url":"http://hl7.org/fhir/us/cqfmeasures/StructureDefinition/cqfm-inputParameters","valueReference":{"reference":"#e1ba9ea8-bc27-4bd9-b8c7-4e50c5b9f327-parameters"}},{"url":"http://hl7.org/fhir/us/cqfmeasures/StructureDefinition/cqfm-testCaseDescription","valueMarkdown":"Two outpatient visits on the same day of service"}],"modifierExtension":[{"url":"http://hl7.org/fhir/us/cqfmeasures/StructureDefinition/cqfm-isTestCase","valueBoolean":true}],"status":"complete","type":"individual","measure":"https://madie.cms.gov/Measure/DiabetesHemoglobinA1cHbA1cPoorControl9FHIR","period":{"start":"2025-01-01","end":"2025-12-31"},"group":[{"population":[{"code":{"coding":[{"system":"http://terminology.hl7.org/CodeSystem/measure-population","code":"initial-population","display":"Initial Population"}]},"count":1},{"code":{"coding":[{"system":"http://terminology.hl7.org/CodeSystem/measure-population","code":"denominator","display":"Denominator"}]},"count":1},{"code":{"coding":[{"system":"http://terminology.hl7.org/CodeSystem/measure-population","code":"denominator-exclusion","display":"Denominator Exclusion"}]},"count":0},{"code":{"coding":[{"system":"http://terminology.hl7.org/CodeSystem/measure-population","code":"numerator","display":"Numerator"}]},"count":1}]}],"evaluatedResource":[{"reference":"Patient/0ffa64bf-29c7-478b-aaaf-9cb19bb6245e"},{"reference":"Encounter/Encounter-9"},{"reference":"Condition/Condition-8"},{"reference":"Condition/Condition-9"},{"reference":"Encounter/Encounter-10"},{"reference":"Encounter/Encounter-11"},{"reference":"DeviceRequest/DeviceRequest-2"}]},"request":{"method":"PUT","url":"MeasureReport/1653716d-ff1e-4629-8859-9b44c3f5d527"}}]}