{"resourceType":"Bundle","id":"tests-3ca65cc7-2f5b-4d0b-987f-dfd9a26fd0ea-bundle","type":"transaction","entry":[{"fullUrl":"https://madie.cms.gov/Patient/3ca65cc7-2f5b-4d0b-987f-dfd9a26fd0ea","resource":{"resourceType":"Patient","id":"3ca65cc7-2f5b-4d0b-987f-dfd9a26fd0ea","meta":{"profile":["http://hl7.org/fhir/us/qicore/StructureDefinition/qicore-patient"]},"text":{"status":"generated","div":"<div xmlns=\"http://www.w3.org/1999/xhtml\"><div class=\"hapiHeaderText\">CMOPerf_RvltDTDayofAnesRvltDT <b>DENEXPASS </b></div><table class=\"hapiPropertyTable\"><tbody><tr><td>Identifier</td><td>ee7153b84916a96927e2b346d9ea62ff</td></tr><tr><td>Date of birth</td><td><span>02 January 1974</span></td></tr></tbody></table></div>"},"extension":[{"url":"http://hl7.org/fhir/us/core/StructureDefinition/us-core-race","extension":[{"url":"ombCategory","valueCoding":{"system":"urn:oid:2.16.840.1.113883.6.238","code":"1002-5","display":"American Indian or Alaska Native","userSelected":true}},{"url":"text","valueString":"American Indian or Alaska Native"}]},{"url":"http://hl7.org/fhir/us/core/StructureDefinition/us-core-ethnicity","extension":[{"url":"ombCategory","valueCoding":{"system":"urn:oid:2.16.840.1.113883.6.238","code":"2135-2","display":"Hispanic or Latino","userSelected":true}},{"url":"text","valueString":"Hispanic or Latino"}]}],"identifier":[{"type":{"coding":[{"system":"http://terminology.hl7.org/CodeSystem/v2-0203","code":"MR"}]},"system":"https://bonnie-fhir.healthit.gov/","value":"612e6b2102c62a011f2ec95b"}],"active":true,"name":[{"use":"usual","family":"DENEXPass","given":["CMOPerf_RvltDTDayofAnesRvltDT"]}],"gender":"male","birthDate":"1975-01-02"},"request":{"method":"PUT","url":"Patient/3ca65cc7-2f5b-4d0b-987f-dfd9a26fd0ea"}},{"fullUrl":"https://madie.cms.gov/Encounter/4214cfe8-de76-4cab-9e98-be9b593c7bca","resource":{"resourceType":"Encounter","id":"4214cfe8-de76-4cab-9e98-be9b593c7bca","meta":{"profile":["http://hl7.org/fhir/us/qicore/StructureDefinition/qicore-encounter"]},"status":"finished","class":{"system":"http://terminology.hl7.org/CodeSystem/v3-ActCode","code":"IMP","display":"inpatient encounter"},"type":[{"coding":[{"system":"http://snomed.info/sct","code":"8715000"}]}],"subject":{"reference":"Patient/3ca65cc7-2f5b-4d0b-987f-dfd9a26fd0ea"},"period":{"start":"2026-11-01T08:00:00+00:00","end":"2026-11-26T08:15:00+00:00"},"length":{"value":25.0,"unit":"days"}},"request":{"method":"PUT","url":"Encounter/4214cfe8-de76-4cab-9e98-be9b593c7bca"}},{"fullUrl":"https://madie.cms.gov/Procedure/ba27c757-c183-4453-9b9b-51a4f0c998de","resource":{"resourceType":"Procedure","id":"ba27c757-c183-4453-9b9b-51a4f0c998de","meta":{"profile":["http://hl7.org/fhir/us/qicore/StructureDefinition/qicore-procedure"]},"extension":[{"url":"http://hl7.org/fhir/us/qicore/StructureDefinition/qicore-recorded","valueDateTime":"2013-11-02T09:35:00-04:00"}],"status":"completed","code":{"coding":[{"system":"http://snomed.info/sct","code":"133918004"}]},"subject":{"reference":"Patient/3ca65cc7-2f5b-4d0b-987f-dfd9a26fd0ea"},"performedDateTime":"2026-11-02T08:00:00.000+00:00"},"request":{"method":"PUT","url":"Procedure/ba27c757-c183-4453-9b9b-51a4f0c998de"}},{"fullUrl":"https://madie.cms.gov/Coverage/ffc2796e-7228-474f-a311-5675d8b40d21","resource":{"resourceType":"Coverage","id":"ffc2796e-7228-474f-a311-5675d8b40d21","status":"active","beneficiary":{"reference":"Patient/3ca65cc7-2f5b-4d0b-987f-dfd9a26fd0ea"},"period":{"start":"1975-01-02T08:00:00+00:00"},"payor":[{"reference":"Organization/607fdef9-3983-4cef-ab1a-95434d29b463"}]},"request":{"method":"PUT","url":"Coverage/ffc2796e-7228-474f-a311-5675d8b40d21"}},{"fullUrl":"https://madie.cms.gov/Procedure/db76f4e0-5421-4c8c-a478-e0621f91049d","resource":{"resourceType":"Procedure","id":"db76f4e0-5421-4c8c-a478-e0621f91049d","meta":{"profile":["http://hl7.org/fhir/us/qicore/StructureDefinition/qicore-procedure"]},"extension":[{"url":"http://hl7.org/fhir/us/qicore/StructureDefinition/qicore-recorded","valueDateTime":"2013-11-03T09:35:00-04:00"}],"status":"completed","code":{"coding":[{"system":"http://www.cms.gov/Medicare/Coding/ICD10","code":"3E030FZ"}]},"subject":{"reference":"Patient/3ca65cc7-2f5b-4d0b-987f-dfd9a26fd0ea"},"performedDateTime":"2026-11-02T09:15:00+00:00"},"request":{"method":"PUT","url":"Procedure/db76f4e0-5421-4c8c-a478-e0621f91049d"}},{"fullUrl":"https://madie.cms.gov/Organization/f95beb2a-d0c4-4175-96ab-ef15bd818e96","resource":{"resourceType":"Organization","id":"607fdef9-3983-4cef-ab1a-95434d29b463","meta":{"profile":["http://hl7.org/fhir/us/qicore/StructureDefinition/qicore-organization"]},"identifier":[{"use":"temp","system":"urn:oid:2.16.840.1.113883.4.4","value":"21-3259825"}],"active":true,"type":[{"coding":[{"system":"http://terminology.hl7.org/CodeSystem/organization-type","code":"pay","display":"Payer"}]}],"name":"Blue Cross Blue Shield of Texas","telecom":[{"system":"phone","value":"(+1) 972-766-6900"}],"address":[{"use":"billing","type":"postal","line":["P.O. Box 660044"],"city":"Dallas","state":"TX","postalCode":"75266-0044","country":"USA"}]},"request":{"method":"PUT","url":"Organization/607fdef9-3983-4cef-ab1a-95434d29b463"}},{"fullUrl":"https://madie.cms.gov/Practitioner/7bdfd818-de3b-432e-a484-42bd9d7d833e","resource":{"resourceType":"Practitioner","id":"7bdfd818-de3b-432e-a484-42bd9d7d833e","identifier":[{"system":"http://hl7.org/fhir/sid/us-npi","value":"123456"}],"name":[{"family":"Evil","prefix":["Dr"]}]},"request":{"method":"PUT","url":"Practitioner/7bdfd818-de3b-432e-a484-42bd9d7d833e"}},{"fullUrl":"https://madie.cms.gov/MeasureReport/2c466637-1ef0-4498-8393-0a96c58f8977","resource":{"resourceType":"MeasureReport","id":"2c466637-1ef0-4498-8393-0a96c58f8977","meta":{"profile":["http://hl7.org/fhir/us/cqfmeasures/StructureDefinition/test-case-cqfm"]},"contained":[{"resourceType":"Parameters","id":"577d47f5-fa52-432f-8bb0-a8ced3ff7934-parameters","parameter":[{"name":"subject","valueString":"3ca65cc7-2f5b-4d0b-987f-dfd9a26fd0ea"}]}],"extension":[{"url":"http://hl7.org/fhir/us/cqfmeasures/StructureDefinition/cqfm-inputParameters","valueReference":{"reference":"#577d47f5-fa52-432f-8bb0-a8ced3ff7934-parameters"}},{"url":"http://hl7.org/fhir/us/cqfmeasures/StructureDefinition/cqfm-testCaseDescription","valueMarkdown":"comfort measures performed revelantdatetime =0 day after end of anesthesia end revelantDatetime\n"}],"modifierExtension":[{"url":"http://hl7.org/fhir/us/cqfmeasures/StructureDefinition/cqfm-isTestCase","valueBoolean":true}],"status":"complete","type":"individual","measure":"https://madie.cms.gov/Measure/CMS108VTEProphylaxisFHIR","period":{"start":"2026-01-01","end":"2026-12-31"},"group":[{"population":[{"code":{"coding":[{"system":"http://terminology.hl7.org/CodeSystem/measure-population","code":"initial-population","display":"Initial Population"}]},"count":1},{"code":{"coding":[{"system":"http://terminology.hl7.org/CodeSystem/measure-population","code":"denominator","display":"Denominator"}]},"count":1},{"code":{"coding":[{"system":"http://terminology.hl7.org/CodeSystem/measure-population","code":"denominator-exclusion","display":"Denominator Exclusion"}]},"count":1},{"code":{"coding":[{"system":"http://terminology.hl7.org/CodeSystem/measure-population","code":"numerator","display":"Numerator"}]},"count":0}]}]},"request":{"method":"PUT","url":"MeasureReport/2c466637-1ef0-4498-8393-0a96c58f8977"}}]}