{"resourceType":"Bundle","id":"tests-d69b5757-4a47-4f3f-b138-88a11272880b-bundle","type":"transaction","entry":[{"fullUrl":"https://madie.cms.gov/Patient/d69b5757-4a47-4f3f-b138-88a11272880b","resource":{"resourceType":"Patient","id":"d69b5757-4a47-4f3f-b138-88a11272880b","meta":{"profile":["http://hl7.org/fhir/us/qicore/StructureDefinition/qicore-patient"]},"text":{"status":"generated","div":"<div xmlns=\"http://www.w3.org/1999/xhtml\"><div class=\"hapiHeaderText\">SCIP_NeuroRank1_ProRvltDTDuringEnc <b>DENEXPASS </b></div><table class=\"hapiPropertyTable\"><tbody><tr><td>Identifier</td><td>66c70c125db369967b4b164e75338304</td></tr><tr><td>Date of birth</td><td><span>01 September 2000</span></td></tr></tbody></table></div>"},"extension":[{"url":"http://hl7.org/fhir/us/core/StructureDefinition/us-core-race","extension":[{"url":"ombCategory","valueCoding":{"system":"urn:oid:2.16.840.1.113883.6.238","code":"1002-5","display":"American Indian or Alaska Native","userSelected":true}},{"url":"text","valueString":"American Indian or Alaska Native"}]},{"url":"http://hl7.org/fhir/us/core/StructureDefinition/us-core-ethnicity","extension":[{"url":"ombCategory","valueCoding":{"system":"urn:oid:2.16.840.1.113883.6.238","code":"2135-2","display":"Hispanic or Latino","userSelected":true}},{"url":"text","valueString":"Hispanic or Latino"}]}],"identifier":[{"type":{"coding":[{"system":"http://terminology.hl7.org/CodeSystem/v2-0203","code":"MR"}]},"system":"https://bonnie-fhir.healthit.gov/","value":"612e6b2202c62a011f2ec9a3"}],"active":true,"name":[{"use":"usual","family":"DENEXPass","given":["SCIP_NeuroRank1_ProRvltDTDuringEnc"]}],"gender":"male","birthDate":"2001-09-01"},"request":{"method":"PUT","url":"Patient/d69b5757-4a47-4f3f-b138-88a11272880b"}},{"fullUrl":"https://madie.cms.gov/Encounter/377f0ef6-8fbd-4c27-a579-76842b8177f6","resource":{"resourceType":"Encounter","id":"377f0ef6-8fbd-4c27-a579-76842b8177f6","meta":{"profile":["http://hl7.org/fhir/us/qicore/StructureDefinition/qicore-encounter"]},"extension":[{"url":"http://hl7.org/fhir/us/qicore/StructureDefinition/qicore-encounter-procedure","extension":[{"url":"type","valueCodeableConcept":{"coding":[{"system":"http://www.cms.gov/Medicare/Coding/ICD10","code":"0W910ZZ","display":"Drainage of Cranial Cavity, Open Approach"}]}},{"url":"rank","valuePositiveInt":1},{"url":"procedure","valueReference":{"reference":"Procedure/21ed0a3f-7344-4f49-bc9c-75d4d6a380c8"}}]}],"status":"finished","class":{"system":"http://terminology.hl7.org/CodeSystem/v3-ActCode","code":"IMP","display":"inpatient encounter"},"type":[{"coding":[{"system":"http://snomed.info/sct","code":"183452005"}]}],"subject":{"reference":"Patient/d69b5757-4a47-4f3f-b138-88a11272880b"},"period":{"start":"2026-09-02T06:00:00+00:00","end":"2026-12-31T12:59:00+00:00"},"length":{"value":120.0,"unit":"days"}},"request":{"method":"PUT","url":"Encounter/377f0ef6-8fbd-4c27-a579-76842b8177f6"}},{"fullUrl":"https://madie.cms.gov/Coverage/00ba4491-ab7f-40e4-87ee-ab54a17dc969","resource":{"resourceType":"Coverage","id":"00ba4491-ab7f-40e4-87ee-ab54a17dc969","status":"active","beneficiary":{"reference":"Patient/d69b5757-4a47-4f3f-b138-88a11272880b"},"period":{"start":"2001-09-01T08:00:00+00:00"},"payor":[{"reference":"Organization/db141f66-a1cc-407b-9e95-adac27adee14"}]},"request":{"method":"PUT","url":"Coverage/00ba4491-ab7f-40e4-87ee-ab54a17dc969"}},{"fullUrl":"https://madie.cms.gov/Procedure/21ed0a3f-7344-4f49-bc9c-75d4d6a380c8","resource":{"resourceType":"Procedure","id":"21ed0a3f-7344-4f49-bc9c-75d4d6a380c8","meta":{"profile":["http://hl7.org/fhir/us/qicore/StructureDefinition/qicore-procedure"]},"extension":[{"url":"http://hl7.org/fhir/us/qicore/StructureDefinition/qicore-recorded","valueDateTime":"2013-09-02T09:35:00-04:00"}],"status":"completed","code":{"coding":[{"system":"http://www.cms.gov/Medicare/Coding/ICD10","code":"0W910ZZ","display":"Drainage of Cranial Cavity, Open Approach"}]},"subject":{"reference":"Patient/d69b5757-4a47-4f3f-b138-88a11272880b"},"performedDateTime":"2026-09-02T09:00:00+00:00"},"request":{"method":"PUT","url":"Procedure/21ed0a3f-7344-4f49-bc9c-75d4d6a380c8"}},{"fullUrl":"https://madie.cms.gov/Organization/568c8936-73df-48f8-b1da-4a9f483143c3","resource":{"resourceType":"Organization","id":"db141f66-a1cc-407b-9e95-adac27adee14","meta":{"profile":["http://hl7.org/fhir/us/qicore/StructureDefinition/qicore-organization"]},"identifier":[{"use":"temp","system":"urn:oid:2.16.840.1.113883.4.4","value":"21-3259825"}],"active":true,"type":[{"coding":[{"system":"http://terminology.hl7.org/CodeSystem/organization-type","code":"pay","display":"Payer"}]}],"name":"Blue Cross Blue Shield of Texas","telecom":[{"system":"phone","value":"(+1) 972-766-6900"}],"address":[{"use":"billing","type":"postal","line":["P.O. Box 660044"],"city":"Dallas","state":"TX","postalCode":"75266-0044","country":"USA"}]},"request":{"method":"PUT","url":"Organization/db141f66-a1cc-407b-9e95-adac27adee14"}},{"fullUrl":"https://madie.cms.gov/Practitioner/3d438371-932c-4383-a255-1733fd3613d2","resource":{"resourceType":"Practitioner","id":"3d438371-932c-4383-a255-1733fd3613d2","identifier":[{"system":"http://hl7.org/fhir/sid/us-npi","value":"123456"}],"name":[{"family":"Evil","prefix":["Dr"]}]},"request":{"method":"PUT","url":"Practitioner/3d438371-932c-4383-a255-1733fd3613d2"}},{"fullUrl":"https://madie.cms.gov/MeasureReport/da7794e2-b8fc-4968-81d6-88cc0b88b157","resource":{"resourceType":"MeasureReport","id":"da7794e2-b8fc-4968-81d6-88cc0b88b157","meta":{"profile":["http://hl7.org/fhir/us/cqfmeasures/StructureDefinition/test-case-cqfm"]},"contained":[{"resourceType":"Parameters","id":"e7662785-bbf3-42c3-aa98-cb11f1f7dd28-parameters","parameter":[{"name":"subject","valueString":"d69b5757-4a47-4f3f-b138-88a11272880b"}]}],"extension":[{"url":"http://hl7.org/fhir/us/cqfmeasures/StructureDefinition/cqfm-inputParameters","valueReference":{"reference":"#e7662785-bbf3-42c3-aa98-cb11f1f7dd28-parameters"}},{"url":"http://hl7.org/fhir/us/cqfmeasures/StructureDefinition/cqfm-testCaseDescription","valueMarkdown":"Patient had SCIP -NeruoSurg during Encounter and Rank =1\n"}],"modifierExtension":[{"url":"http://hl7.org/fhir/us/cqfmeasures/StructureDefinition/cqfm-isTestCase","valueBoolean":true}],"status":"complete","type":"individual","measure":"https://madie.cms.gov/Measure/CMS108VTEProphylaxisFHIR","period":{"start":"2026-01-01","end":"2026-12-31"},"group":[{"population":[{"code":{"coding":[{"system":"http://terminology.hl7.org/CodeSystem/measure-population","code":"initial-population","display":"Initial Population"}]},"count":1},{"code":{"coding":[{"system":"http://terminology.hl7.org/CodeSystem/measure-population","code":"denominator","display":"Denominator"}]},"count":1},{"code":{"coding":[{"system":"http://terminology.hl7.org/CodeSystem/measure-population","code":"denominator-exclusion","display":"Denominator Exclusion"}]},"count":1},{"code":{"coding":[{"system":"http://terminology.hl7.org/CodeSystem/measure-population","code":"numerator","display":"Numerator"}]},"count":0}]}]},"request":{"method":"PUT","url":"MeasureReport/da7794e2-b8fc-4968-81d6-88cc0b88b157"}}]}