{"resourceType":"Bundle","id":"tests-52790be5-0f6e-4ebd-85f5-57f35db8b56b-bundle","type":"transaction","entry":[{"fullUrl":"https://madie.cms.gov/Patient/52790be5-0f6e-4ebd-85f5-57f35db8b56b","resource":{"resourceType":"Patient","id":"52790be5-0f6e-4ebd-85f5-57f35db8b56b","meta":{"profile":["http://hl7.org/fhir/us/qicore/StructureDefinition/qicore-patient"]},"text":{"status":"generated","div":"<div xmlns=\"http://www.w3.org/1999/xhtml\"><div class=\"hapiHeaderText\">MA_InjXa_AnesEndTime <b>NUMERPASS </b></div><table class=\"hapiPropertyTable\"><tbody><tr><td>Identifier</td><td>68fdbac80fad91f1aff86d5fdd2da67c</td></tr><tr><td>Date of birth</td><td><span>02 January 1974</span></td></tr></tbody></table></div>"},"extension":[{"url":"http://hl7.org/fhir/us/core/StructureDefinition/us-core-race","extension":[{"url":"ombCategory","valueCoding":{"system":"urn:oid:2.16.840.1.113883.6.238","code":"1002-5","display":"American Indian or Alaska Native","userSelected":true}},{"url":"text","valueString":"American Indian or Alaska Native"}]},{"url":"http://hl7.org/fhir/us/core/StructureDefinition/us-core-ethnicity","extension":[{"url":"ombCategory","valueCoding":{"system":"urn:oid:2.16.840.1.113883.6.238","code":"2135-2","display":"Hispanic or Latino","userSelected":true}},{"url":"text","valueString":"Hispanic or Latino"}]}],"identifier":[{"type":{"coding":[{"system":"http://terminology.hl7.org/CodeSystem/v2-0203","code":"MR"}]},"system":"https://bonnie-fhir.healthit.gov/","value":"612e6b7802c62a011f2edd94"}],"active":true,"name":[{"use":"usual","family":"NUMERPass","given":["MA_InjXa_AnesEndTime"]}],"gender":"male","birthDate":"1975-01-02"},"request":{"method":"PUT","url":"Patient/52790be5-0f6e-4ebd-85f5-57f35db8b56b"}},{"fullUrl":"https://madie.cms.gov/Encounter/f6a04b65-642e-4319-b6c4-02223a81bbcd","resource":{"resourceType":"Encounter","id":"f6a04b65-642e-4319-b6c4-02223a81bbcd","meta":{"profile":["http://hl7.org/fhir/us/qicore/StructureDefinition/qicore-encounter"]},"status":"finished","class":{"system":"http://terminology.hl7.org/CodeSystem/v3-ActCode","code":"IMP","display":"inpatient encounter"},"type":[{"coding":[{"system":"http://snomed.info/sct","code":"8715000"}]}],"subject":{"reference":"Patient/52790be5-0f6e-4ebd-85f5-57f35db8b56b"},"period":{"start":"2026-11-01T00:00:00+00:00","end":"2026-11-30T23:59:00+00:00"},"length":{"value":29.0,"unit":"days"}},"request":{"method":"PUT","url":"Encounter/f6a04b65-642e-4319-b6c4-02223a81bbcd"}},{"fullUrl":"https://madie.cms.gov/Coverage/d2873fe8-16be-4300-93a8-1295fdcd3273","resource":{"resourceType":"Coverage","id":"d2873fe8-16be-4300-93a8-1295fdcd3273","status":"active","beneficiary":{"reference":"Patient/52790be5-0f6e-4ebd-85f5-57f35db8b56b"},"period":{"start":"1975-01-02T08:00:00+00:00"},"payor":[{"reference":"Organization/5ad6ea38-07e9-4482-9e1b-c09eee595be9"}]},"request":{"method":"PUT","url":"Coverage/d2873fe8-16be-4300-93a8-1295fdcd3273"}},{"fullUrl":"https://madie.cms.gov/MedicationAdministration/c6a962f3-0daa-41e3-8b2f-8dc55418f193","resource":{"resourceType":"MedicationAdministration","id":"c6a962f3-0daa-41e3-8b2f-8dc55418f193","meta":{"profile":["http://hl7.org/fhir/us/qicore/StructureDefinition/qicore-medicationadministration"]},"status":"completed","medicationCodeableConcept":{"coding":[{"system":"http://www.nlm.nih.gov/research/umls/rxnorm","code":"861356"}]},"subject":{"reference":"Patient/52790be5-0f6e-4ebd-85f5-57f35db8b56b"},"effectivePeriod":{"start":"2026-11-01T01:00:00+00:00"}},"request":{"method":"PUT","url":"MedicationAdministration/c6a962f3-0daa-41e3-8b2f-8dc55418f193"}},{"fullUrl":"https://madie.cms.gov/Procedure/dbc14285-0971-42d1-8148-b493bd1939eb","resource":{"resourceType":"Procedure","id":"dbc14285-0971-42d1-8148-b493bd1939eb","meta":{"profile":["http://hl7.org/fhir/us/qicore/StructureDefinition/qicore-procedure"]},"extension":[{"url":"http://hl7.org/fhir/us/qicore/StructureDefinition/qicore-recorded","valueDateTime":"2013-11-01T09:35:00-04:00"}],"status":"completed","code":{"coding":[{"system":"http://www.icd10data.com/icd10pcs","code":"3E030FZ"},{"system":"http://snomed.info/sct","code":"18946005"}]},"subject":{"reference":"Patient/52790be5-0f6e-4ebd-85f5-57f35db8b56b"},"performedPeriod":{"start":"2026-11-01T00:00:00+00:00","end":"2026-11-01T01:00:00+00:00"}},"request":{"method":"PUT","url":"Procedure/dbc14285-0971-42d1-8148-b493bd1939eb"}},{"fullUrl":"https://madie.cms.gov/Organization/88b03e6f-eb7c-452a-91e1-11172b51efa2","resource":{"resourceType":"Organization","id":"5ad6ea38-07e9-4482-9e1b-c09eee595be9","meta":{"profile":["http://hl7.org/fhir/us/qicore/StructureDefinition/qicore-organization"]},"identifier":[{"use":"temp","system":"urn:oid:2.16.840.1.113883.4.4","value":"21-3259825"}],"active":true,"type":[{"coding":[{"system":"http://terminology.hl7.org/CodeSystem/organization-type","code":"pay","display":"Payer"}]}],"name":"Blue Cross Blue Shield of Texas","telecom":[{"system":"phone","value":"(+1) 972-766-6900"}],"address":[{"use":"billing","type":"postal","line":["P.O. Box 660044"],"city":"Dallas","state":"TX","postalCode":"75266-0044","country":"USA"}]},"request":{"method":"PUT","url":"Organization/5ad6ea38-07e9-4482-9e1b-c09eee595be9"}},{"fullUrl":"https://madie.cms.gov/Practitioner/fd6bcd97-688c-4816-81bd-130b9cd1b3e2","resource":{"resourceType":"Practitioner","id":"fd6bcd97-688c-4816-81bd-130b9cd1b3e2","identifier":[{"system":"http://hl7.org/fhir/sid/us-npi","value":"123456"}],"name":[{"family":"Evil","prefix":["Dr"]}]},"request":{"method":"PUT","url":"Practitioner/fd6bcd97-688c-4816-81bd-130b9cd1b3e2"}},{"fullUrl":"https://madie.cms.gov/MeasureReport/b46b080b-3798-4b01-8c13-fc002748293d","resource":{"resourceType":"MeasureReport","id":"b46b080b-3798-4b01-8c13-fc002748293d","meta":{"profile":["http://hl7.org/fhir/us/cqfmeasures/StructureDefinition/test-case-cqfm"]},"contained":[{"resourceType":"Parameters","id":"22359c48-f07d-4778-b5d0-6d0471fe98eb-parameters","parameter":[{"name":"subject","valueString":"52790be5-0f6e-4ebd-85f5-57f35db8b56b"}]}],"extension":[{"url":"http://hl7.org/fhir/us/cqfmeasures/StructureDefinition/cqfm-inputParameters","valueReference":{"reference":"#22359c48-f07d-4778-b5d0-6d0471fe98eb-parameters"}},{"url":"http://hl7.org/fhir/us/cqfmeasures/StructureDefinition/cqfm-testCaseDescription","valueMarkdown":"Patient received injectable factor Xa med concurrent with anesthesia.end\n"}],"modifierExtension":[{"url":"http://hl7.org/fhir/us/cqfmeasures/StructureDefinition/cqfm-isTestCase","valueBoolean":true}],"status":"complete","type":"individual","measure":"https://madie.cms.gov/Measure/CMS108VTEProphylaxisFHIR","period":{"start":"2026-01-01","end":"2026-12-31"},"group":[{"population":[{"code":{"coding":[{"system":"http://terminology.hl7.org/CodeSystem/measure-population","code":"initial-population","display":"Initial Population"}]},"count":1},{"code":{"coding":[{"system":"http://terminology.hl7.org/CodeSystem/measure-population","code":"denominator","display":"Denominator"}]},"count":1},{"code":{"coding":[{"system":"http://terminology.hl7.org/CodeSystem/measure-population","code":"denominator-exclusion","display":"Denominator Exclusion"}]},"count":0},{"code":{"coding":[{"system":"http://terminology.hl7.org/CodeSystem/measure-population","code":"numerator","display":"Numerator"}]},"count":1}]}]},"request":{"method":"PUT","url":"MeasureReport/b46b080b-3798-4b01-8c13-fc002748293d"}}]}