{"resourceType":"Bundle","id":"tests-4e39ae5f-5b8a-4bc2-a550-002d1ba16c33-bundle","type":"transaction","entry":[{"fullUrl":"https://madie.cms.gov/Patient/4e39ae5f-5b8a-4bc2-a550-002d1ba16c33","resource":{"resourceType":"Patient","id":"4e39ae5f-5b8a-4bc2-a550-002d1ba16c33","meta":{"profile":["http://hl7.org/fhir/us/qicore/StructureDefinition/qicore-patient"]},"text":{"status":"generated","div":"<div xmlns=\"http://www.w3.org/1999/xhtml\"><div class=\"hapiHeaderText\">SCIP_HipFxRank2 <b>DENEXPASS </b></div><table class=\"hapiPropertyTable\"><tbody><tr><td>Identifier</td><td>66c70c125db369967b4b164e75338304</td></tr><tr><td>Date of birth</td><td><span>01 September 2000</span></td></tr></tbody></table></div>"},"extension":[{"url":"http://hl7.org/fhir/us/core/StructureDefinition/us-core-race","extension":[{"url":"ombCategory","valueCoding":{"system":"urn:oid:2.16.840.1.113883.6.238","code":"1002-5","display":"American Indian or Alaska Native","userSelected":true}},{"url":"text","valueString":"American Indian or Alaska Native"}]},{"url":"http://hl7.org/fhir/us/core/StructureDefinition/us-core-ethnicity","extension":[{"url":"ombCategory","valueCoding":{"system":"urn:oid:2.16.840.1.113883.6.238","code":"2135-2","display":"Hispanic or Latino","userSelected":true}},{"url":"text","valueString":"Hispanic or Latino"}]}],"identifier":[{"type":{"coding":[{"system":"http://terminology.hl7.org/CodeSystem/v2-0203","code":"MR"}]},"system":"https://bonnie-fhir.healthit.gov/","value":"612e6b0202c62a011f2ec156"}],"active":true,"name":[{"use":"usual","family":"DENEXPass ","given":["SCIP_HipFxRank2"]}],"gender":"male","birthDate":"2001-09-01"},"request":{"method":"PUT","url":"Patient/4e39ae5f-5b8a-4bc2-a550-002d1ba16c33"}},{"fullUrl":"https://madie.cms.gov/Encounter/ec6cc932-18ac-4372-9d22-17b2275b2cf2","resource":{"resourceType":"Encounter","id":"ec6cc932-18ac-4372-9d22-17b2275b2cf2","meta":{"profile":["http://hl7.org/fhir/us/qicore/StructureDefinition/qicore-encounter"]},"extension":[{"url":"http://hl7.org/fhir/us/qicore/StructureDefinition/qicore-encounter-procedure","extension":[{"url":"type","valueCodeableConcept":{"coding":[{"system":"http://www.cms.gov/Medicare/Coding/ICD10","code":"0SQ90ZZ"}]}},{"url":"rank","valuePositiveInt":2},{"url":"procedure","valueReference":{"reference":"Procedure/fc33ef93-53e0-49f6-af7b-5c04cb68726d"}}]}],"status":"finished","class":{"system":"http://terminology.hl7.org/CodeSystem/v3-ActCode","code":"IMP","display":"inpatient encounter"},"type":[{"coding":[{"system":"http://snomed.info/sct","code":"183452005"}]}],"subject":{"reference":"Patient/4e39ae5f-5b8a-4bc2-a550-002d1ba16c33"},"period":{"start":"2026-09-02T06:00:00+00:00","end":"2026-12-31T12:59:00+00:00"},"length":{"value":120.0,"unit":"days"}},"request":{"method":"PUT","url":"Encounter/ec6cc932-18ac-4372-9d22-17b2275b2cf2"}},{"fullUrl":"https://madie.cms.gov/Coverage/0c6bd414-04e2-4a0d-b533-0d1e4b612ad7","resource":{"resourceType":"Coverage","id":"0c6bd414-04e2-4a0d-b533-0d1e4b612ad7","status":"active","beneficiary":{"reference":"Patient/4e39ae5f-5b8a-4bc2-a550-002d1ba16c33"},"period":{"start":"2001-09-01T08:00:00+00:00"},"payor":[{"reference":"Organization/db141f66-a1cc-407b-9e95-adac27adee14"}]},"request":{"method":"PUT","url":"Coverage/0c6bd414-04e2-4a0d-b533-0d1e4b612ad7"}},{"fullUrl":"https://madie.cms.gov/Procedure/fc33ef93-53e0-49f6-af7b-5c04cb68726d","resource":{"resourceType":"Procedure","id":"fc33ef93-53e0-49f6-af7b-5c04cb68726d","meta":{"profile":["http://hl7.org/fhir/us/qicore/StructureDefinition/qicore-procedure"]},"extension":[{"url":"http://hl7.org/fhir/us/qicore/StructureDefinition/qicore-recorded","valueDateTime":"2013-09-02T09:35:00-04:00"}],"status":"completed","code":{"coding":[{"system":"http://www.cms.gov/Medicare/Coding/ICD10","code":"0SQ90ZZ"}]},"subject":{"reference":"Patient/4e39ae5f-5b8a-4bc2-a550-002d1ba16c33"},"performedPeriod":{"start":"2026-09-02T09:00:00+00:00","end":"2026-09-02T12:59:00+00:00"}},"request":{"method":"PUT","url":"Procedure/fc33ef93-53e0-49f6-af7b-5c04cb68726d"}},{"fullUrl":"https://madie.cms.gov/Organization/2059b31b-efab-4c47-87c2-e1408b565b20","resource":{"resourceType":"Organization","id":"db141f66-a1cc-407b-9e95-adac27adee14","meta":{"profile":["http://hl7.org/fhir/us/qicore/StructureDefinition/qicore-organization"]},"identifier":[{"use":"temp","system":"urn:oid:2.16.840.1.113883.4.4","value":"21-3259825"}],"active":true,"type":[{"coding":[{"system":"http://terminology.hl7.org/CodeSystem/organization-type","code":"pay","display":"Payer"}]}],"name":"Blue Cross Blue Shield of Texas","telecom":[{"system":"phone","value":"(+1) 972-766-6900"}],"address":[{"use":"billing","type":"postal","line":["P.O. Box 660044"],"city":"Dallas","state":"TX","postalCode":"75266-0044","country":"USA"}]},"request":{"method":"PUT","url":"Organization/db141f66-a1cc-407b-9e95-adac27adee14"}},{"fullUrl":"https://madie.cms.gov/Practitioner/4d8c35e1-73bd-44d9-99cc-8082d8193262","resource":{"resourceType":"Practitioner","id":"4d8c35e1-73bd-44d9-99cc-8082d8193262","identifier":[{"system":"http://hl7.org/fhir/sid/us-npi","value":"123456"}],"name":[{"family":"Evil","prefix":["Dr"]}]},"request":{"method":"PUT","url":"Practitioner/4d8c35e1-73bd-44d9-99cc-8082d8193262"}},{"fullUrl":"https://madie.cms.gov/MeasureReport/23c26aa5-9a9e-49df-9a66-c552b84491b1","resource":{"resourceType":"MeasureReport","id":"23c26aa5-9a9e-49df-9a66-c552b84491b1","meta":{"profile":["http://hl7.org/fhir/us/cqfmeasures/StructureDefinition/test-case-cqfm"]},"contained":[{"resourceType":"Parameters","id":"4a3d6e42-08c5-490c-91fc-73886d190028-parameters","parameter":[{"name":"subject","valueString":"4e39ae5f-5b8a-4bc2-a550-002d1ba16c33"}]}],"extension":[{"url":"http://hl7.org/fhir/us/cqfmeasures/StructureDefinition/cqfm-inputParameters","valueReference":{"reference":"#4a3d6e42-08c5-490c-91fc-73886d190028-parameters"}},{"url":"http://hl7.org/fhir/us/cqfmeasures/StructureDefinition/cqfm-testCaseDescription","valueMarkdown":"Failed Exclusions for SCIP hipFx due to Rank=2"}],"modifierExtension":[{"url":"http://hl7.org/fhir/us/cqfmeasures/StructureDefinition/cqfm-isTestCase","valueBoolean":true}],"status":"complete","type":"individual","measure":"https://madie.cms.gov/Measure/CMS108VTEProphylaxisFHIR","period":{"start":"2026-01-01","end":"2026-12-31"},"group":[{"population":[{"code":{"coding":[{"system":"http://terminology.hl7.org/CodeSystem/measure-population","code":"initial-population","display":"Initial Population"}]},"count":1},{"code":{"coding":[{"system":"http://terminology.hl7.org/CodeSystem/measure-population","code":"denominator","display":"Denominator"}]},"count":1},{"code":{"coding":[{"system":"http://terminology.hl7.org/CodeSystem/measure-population","code":"denominator-exclusion","display":"Denominator Exclusion"}]},"count":0},{"code":{"coding":[{"system":"http://terminology.hl7.org/CodeSystem/measure-population","code":"numerator","display":"Numerator"}]},"count":0}]}]},"request":{"method":"PUT","url":"MeasureReport/23c26aa5-9a9e-49df-9a66-c552b84491b1"}}]}