{"resourceType":"Bundle","id":"tests-91c8a4a4-2789-4459-bf83-7720f660e89b-bundle","type":"transaction","entry":[{"fullUrl":"https://madie.cms.gov/Patient/91c8a4a4-2789-4459-bf83-7720f660e89b","resource":{"resourceType":"Patient","id":"91c8a4a4-2789-4459-bf83-7720f660e89b","meta":{"profile":["http://hl7.org/fhir/us/qicore/StructureDefinition/qicore-patient"]},"text":{"status":"generated","div":"<div xmlns=\"http://www.w3.org/1999/xhtml\"><div class=\"hapiHeaderText\">MA_LDUHep_DayOfAdm <b>NUMERPASS </b></div><table class=\"hapiPropertyTable\"><tbody><tr><td>Identifier</td><td>8a33d2769a6bdab7ccc20de0552fc909</td></tr><tr><td>Date of birth</td><td><span>02 January 1974</span></td></tr></tbody></table></div>"},"extension":[{"url":"http://hl7.org/fhir/us/core/StructureDefinition/us-core-race","extension":[{"url":"ombCategory","valueCoding":{"system":"urn:oid:2.16.840.1.113883.6.238","code":"1002-5","display":"American Indian or Alaska Native","userSelected":true}},{"url":"text","valueString":"American Indian or Alaska Native"}]},{"url":"http://hl7.org/fhir/us/core/StructureDefinition/us-core-ethnicity","extension":[{"url":"ombCategory","valueCoding":{"system":"urn:oid:2.16.840.1.113883.6.238","code":"2135-2","display":"Hispanic or Latino","userSelected":true}},{"url":"text","valueString":"Hispanic or Latino"}]}],"identifier":[{"type":{"coding":[{"system":"http://terminology.hl7.org/CodeSystem/v2-0203","code":"MR"}]},"system":"https://bonnie-fhir.healthit.gov/","value":"612e6a8b02c62a011f2ea4e5"}],"active":true,"name":[{"use":"usual","family":"NUMERPass","given":["MA_LDUHep_DayOfAdm"]}],"gender":"male","birthDate":"1975-01-02"},"request":{"method":"PUT","url":"Patient/91c8a4a4-2789-4459-bf83-7720f660e89b"}},{"fullUrl":"https://madie.cms.gov/Encounter/fdfebf25-e747-43a6-b4c5-af7c293a9fee","resource":{"resourceType":"Encounter","id":"fdfebf25-e747-43a6-b4c5-af7c293a9fee","meta":{"profile":["http://hl7.org/fhir/us/qicore/StructureDefinition/qicore-encounter"]},"status":"finished","class":{"system":"http://terminology.hl7.org/CodeSystem/v3-ActCode","code":"IMP","display":"inpatient encounter"},"type":[{"coding":[{"system":"http://snomed.info/sct","code":"8715000"}]}],"subject":{"reference":"Patient/91c8a4a4-2789-4459-bf83-7720f660e89b"},"period":{"start":"2026-11-01T08:00:00+00:00","end":"2026-11-26T08:15:00+00:00"},"length":{"value":25,"unit":"days"}},"request":{"method":"PUT","url":"Encounter/fdfebf25-e747-43a6-b4c5-af7c293a9fee"}},{"fullUrl":"https://madie.cms.gov/Coverage/fd3adbc4-8e62-42a7-8d6c-86d3d2c6c258","resource":{"resourceType":"Coverage","id":"fd3adbc4-8e62-42a7-8d6c-86d3d2c6c258","status":"active","beneficiary":{"reference":"Patient/91c8a4a4-2789-4459-bf83-7720f660e89b"},"period":{"start":"1975-01-02T08:00:00+00:00"},"payor":[{"reference":"Organization/607fdef9-3983-4cef-ab1a-95434d29b463"}]},"request":{"method":"PUT","url":"Coverage/fd3adbc4-8e62-42a7-8d6c-86d3d2c6c258"}},{"fullUrl":"https://madie.cms.gov/MedicationAdministration/aa53496c-c838-40d1-b344-742785f6b632","resource":{"resourceType":"MedicationAdministration","id":"aa53496c-c838-40d1-b344-742785f6b632","meta":{"profile":["http://hl7.org/fhir/us/qicore/StructureDefinition/qicore-medicationadministration"]},"status":"completed","medicationCodeableConcept":{"coding":[{"system":"http://www.nlm.nih.gov/research/umls/rxnorm","code":"1361574"}]},"subject":{"reference":"Patient/91c8a4a4-2789-4459-bf83-7720f660e89b"},"effectivePeriod":{"start":"2026-11-01T10:00:00+00:00","end":"2026-11-01T10:15:00+00:00"},"dosage":{"route":{"coding":[{"system":"http://snomed.info/sct","code":"34206005","display":"Subcutaneous route"}]},"dose":{"value":20000,"unit":"UNT/ML","system":"http://unitsofmeasure.org","code":"ML"}}},"request":{"method":"PUT","url":"MedicationAdministration/aa53496c-c838-40d1-b344-742785f6b632"}},{"fullUrl":"https://madie.cms.gov/Procedure/3cd4dff8-1970-4b46-a49b-a6d33a268e78","resource":{"resourceType":"Procedure","id":"3cd4dff8-1970-4b46-a49b-a6d33a268e78","meta":{"profile":["http://hl7.org/fhir/us/qicore/StructureDefinition/qicore-procedure"]},"extension":[{"url":"http://hl7.org/fhir/us/qicore/StructureDefinition/qicore-recorded","valueDateTime":"2013-11-02T09:35:00-04:00"}],"status":"completed","code":{"coding":[{"system":"http://www.icd10data.com/icd10pcs","code":"3E030FZ"},{"system":"http://snomed.info/sct","code":"18946005"}]},"subject":{"reference":"Patient/91c8a4a4-2789-4459-bf83-7720f660e89b"},"performedPeriod":{"start":"2026-11-02T09:00:00+00:00","end":"2026-11-02T09:15:00+00:00"}},"request":{"method":"PUT","url":"Procedure/3cd4dff8-1970-4b46-a49b-a6d33a268e78"}},{"fullUrl":"https://madie.cms.gov/Organization/026552c0-30f0-44d8-87cf-4d55981d849b","resource":{"resourceType":"Organization","id":"607fdef9-3983-4cef-ab1a-95434d29b463","meta":{"profile":["http://hl7.org/fhir/us/qicore/StructureDefinition/qicore-organization"]},"identifier":[{"use":"temp","system":"urn:oid:2.16.840.1.113883.4.4","value":"21-3259825"}],"active":true,"type":[{"coding":[{"system":"http://terminology.hl7.org/CodeSystem/organization-type","code":"pay","display":"Payer"}]}],"name":"Blue Cross Blue Shield of Texas","telecom":[{"system":"phone","value":"(+1) 972-766-6900"}],"address":[{"use":"billing","type":"postal","line":["P.O. Box 660044"],"city":"Dallas","state":"TX","postalCode":"75266-0044","country":"USA"}]},"request":{"method":"PUT","url":"Organization/607fdef9-3983-4cef-ab1a-95434d29b463"}},{"fullUrl":"https://madie.cms.gov/Practitioner/42c22b98-1215-4d8a-ae1f-530235cff15c","resource":{"resourceType":"Practitioner","id":"42c22b98-1215-4d8a-ae1f-530235cff15c","identifier":[{"system":"http://hl7.org/fhir/sid/us-npi","value":"123456"}],"name":[{"family":"Evil","prefix":["Dr"]}]},"request":{"method":"PUT","url":"Practitioner/42c22b98-1215-4d8a-ae1f-530235cff15c"}},{"fullUrl":"https://madie.cms.gov/MeasureReport/22b08e36-c67a-4a90-84a6-e37438c47126","resource":{"resourceType":"MeasureReport","id":"22b08e36-c67a-4a90-84a6-e37438c47126","meta":{"profile":["http://hl7.org/fhir/us/cqfmeasures/StructureDefinition/test-case-cqfm"]},"contained":[{"resourceType":"Parameters","id":"706487c2-2c4d-4b8a-8f36-2a031a1651f1-parameters","parameter":[{"name":"subject","valueString":"91c8a4a4-2789-4459-bf83-7720f660e89b"}]}],"extension":[{"url":"http://hl7.org/fhir/us/cqfmeasures/StructureDefinition/cqfm-inputParameters","valueReference":{"reference":"#706487c2-2c4d-4b8a-8f36-2a031a1651f1-parameters"}},{"url":"http://hl7.org/fhir/us/cqfmeasures/StructureDefinition/cqfm-testCaseDescription","valueMarkdown":"low dose unfractionated heparin administered on the day of adm\n"}],"modifierExtension":[{"url":"http://hl7.org/fhir/us/cqfmeasures/StructureDefinition/cqfm-isTestCase","valueBoolean":true}],"status":"complete","type":"individual","measure":"https://madie.cms.gov/Measure/CMS108VTEProphylaxisFHIR","period":{"start":"2026-01-01","end":"2026-12-31"},"group":[{"population":[{"code":{"coding":[{"system":"http://terminology.hl7.org/CodeSystem/measure-population","code":"initial-population","display":"Initial Population"}]},"count":1},{"code":{"coding":[{"system":"http://terminology.hl7.org/CodeSystem/measure-population","code":"denominator","display":"Denominator"}]},"count":1},{"code":{"coding":[{"system":"http://terminology.hl7.org/CodeSystem/measure-population","code":"denominator-exclusion","display":"Denominator Exclusion"}]},"count":0},{"code":{"coding":[{"system":"http://terminology.hl7.org/CodeSystem/measure-population","code":"numerator","display":"Numerator"}]},"count":1}]}]},"request":{"method":"PUT","url":"MeasureReport/22b08e36-c67a-4a90-84a6-e37438c47126"}}]}