{"resourceType":"Bundle","id":"tests-8e2cfc29-0925-45b9-857f-b9ee9b9fa248-bundle","type":"transaction","entry":[{"fullUrl":"https://madie.cms.gov/Patient/8e2cfc29-0925-45b9-857f-b9ee9b9fa248","resource":{"resourceType":"Patient","id":"8e2cfc29-0925-45b9-857f-b9ee9b9fa248","meta":{"profile":["http://hl7.org/fhir/us/qicore/StructureDefinition/qicore-patient"]},"text":{"status":"generated","div":"<div xmlns=\"http://www.w3.org/1999/xhtml\"><div class=\"hapiHeaderText\">MedRsnMAWarfDAIPCDrgEDGT1hrSameDayAdm <b>NUMERPASS </b></div><table class=\"hapiPropertyTable\"><tbody><tr><td>Identifier</td><td>d5661b6a7ac7a6b9f13847d23af8475a</td></tr><tr><td>Date of birth</td><td><span>02 January 1974</span></td></tr></tbody></table></div>"},"extension":[{"url":"http://hl7.org/fhir/us/core/StructureDefinition/us-core-race","extension":[{"url":"ombCategory","valueCoding":{"system":"urn:oid:2.16.840.1.113883.6.238","code":"1002-5","display":"American Indian or Alaska Native","userSelected":true}},{"url":"text","valueString":"American Indian or Alaska Native"}]},{"url":"http://hl7.org/fhir/us/core/StructureDefinition/us-core-ethnicity","extension":[{"url":"ombCategory","valueCoding":{"system":"urn:oid:2.16.840.1.113883.6.238","code":"2135-2","display":"Hispanic or Latino","userSelected":true}},{"url":"text","valueString":"Hispanic or Latino"}]}],"identifier":[{"type":{"coding":[{"system":"http://terminology.hl7.org/CodeSystem/v2-0203","code":"MR"}]},"system":"https://bonnie-fhir.healthit.gov/","value":"612e6b8402c62a011f2ee1d9"}],"active":true,"name":[{"use":"usual","family":"NUMERPass","given":["MedRsnMAWarfDAIPCDrgEDGT1hrSameDayAdm"]}],"gender":"male","birthDate":"1975-01-02"},"request":{"method":"PUT","url":"Patient/8e2cfc29-0925-45b9-857f-b9ee9b9fa248"}},{"fullUrl":"https://madie.cms.gov/Encounter/13c4222a-ee28-4a2c-a68f-e27c80bf7698","resource":{"resourceType":"Encounter","id":"13c4222a-ee28-4a2c-a68f-e27c80bf7698","meta":{"profile":["http://hl7.org/fhir/us/qicore/StructureDefinition/qicore-encounter"]},"status":"finished","class":{"system":"http://terminology.hl7.org/CodeSystem/v3-ActCode","code":"EMER","display":"emergency"},"type":[{"coding":[{"system":"http://snomed.info/sct","code":"4525004"}]}],"subject":{"reference":"Patient/8e2cfc29-0925-45b9-857f-b9ee9b9fa248"},"period":{"start":"2026-10-31T04:00:00.000+00:00","end":"2026-11-01T07:15:00.000+00:00"},"length":{"value":1.0,"unit":"days"}},"request":{"method":"PUT","url":"Encounter/13c4222a-ee28-4a2c-a68f-e27c80bf7698"}},{"fullUrl":"https://madie.cms.gov/Encounter/ce4aa9ea-50ac-4bd8-b74f-5df9ee5132ad","resource":{"resourceType":"Encounter","id":"ce4aa9ea-50ac-4bd8-b74f-5df9ee5132ad","meta":{"profile":["http://hl7.org/fhir/us/qicore/StructureDefinition/qicore-encounter"]},"status":"finished","class":{"system":"http://terminology.hl7.org/CodeSystem/v3-ActCode","code":"IMP","display":"inpatient encounter"},"type":[{"coding":[{"system":"http://snomed.info/sct","code":"8715000"}]}],"subject":{"reference":"Patient/8e2cfc29-0925-45b9-857f-b9ee9b9fa248"},"period":{"start":"2026-11-01T10:00:00.000+00:00","end":"2026-11-04T05:00:00.000+00:00"},"length":{"value":25.0,"unit":"days"}},"request":{"method":"PUT","url":"Encounter/ce4aa9ea-50ac-4bd8-b74f-5df9ee5132ad"}},{"fullUrl":"https://madie.cms.gov/Coverage/3e3b6483-d7cc-41cd-b50c-5591201290ab","resource":{"resourceType":"Coverage","id":"3e3b6483-d7cc-41cd-b50c-5591201290ab","status":"active","beneficiary":{"reference":"Patient/8e2cfc29-0925-45b9-857f-b9ee9b9fa248"},"period":{"start":"1975-01-02T08:00:00+00:00"},"payor":[{"reference":"Organization/5ad6ea38-07e9-4482-9e1b-c09eee595be9"}]},"request":{"method":"PUT","url":"Coverage/3e3b6483-d7cc-41cd-b50c-5591201290ab"}},{"fullUrl":"https://madie.cms.gov/Procedure/6f3c5adb-bee1-4c00-8695-4dd3f3330002","resource":{"resourceType":"Procedure","id":"6f3c5adb-bee1-4c00-8695-4dd3f3330002","meta":{"profile":["http://hl7.org/fhir/us/qicore/StructureDefinition/qicore-procedurenotdone"]},"extension":[{"url":"http://hl7.org/fhir/us/qicore/StructureDefinition/qicore-recorded","valueDateTime":"2026-11-01T06:35:00-04:00"}],"status":"not-done","statusReason":{"coding":[{"system":"http://snomed.info/sct","code":"183932001","display":"Procedure contraindicated (situation)","userSelected":true}]},"code":{"coding":[{"system":"http://snomed.info/sct","code":"443448006","display":"Application of intermittent pneumatic compression device (procedure)","userSelected":true}]},"subject":{"reference":"Patient/8e2cfc29-0925-45b9-857f-b9ee9b9fa248"},"_performedDateTime":{"extension":[{"url":"http://hl7.org/fhir/StructureDefinition/data-absent-reason","valueCode":"not-performed"}]}},"request":{"method":"PUT","url":"Procedure/6f3c5adb-bee1-4c00-8695-4dd3f3330002"}},{"fullUrl":"https://madie.cms.gov/MedicationAdministration/c83352cb-1c1f-4ca0-8e8f-f809b06cf3cf","resource":{"resourceType":"MedicationAdministration","id":"c83352cb-1c1f-4ca0-8e8f-f809b06cf3cf","meta":{"profile":["http://hl7.org/fhir/us/qicore/StructureDefinition/qicore-mednotadministered"]},"extension":[{"url":"http://hl7.org/fhir/us/qicore/StructureDefinition/qicore-recorded","valueDateTime":"2026-11-01T06:00:00+00:00"}],"status":"not-done","statusReason":[{"coding":[{"system":"http://snomed.info/sct","code":"183932001","display":"Procedure contraindicated (situation)","userSelected":true}]}],"medicationCodeableConcept":{"coding":[{"system":"http://www.nlm.nih.gov/research/umls/rxnorm","code":"855288"}]},"subject":{"reference":"Patient/8e2cfc29-0925-45b9-857f-b9ee9b9fa248"},"effectivePeriod":{"start":"2026-11-01T07:00:00+00:00"}},"request":{"method":"PUT","url":"MedicationAdministration/c83352cb-1c1f-4ca0-8e8f-f809b06cf3cf"}},{"fullUrl":"https://madie.cms.gov/Organization/987bceaf-c15c-401e-84b5-3e91248a7746","resource":{"resourceType":"Organization","id":"5ad6ea38-07e9-4482-9e1b-c09eee595be9","meta":{"profile":["http://hl7.org/fhir/us/qicore/StructureDefinition/qicore-organization"]},"identifier":[{"use":"temp","system":"urn:oid:2.16.840.1.113883.4.4","value":"21-3259825"}],"active":true,"type":[{"coding":[{"system":"http://terminology.hl7.org/CodeSystem/organization-type","code":"pay","display":"Payer"}]}],"name":"Blue Cross Blue Shield of Texas","telecom":[{"system":"phone","value":"(+1) 972-766-6900"}],"address":[{"use":"billing","type":"postal","line":["P.O. Box 660044"],"city":"Dallas","state":"TX","postalCode":"75266-0044","country":"USA"}]},"request":{"method":"PUT","url":"Organization/5ad6ea38-07e9-4482-9e1b-c09eee595be9"}},{"fullUrl":"https://madie.cms.gov/Practitioner/91af2da0-f88c-49fa-a918-2b8fd074926b","resource":{"resourceType":"Practitioner","id":"91af2da0-f88c-49fa-a918-2b8fd074926b","identifier":[{"system":"http://hl7.org/fhir/sid/us-npi","value":"123456"}],"name":[{"family":"Evil","prefix":["Dr"]}]},"request":{"method":"PUT","url":"Practitioner/91af2da0-f88c-49fa-a918-2b8fd074926b"}},{"fullUrl":"https://madie.cms.gov/MeasureReport/4b6548da-c0e4-4dd7-b99a-00eb99e6095b","resource":{"resourceType":"MeasureReport","id":"4b6548da-c0e4-4dd7-b99a-00eb99e6095b","meta":{"profile":["http://hl7.org/fhir/us/cqfmeasures/StructureDefinition/test-case-cqfm"]},"contained":[{"resourceType":"Parameters","id":"c7818534-149d-49cd-9a21-58dea1ab0b49-parameters","parameter":[{"name":"subject","valueString":"8e2cfc29-0925-45b9-857f-b9ee9b9fa248"}]}],"extension":[{"url":"http://hl7.org/fhir/us/cqfmeasures/StructureDefinition/cqfm-inputParameters","valueReference":{"reference":"#c7818534-149d-49cd-9a21-58dea1ab0b49-parameters"}},{"url":"http://hl7.org/fhir/us/cqfmeasures/StructureDefinition/cqfm-testCaseDescription","valueMarkdown":"medical reasons for not receiving IPC devices and warfarin in ED but ED is 2 hour before Adm\n"}],"modifierExtension":[{"url":"http://hl7.org/fhir/us/cqfmeasures/StructureDefinition/cqfm-isTestCase","valueBoolean":true}],"status":"complete","type":"individual","measure":"https://madie.cms.gov/Measure/CMS108VTEProphylaxisFHIR","period":{"start":"2026-01-01","end":"2026-12-31"},"group":[{"population":[{"code":{"coding":[{"system":"http://terminology.hl7.org/CodeSystem/measure-population","code":"initial-population","display":"Initial Population"}]},"count":1},{"code":{"coding":[{"system":"http://terminology.hl7.org/CodeSystem/measure-population","code":"denominator","display":"Denominator"}]},"count":1},{"code":{"coding":[{"system":"http://terminology.hl7.org/CodeSystem/measure-population","code":"denominator-exclusion","display":"Denominator Exclusion"}]},"count":0},{"code":{"coding":[{"system":"http://terminology.hl7.org/CodeSystem/measure-population","code":"numerator","display":"Numerator"}]},"count":1}]}]},"request":{"method":"PUT","url":"MeasureReport/4b6548da-c0e4-4dd7-b99a-00eb99e6095b"}}]}