{"resourceType":"Bundle","id":"tests-b30e1235-fe5d-4cd1-a536-4baafc680d7b-bundle","type":"transaction","entry":[{"fullUrl":"https://madie.cms.gov/Patient/b30e1235-fe5d-4cd1-a536-4baafc680d7b","resource":{"resourceType":"Patient","id":"b30e1235-fe5d-4cd1-a536-4baafc680d7b","meta":{"profile":["http://hl7.org/fhir/us/qicore/StructureDefinition/qicore-patient"]},"text":{"status":"generated","div":"<div xmlns=\"http://www.w3.org/1999/xhtml\"><div class=\"hapiHeaderText\">2Encounters_1PassIPP_DEN_DENEX <b>DENEXPASS </b></div><table class=\"hapiPropertyTable\"><tbody><tr><td>Identifier</td><td>b98ddb653cdba6f593cc49f0f466a1b86353252d04583905e9da730a49dbb7cc</td></tr><tr><td>Date of birth</td><td><span>02 September 1978</span></td></tr></tbody></table></div>"},"extension":[{"url":"http://hl7.org/fhir/us/core/StructureDefinition/us-core-race","extension":[{"url":"ombCategory","valueCoding":{"system":"urn:oid:2.16.840.1.113883.6.238","code":"1002-5","display":"American Indian or Alaska Native","userSelected":true}},{"url":"text","valueString":"American Indian or Alaska Native"}]},{"url":"http://hl7.org/fhir/us/core/StructureDefinition/us-core-ethnicity","extension":[{"url":"ombCategory","valueCoding":{"system":"urn:oid:2.16.840.1.113883.6.238","code":"2135-2","display":"Hispanic or Latino","userSelected":true}},{"url":"text","valueString":"Hispanic or Latino"}]}],"identifier":[{"type":{"coding":[{"system":"http://terminology.hl7.org/CodeSystem/v2-0203","code":"MR"}]},"system":"https://bonnie-fhir.healthit.gov/","value":"612e6ade02c62a011f2eb846"}],"active":true,"name":[{"use":"usual","family":"DENEXPass","given":["2Encounters_1PassIPP_DEN_DENEX"]}],"gender":"male","birthDate":"1979-09-02"},"request":{"method":"PUT","url":"Patient/b30e1235-fe5d-4cd1-a536-4baafc680d7b"}},{"fullUrl":"https://madie.cms.gov/Encounter/c95d5d42-56e6-4f6d-967d-f8c815a45df1","resource":{"resourceType":"Encounter","id":"c95d5d42-56e6-4f6d-967d-f8c815a45df1","meta":{"profile":["http://hl7.org/fhir/us/qicore/StructureDefinition/qicore-encounter"]},"status":"finished","class":{"system":"http://terminology.hl7.org/CodeSystem/v3-ActCode","code":"IMP","display":"inpatient encounter"},"type":[{"coding":[{"system":"http://snomed.info/sct","code":"183452005"}]}],"subject":{"reference":"Patient/b30e1235-fe5d-4cd1-a536-4baafc680d7b"},"period":{"start":"2026-07-04T08:00:00+00:00","end":"2026-07-04T08:15:00+00:00"},"length":{"value":0.0,"unit":"days"}},"request":{"method":"PUT","url":"Encounter/c95d5d42-56e6-4f6d-967d-f8c815a45df1"}},{"fullUrl":"https://madie.cms.gov/Encounter/10a75a8e-ba98-4580-b399-2a68179631bf","resource":{"resourceType":"Encounter","id":"10a75a8e-ba98-4580-b399-2a68179631bf","meta":{"profile":["http://hl7.org/fhir/us/qicore/StructureDefinition/qicore-encounter"]},"status":"finished","class":{"system":"http://terminology.hl7.org/CodeSystem/v3-ActCode","code":"EMER","display":"emergency"},"type":[{"coding":[{"system":"http://snomed.info/sct","code":"4525004"}]}],"subject":{"reference":"Patient/b30e1235-fe5d-4cd1-a536-4baafc680d7b"},"period":{"start":"2026-07-05T09:00:00+00:00","end":"2026-07-05T10:00:00+00:00"},"length":{"value":0.0,"unit":"days"}},"request":{"method":"PUT","url":"Encounter/10a75a8e-ba98-4580-b399-2a68179631bf"}},{"fullUrl":"https://madie.cms.gov/Encounter/d014d16c-82c3-42e7-aabb-883cb5e56149","resource":{"resourceType":"Encounter","id":"d014d16c-82c3-42e7-aabb-883cb5e56149","meta":{"profile":["http://hl7.org/fhir/us/qicore/StructureDefinition/qicore-encounter"]},"status":"finished","class":{"system":"http://terminology.hl7.org/CodeSystem/v3-ActCode","code":"IMP","display":"inpatient encounter"},"type":[{"coding":[{"system":"http://snomed.info/sct","code":"183452005"}]}],"subject":{"reference":"Patient/b30e1235-fe5d-4cd1-a536-4baafc680d7b"},"period":{"start":"2026-07-05T10:00:00+00:00","end":"2026-07-07T10:00:00+00:00"},"length":{"value":2.0,"unit":"days"},"diagnosis":[{"condition":{"reference":"Condition/e2f5cffb-65a2-4ff4-9971-b7b1b63ad322"},"use":{"coding":[{"system":"http://snomed.info/sct","code":"13943000","display":"Obstetrics VTE"}]}}]},"request":{"method":"PUT","url":"Encounter/d014d16c-82c3-42e7-aabb-883cb5e56149"}},{"fullUrl":"https://madie.cms.gov/Coverage/b14cae1d-1612-4c90-88e0-37c678216e35","resource":{"resourceType":"Coverage","id":"b14cae1d-1612-4c90-88e0-37c678216e35","status":"active","beneficiary":{"reference":"Patient/b30e1235-fe5d-4cd1-a536-4baafc680d7b"},"period":{"start":"1979-09-02T08:00:00+00:00"},"payor":[{"reference":"Organization/db141f66-a1cc-407b-9e95-adac27adee14"}]},"request":{"method":"PUT","url":"Coverage/b14cae1d-1612-4c90-88e0-37c678216e35"}},{"fullUrl":"https://madie.cms.gov/Condition/e2f5cffb-65a2-4ff4-9971-b7b1b63ad322","resource":{"resourceType":"Condition","id":"e2f5cffb-65a2-4ff4-9971-b7b1b63ad322","meta":{"profile":["http://hl7.org/fhir/us/qicore/StructureDefinition/qicore-condition"]},"category":[{"coding":[{"system":"http://terminology.hl7.org/CodeSystem/condition-category","code":"encounter-diagnosis","display":"Encounter Diagnosis"}]}],"code":{"coding":[{"system":"http://snomed.info/sct","version":"2025-03","code":"13943000","display":"Failed attempted abortion complicated by embolism (disorder)","userSelected":true}]},"subject":{"reference":"Patient/b30e1235-fe5d-4cd1-a536-4baafc680d7b"},"recordedDate":"2026-07-12T08:00:00.000+00:00"},"request":{"method":"PUT","url":"Condition/e2f5cffb-65a2-4ff4-9971-b7b1b63ad322"}},{"fullUrl":"https://madie.cms.gov/Organization/11e017ae-7fb3-4917-9e3c-146aba3b7c47","resource":{"resourceType":"Organization","id":"db141f66-a1cc-407b-9e95-adac27adee14","meta":{"profile":["http://hl7.org/fhir/us/qicore/StructureDefinition/qicore-organization"]},"identifier":[{"use":"temp","system":"urn:oid:2.16.840.1.113883.4.4","value":"21-3259825"}],"active":true,"type":[{"coding":[{"system":"http://terminology.hl7.org/CodeSystem/organization-type","code":"pay","display":"Payer"}]}],"name":"Blue Cross Blue Shield of Texas","telecom":[{"system":"phone","value":"(+1) 972-766-6900"}],"address":[{"use":"billing","type":"postal","line":["P.O. Box 660044"],"city":"Dallas","state":"TX","postalCode":"75266-0044","country":"USA"}]},"request":{"method":"PUT","url":"Organization/db141f66-a1cc-407b-9e95-adac27adee14"}},{"fullUrl":"https://madie.cms.gov/Practitioner/dd0b4066-8e4b-4a4e-bfd1-3f7e8f83d56f","resource":{"resourceType":"Practitioner","id":"dd0b4066-8e4b-4a4e-bfd1-3f7e8f83d56f","identifier":[{"system":"http://hl7.org/fhir/sid/us-npi","value":"123456"}],"name":[{"family":"Evil","prefix":["Dr"]}]},"request":{"method":"PUT","url":"Practitioner/dd0b4066-8e4b-4a4e-bfd1-3f7e8f83d56f"}},{"fullUrl":"https://madie.cms.gov/MeasureReport/825a0ea9-4504-4a4e-b1c4-90b9110752d6","resource":{"resourceType":"MeasureReport","id":"825a0ea9-4504-4a4e-b1c4-90b9110752d6","meta":{"profile":["http://hl7.org/fhir/us/cqfmeasures/StructureDefinition/test-case-cqfm"]},"contained":[{"resourceType":"Parameters","id":"eecf408d-c504-4ec9-90c7-863fe172a2b2-parameters","parameter":[{"name":"subject","valueString":"b30e1235-fe5d-4cd1-a536-4baafc680d7b"}]}],"extension":[{"url":"http://hl7.org/fhir/us/cqfmeasures/StructureDefinition/cqfm-inputParameters","valueReference":{"reference":"#eecf408d-c504-4ec9-90c7-863fe172a2b2-parameters"}},{"url":"http://hl7.org/fhir/us/cqfmeasures/StructureDefinition/cqfm-testCaseDescription","valueMarkdown":"Testing Multiple Encounters - one (7/5 - 7/7) fails the IPP Due to OB VTE starts in ED and another pass IPP, DEN and DENEX due to LOS = 0 day\n"}],"modifierExtension":[{"url":"http://hl7.org/fhir/us/cqfmeasures/StructureDefinition/cqfm-isTestCase","valueBoolean":true}],"status":"complete","type":"individual","measure":"https://madie.cms.gov/Measure/CMS108VTEProphylaxisFHIR","period":{"start":"2026-01-01","end":"2026-12-31"},"group":[{"population":[{"code":{"coding":[{"system":"http://terminology.hl7.org/CodeSystem/measure-population","code":"initial-population","display":"Initial Population"}]},"count":1},{"code":{"coding":[{"system":"http://terminology.hl7.org/CodeSystem/measure-population","code":"denominator","display":"Denominator"}]},"count":1},{"code":{"coding":[{"system":"http://terminology.hl7.org/CodeSystem/measure-population","code":"denominator-exclusion","display":"Denominator Exclusion"}]},"count":1},{"code":{"coding":[{"system":"http://terminology.hl7.org/CodeSystem/measure-population","code":"numerator","display":"Numerator"}]},"count":0}]}]},"request":{"method":"PUT","url":"MeasureReport/825a0ea9-4504-4a4e-b1c4-90b9110752d6"}}]}