{"resourceType":"Bundle","id":"tests-eb754c68-82c7-48cd-a2f0-26ee1cd92544-bundle","type":"transaction","entry":[{"fullUrl":"https://madie.cms.gov/Patient/eb754c68-82c7-48cd-a2f0-26ee1cd92544","resource":{"resourceType":"Patient","id":"eb754c68-82c7-48cd-a2f0-26ee1cd92544","meta":{"profile":["http://hl7.org/fhir/us/qicore/StructureDefinition/qicore-patient"]},"text":{"status":"generated","div":"<div xmlns=\"http://www.w3.org/1999/xhtml\"><div class=\"hapiHeaderText\">SCIP_HipFxRank1_SMDCT <b>DENEXPASS </b></div><table class=\"hapiPropertyTable\"><tbody><tr><td>Identifier</td><td>66c70c125db369967b4b164e75338304</td></tr><tr><td>Date of birth</td><td><span>01 September 2000</span></td></tr></tbody></table></div>"},"extension":[{"url":"http://hl7.org/fhir/us/core/StructureDefinition/us-core-race","extension":[{"url":"ombCategory","valueCoding":{"system":"urn:oid:2.16.840.1.113883.6.238","code":"1002-5","display":"American Indian or Alaska Native","userSelected":true}},{"url":"text","valueString":"American Indian or Alaska Native"}]},{"url":"http://hl7.org/fhir/us/core/StructureDefinition/us-core-ethnicity","extension":[{"url":"ombCategory","valueCoding":{"system":"urn:oid:2.16.840.1.113883.6.238","code":"2135-2","display":"Hispanic or Latino","userSelected":true}},{"url":"text","valueString":"Hispanic or Latino"}]}],"identifier":[{"type":{"coding":[{"system":"http://terminology.hl7.org/CodeSystem/v2-0203","code":"MR"}]},"system":"https://bonnie-fhir.healthit.gov/","value":"612e6b0202c62a011f2ec156"}],"active":true,"name":[{"use":"usual","family":"DENEXPass ","given":["SCIP_HipFxRank1_SMDCT"]}],"gender":"male","birthDate":"2001-09-01"},"request":{"method":"PUT","url":"Patient/eb754c68-82c7-48cd-a2f0-26ee1cd92544"}},{"fullUrl":"https://madie.cms.gov/Encounter/757728c0-16a1-4354-b236-033c73fc1a83","resource":{"resourceType":"Encounter","id":"757728c0-16a1-4354-b236-033c73fc1a83","meta":{"profile":["http://hl7.org/fhir/us/qicore/StructureDefinition/qicore-encounter"]},"extension":[{"url":"http://hl7.org/fhir/us/qicore/StructureDefinition/qicore-encounter-procedure","extension":[{"url":"type","valueCodeableConcept":{"coding":[{"system":"http://snomed.info/sct","code":"239500004"}]}},{"url":"rank","valuePositiveInt":1},{"url":"procedure","valueReference":{"reference":"Procedure/f65e0f2a-24af-4805-890d-f7458b53e04e"}}]}],"status":"finished","class":{"system":"http://terminology.hl7.org/CodeSystem/v3-ActCode","code":"IMP","display":"inpatient encounter"},"type":[{"coding":[{"system":"http://snomed.info/sct","code":"183452005"}]}],"subject":{"reference":"Patient/eb754c68-82c7-48cd-a2f0-26ee1cd92544"},"period":{"start":"2026-09-02T06:00:00+00:00","end":"2026-12-31T12:59:00+00:00"},"length":{"value":120.0,"unit":"days"}},"request":{"method":"PUT","url":"Encounter/757728c0-16a1-4354-b236-033c73fc1a83"}},{"fullUrl":"https://madie.cms.gov/Coverage/2640ea1c-e745-439c-8ee5-b041c008a120","resource":{"resourceType":"Coverage","id":"2640ea1c-e745-439c-8ee5-b041c008a120","status":"active","beneficiary":{"reference":"Patient/eb754c68-82c7-48cd-a2f0-26ee1cd92544"},"period":{"start":"2001-09-01T08:00:00+00:00"},"payor":[{"reference":"Organization/5ad6ea38-07e9-4482-9e1b-c09eee595be9"}]},"request":{"method":"PUT","url":"Coverage/2640ea1c-e745-439c-8ee5-b041c008a120"}},{"fullUrl":"https://madie.cms.gov/Procedure/f65e0f2a-24af-4805-890d-f7458b53e04e","resource":{"resourceType":"Procedure","id":"f65e0f2a-24af-4805-890d-f7458b53e04e","meta":{"profile":["http://hl7.org/fhir/us/qicore/StructureDefinition/qicore-procedure"]},"extension":[{"url":"http://hl7.org/fhir/us/qicore/StructureDefinition/qicore-recorded","valueDateTime":"2013-09-02T09:35:00-04:00"}],"status":"completed","code":{"coding":[{"system":"http://snomed.info/sct","code":"239500004"}]},"subject":{"reference":"Patient/eb754c68-82c7-48cd-a2f0-26ee1cd92544"},"performedPeriod":{"start":"2026-09-02T09:00:00+00:00","end":"2026-09-02T12:59:00+00:00"}},"request":{"method":"PUT","url":"Procedure/f65e0f2a-24af-4805-890d-f7458b53e04e"}},{"fullUrl":"https://madie.cms.gov/Organization/790b856f-7415-4f21-9be3-c15e2d762f73","resource":{"resourceType":"Organization","id":"5ad6ea38-07e9-4482-9e1b-c09eee595be9","meta":{"profile":["http://hl7.org/fhir/us/qicore/StructureDefinition/qicore-organization"]},"identifier":[{"use":"temp","system":"urn:oid:2.16.840.1.113883.4.4","value":"21-3259825"}],"active":true,"type":[{"coding":[{"system":"http://terminology.hl7.org/CodeSystem/organization-type","code":"pay","display":"Payer"}]}],"name":"Blue Cross Blue Shield of Texas","telecom":[{"system":"phone","value":"(+1) 972-766-6900"}],"address":[{"use":"billing","type":"postal","line":["P.O. Box 660044"],"city":"Dallas","state":"TX","postalCode":"75266-0044","country":"USA"}]},"request":{"method":"PUT","url":"Organization/5ad6ea38-07e9-4482-9e1b-c09eee595be9"}},{"fullUrl":"https://madie.cms.gov/Practitioner/f4b38565-d585-43f5-ae88-3ddb2e48d30b","resource":{"resourceType":"Practitioner","id":"f4b38565-d585-43f5-ae88-3ddb2e48d30b","identifier":[{"system":"http://hl7.org/fhir/sid/us-npi","value":"123456"}],"name":[{"family":"Evil","prefix":["Dr"]}]},"request":{"method":"PUT","url":"Practitioner/f4b38565-d585-43f5-ae88-3ddb2e48d30b"}},{"fullUrl":"https://madie.cms.gov/MeasureReport/db514956-8253-4b8b-94b4-d2690989c1ce","resource":{"resourceType":"MeasureReport","id":"db514956-8253-4b8b-94b4-d2690989c1ce","meta":{"profile":["http://hl7.org/fhir/us/cqfmeasures/StructureDefinition/test-case-cqfm"]},"contained":[{"resourceType":"Parameters","id":"76e63c49-d10e-4149-83dd-16f3dc8ea7bf-parameters","parameter":[{"name":"subject","valueString":"eb754c68-82c7-48cd-a2f0-26ee1cd92544"}]}],"extension":[{"url":"http://hl7.org/fhir/us/cqfmeasures/StructureDefinition/cqfm-inputParameters","valueReference":{"reference":"#76e63c49-d10e-4149-83dd-16f3dc8ea7bf-parameters"}},{"url":"http://hl7.org/fhir/us/cqfmeasures/StructureDefinition/cqfm-testCaseDescription","valueMarkdown":"Duplicate case by using SNOMDCT "}],"modifierExtension":[{"url":"http://hl7.org/fhir/us/cqfmeasures/StructureDefinition/cqfm-isTestCase","valueBoolean":true}],"status":"complete","type":"individual","measure":"https://madie.cms.gov/Measure/CMS108VTEProphylaxisFHIR","period":{"start":"2026-01-01","end":"2026-12-31"},"group":[{"population":[{"code":{"coding":[{"system":"http://terminology.hl7.org/CodeSystem/measure-population","code":"initial-population","display":"Initial Population"}]},"count":1},{"code":{"coding":[{"system":"http://terminology.hl7.org/CodeSystem/measure-population","code":"denominator","display":"Denominator"}]},"count":1},{"code":{"coding":[{"system":"http://terminology.hl7.org/CodeSystem/measure-population","code":"denominator-exclusion","display":"Denominator Exclusion"}]},"count":1},{"code":{"coding":[{"system":"http://terminology.hl7.org/CodeSystem/measure-population","code":"numerator","display":"Numerator"}]},"count":0}]}]},"request":{"method":"PUT","url":"MeasureReport/db514956-8253-4b8b-94b4-d2690989c1ce"}}]}