{"resourceType":"Bundle","id":"tests-cad33033-1cf9-4ab9-aa2d-1cf578777ee9-bundle","type":"transaction","entry":[{"fullUrl":"https://madie.cms.gov/Patient/cad33033-1cf9-4ab9-aa2d-1cf578777ee9","resource":{"resourceType":"Patient","id":"cad33033-1cf9-4ab9-aa2d-1cf578777ee9","meta":{"profile":["http://hl7.org/fhir/us/qicore/StructureDefinition/qicore-patient"]},"text":{"status":"generated","div":"<div xmlns=\"http://www.w3.org/1999/xhtml\"><div class=\"hapiHeaderText\">SCIP_KneeSurgB4Admit <b>DENEXFAIL </b></div><table class=\"hapiPropertyTable\"><tbody><tr><td>Identifier</td><td>66c70c125db369967b4b164e75338304</td></tr><tr><td>Date of birth</td><td><span>01 September 2000</span></td></tr></tbody></table></div>"},"extension":[{"url":"http://hl7.org/fhir/us/core/StructureDefinition/us-core-race","extension":[{"url":"ombCategory","valueCoding":{"system":"urn:oid:2.16.840.1.113883.6.238","code":"1002-5","display":"American Indian or Alaska Native","userSelected":true}},{"url":"text","valueString":"American Indian or Alaska Native"}]},{"url":"http://hl7.org/fhir/us/core/StructureDefinition/us-core-ethnicity","extension":[{"url":"ombCategory","valueCoding":{"system":"urn:oid:2.16.840.1.113883.6.238","code":"2135-2","display":"Hispanic or Latino","userSelected":true}},{"url":"text","valueString":"Hispanic or Latino"}]}],"identifier":[{"type":{"coding":[{"system":"http://terminology.hl7.org/CodeSystem/v2-0203","code":"MR"}]},"system":"https://bonnie-fhir.healthit.gov/","value":"612e6b0a02c62a011f2ec31b"}],"active":true,"name":[{"use":"usual","family":"DENEXFail ","given":["SCIP_KneeSurgB4Admit"]}],"gender":"male","birthDate":"2001-09-01"},"request":{"method":"PUT","url":"Patient/cad33033-1cf9-4ab9-aa2d-1cf578777ee9"}},{"fullUrl":"https://madie.cms.gov/Encounter/d74ee453-58f7-41cb-8a7d-0311ed91beab","resource":{"resourceType":"Encounter","id":"d74ee453-58f7-41cb-8a7d-0311ed91beab","meta":{"profile":["http://hl7.org/fhir/us/qicore/StructureDefinition/qicore-encounter"]},"extension":[{"url":"http://hl7.org/fhir/us/qicore/StructureDefinition/qicore-encounter-procedure","extension":[{"url":"type","valueCodeableConcept":{"coding":[{"system":"http://www.cms.gov/Medicare/Coding/ICD10","code":"0SUT09Z"}]}},{"url":"rank","valuePositiveInt":1},{"url":"procedure","valueReference":{"reference":"Procedure/4dbb85a7-f635-4769-8d61-829d63f7df30"}}]}],"status":"finished","class":{"system":"http://terminology.hl7.org/CodeSystem/v3-ActCode","code":"IMP","display":"inpatient encounter"},"type":[{"coding":[{"system":"http://snomed.info/sct","code":"183452005"}]}],"subject":{"reference":"Patient/cad33033-1cf9-4ab9-aa2d-1cf578777ee9"},"period":{"start":"2026-09-02T06:00:00+00:00","end":"2026-12-31T12:59:00+00:00"},"length":{"value":120.0,"unit":"days"}},"request":{"method":"PUT","url":"Encounter/d74ee453-58f7-41cb-8a7d-0311ed91beab"}},{"fullUrl":"https://madie.cms.gov/Coverage/8417f18b-927b-4435-bb35-cf1d135451fd","resource":{"resourceType":"Coverage","id":"8417f18b-927b-4435-bb35-cf1d135451fd","status":"active","beneficiary":{"reference":"Patient/cad33033-1cf9-4ab9-aa2d-1cf578777ee9"},"period":{"start":"2001-09-01T08:00:00+00:00"},"payor":[{"reference":"Organization/3e899f33-84eb-4634-a770-a5a0bd7a80e7"}]},"request":{"method":"PUT","url":"Coverage/8417f18b-927b-4435-bb35-cf1d135451fd"}},{"fullUrl":"https://madie.cms.gov/Procedure/4dbb85a7-f635-4769-8d61-829d63f7df30","resource":{"resourceType":"Procedure","id":"4dbb85a7-f635-4769-8d61-829d63f7df30","meta":{"profile":["http://hl7.org/fhir/us/qicore/StructureDefinition/qicore-procedure"]},"extension":[{"url":"http://hl7.org/fhir/us/qicore/StructureDefinition/qicore-recorded","valueDateTime":"2013-12-04T09:35:00-04:00"}],"status":"completed","code":{"coding":[{"system":"http://www.cms.gov/Medicare/Coding/ICD10","code":"0SUT09Z"}]},"subject":{"reference":"Patient/cad33033-1cf9-4ab9-aa2d-1cf578777ee9"},"performedPeriod":{"start":"2026-09-01T05:00:00+00:00","end":"2026-09-02T05:00:00+00:00"}},"request":{"method":"PUT","url":"Procedure/4dbb85a7-f635-4769-8d61-829d63f7df30"}},{"fullUrl":"https://madie.cms.gov/Organization/fd9f2ea7-9a05-4e66-b937-6bfb78d878bb","resource":{"resourceType":"Organization","id":"3e899f33-84eb-4634-a770-a5a0bd7a80e7","meta":{"profile":["http://hl7.org/fhir/us/qicore/StructureDefinition/qicore-organization"]},"identifier":[{"use":"temp","system":"urn:oid:2.16.840.1.113883.4.4","value":"21-3259825"}],"active":true,"type":[{"coding":[{"system":"http://terminology.hl7.org/CodeSystem/organization-type","code":"pay","display":"Payer"}]}],"name":"Blue Cross Blue Shield of Texas","telecom":[{"system":"phone","value":"(+1) 972-766-6900"}],"address":[{"use":"billing","type":"postal","line":["P.O. Box 660044"],"city":"Dallas","state":"TX","postalCode":"75266-0044","country":"USA"}]},"request":{"method":"PUT","url":"Organization/3e899f33-84eb-4634-a770-a5a0bd7a80e7"}},{"fullUrl":"https://madie.cms.gov/Practitioner/8a5f8789-1359-49b3-a06e-cf63194a710f","resource":{"resourceType":"Practitioner","id":"8a5f8789-1359-49b3-a06e-cf63194a710f","identifier":[{"system":"http://hl7.org/fhir/sid/us-npi","value":"123456"}],"name":[{"family":"Evil","prefix":["Dr"]}]},"request":{"method":"PUT","url":"Practitioner/8a5f8789-1359-49b3-a06e-cf63194a710f"}},{"fullUrl":"https://madie.cms.gov/MeasureReport/e2c37891-d18b-44f3-9cef-5698c1d22e3c","resource":{"resourceType":"MeasureReport","id":"e2c37891-d18b-44f3-9cef-5698c1d22e3c","meta":{"profile":["http://hl7.org/fhir/us/cqfmeasures/StructureDefinition/test-case-cqfm"]},"contained":[{"resourceType":"Parameters","id":"815d9180-61d1-4ab0-99d6-ed82f2f677e7-parameters","parameter":[{"name":"subject","valueString":"cad33033-1cf9-4ab9-aa2d-1cf578777ee9"}]}],"extension":[{"url":"http://hl7.org/fhir/us/cqfmeasures/StructureDefinition/cqfm-inputParameters","valueReference":{"reference":"#815d9180-61d1-4ab0-99d6-ed82f2f677e7-parameters"}},{"url":"http://hl7.org/fhir/us/cqfmeasures/StructureDefinition/cqfm-testCaseDescription","valueMarkdown":"Patient had SCIP -Knee replacement Surg start 1 day before Encounter and Rank =1\n"}],"modifierExtension":[{"url":"http://hl7.org/fhir/us/cqfmeasures/StructureDefinition/cqfm-isTestCase","valueBoolean":true}],"status":"complete","type":"individual","measure":"https://madie.cms.gov/Measure/CMS108VTEProphylaxisFHIR","period":{"start":"2026-01-01","end":"2026-12-31"},"group":[{"population":[{"code":{"coding":[{"system":"http://terminology.hl7.org/CodeSystem/measure-population","code":"initial-population","display":"Initial Population"}]},"count":1},{"code":{"coding":[{"system":"http://terminology.hl7.org/CodeSystem/measure-population","code":"denominator","display":"Denominator"}]},"count":1},{"code":{"coding":[{"system":"http://terminology.hl7.org/CodeSystem/measure-population","code":"denominator-exclusion","display":"Denominator Exclusion"}]},"count":0},{"code":{"coding":[{"system":"http://terminology.hl7.org/CodeSystem/measure-population","code":"numerator","display":"Numerator"}]},"count":0}]}]},"request":{"method":"PUT","url":"MeasureReport/e2c37891-d18b-44f3-9cef-5698c1d22e3c"}}]}