{"resourceType":"Bundle","id":"tests-5da7c3c7-9663-47f5-90b8-b1e754127a6f-bundle","type":"transaction","entry":[{"fullUrl":"https://madie.cms.gov/Patient/5da7c3c7-9663-47f5-90b8-b1e754127a6f","resource":{"resourceType":"Patient","id":"5da7c3c7-9663-47f5-90b8-b1e754127a6f","meta":{"profile":["http://hl7.org/fhir/us/qicore/StructureDefinition/qicore-patient"]},"text":{"status":"generated","div":"<div xmlns=\"http://www.w3.org/1999/xhtml\"><div class=\"hapiHeaderText\">DA_IPC_DayOfAnes_ProcRvltDT <b>NUMERPASS </b></div><table class=\"hapiPropertyTable\"><tbody><tr><td>Identifier</td><td>1961fbe2390b043fd8bdab11cc421834</td></tr><tr><td>Date of birth</td><td><span>02 January 1974</span></td></tr></tbody></table></div>"},"extension":[{"url":"http://hl7.org/fhir/us/core/StructureDefinition/us-core-race","extension":[{"url":"ombCategory","valueCoding":{"system":"urn:oid:2.16.840.1.113883.6.238","code":"1002-5","display":"American Indian or Alaska Native","userSelected":true}},{"url":"text","valueString":"American Indian or Alaska Native"}]},{"url":"http://hl7.org/fhir/us/core/StructureDefinition/us-core-ethnicity","extension":[{"url":"ombCategory","valueCoding":{"system":"urn:oid:2.16.840.1.113883.6.238","code":"2135-2","display":"Hispanic or Latino","userSelected":true}},{"url":"text","valueString":"Hispanic or Latino"}]}],"identifier":[{"type":{"coding":[{"system":"http://terminology.hl7.org/CodeSystem/v2-0203","code":"MR"}]},"system":"https://bonnie-fhir.healthit.gov/","value":"612e6a5902c62a011f2e9c30"}],"active":true,"name":[{"use":"usual","family":"NUMERPass","given":["DA_IPC_DayOfAnes_ProcRvltDT"]}],"gender":"male","birthDate":"1975-01-02"},"request":{"method":"PUT","url":"Patient/5da7c3c7-9663-47f5-90b8-b1e754127a6f"}},{"fullUrl":"https://madie.cms.gov/Encounter/a5eb1912-cfd8-4bae-885e-4cf79a64f07c","resource":{"resourceType":"Encounter","id":"a5eb1912-cfd8-4bae-885e-4cf79a64f07c","meta":{"profile":["http://hl7.org/fhir/us/qicore/StructureDefinition/qicore-encounter"]},"status":"finished","class":{"system":"http://terminology.hl7.org/CodeSystem/v3-ActCode","code":"IMP","display":"inpatient encounter"},"type":[{"coding":[{"system":"http://snomed.info/sct","code":"8715000"}]}],"subject":{"reference":"Patient/5da7c3c7-9663-47f5-90b8-b1e754127a6f"},"period":{"start":"2026-11-01T08:00:00+00:00","end":"2026-11-26T08:15:00+00:00"},"length":{"value":25.0,"unit":"days"}},"request":{"method":"PUT","url":"Encounter/a5eb1912-cfd8-4bae-885e-4cf79a64f07c"}},{"fullUrl":"https://madie.cms.gov/Coverage/65ad6c62-da8b-4511-a657-be1b8da0b712","resource":{"resourceType":"Coverage","id":"65ad6c62-da8b-4511-a657-be1b8da0b712","status":"active","beneficiary":{"reference":"Patient/5da7c3c7-9663-47f5-90b8-b1e754127a6f"},"period":{"start":"1975-01-02T08:00:00+00:00"},"payor":[{"reference":"Organization/5ad6ea38-07e9-4482-9e1b-c09eee595be9"}]},"request":{"method":"PUT","url":"Coverage/65ad6c62-da8b-4511-a657-be1b8da0b712"}},{"fullUrl":"https://madie.cms.gov/Procedure/3a52ee96-f270-46fd-afc5-88ed9a042bdf","resource":{"resourceType":"Procedure","id":"3a52ee96-f270-46fd-afc5-88ed9a042bdf","meta":{"profile":["http://hl7.org/fhir/us/qicore/StructureDefinition/qicore-procedure"]},"extension":[{"url":"http://hl7.org/fhir/us/qicore/StructureDefinition/qicore-recorded","valueDateTime":"2013-11-02T09:35:00-04:00"}],"status":"completed","code":{"coding":[{"system":"http://snomed.info/sct","code":"443448006","display":"Application of intermittent pneumatic compression device (procedure)"}]},"subject":{"reference":"Patient/5da7c3c7-9663-47f5-90b8-b1e754127a6f"},"performedDateTime":"2026-11-01T11:00:00+00:00"},"request":{"method":"PUT","url":"Procedure/3a52ee96-f270-46fd-afc5-88ed9a042bdf"}},{"fullUrl":"https://madie.cms.gov/Procedure/8667696f-cb63-4006-bbf0-51789e6e1c30","resource":{"resourceType":"Procedure","id":"8667696f-cb63-4006-bbf0-51789e6e1c30","meta":{"profile":["http://hl7.org/fhir/us/qicore/StructureDefinition/qicore-procedure"]},"extension":[{"url":"http://hl7.org/fhir/us/qicore/StructureDefinition/qicore-recorded","valueDateTime":"2013-11-02T09:35:00-04:00"}],"status":"completed","code":{"coding":[{"system":"http://snomed.info/sct","code":"18946005"}]},"subject":{"reference":"Patient/5da7c3c7-9663-47f5-90b8-b1e754127a6f"},"performedPeriod":{"start":"2026-11-01T09:00:00+00:00","end":"2026-11-01T09:15:00+00:00"}},"request":{"method":"PUT","url":"Procedure/8667696f-cb63-4006-bbf0-51789e6e1c30"}},{"fullUrl":"https://madie.cms.gov/Procedure/6c6aabce-5309-4e52-9a23-6c7cd808569e","resource":{"resourceType":"Procedure","id":"6c6aabce-5309-4e52-9a23-6c7cd808569e","status":"completed","code":{"coding":[{"system":"http://snomed.info/sct","version":"2025-03","code":"360030002","display":"Application of device (procedure)","userSelected":true}]},"subject":{"reference":"Patient/5da7c3c7-9663-47f5-90b8-b1e754127a6f"},"performedDateTime":"2026-11-01T11:00:00.000+00:00","usedCode":[{"coding":[{"system":"http://snomed.info/sct","code":"428411000124104","display":"Intermittent pneumatic compression boot (physical object)","userSelected":true}]}]},"request":{"method":"PUT","url":"Procedure/6c6aabce-5309-4e52-9a23-6c7cd808569e"}},{"fullUrl":"https://madie.cms.gov/Organization/f77a68db-da76-498a-be97-13bbcc67eeb4","resource":{"resourceType":"Organization","id":"5ad6ea38-07e9-4482-9e1b-c09eee595be9","meta":{"profile":["http://hl7.org/fhir/us/qicore/StructureDefinition/qicore-organization"]},"identifier":[{"use":"temp","system":"urn:oid:2.16.840.1.113883.4.4","value":"21-3259825"}],"active":true,"type":[{"coding":[{"system":"http://terminology.hl7.org/CodeSystem/organization-type","code":"pay","display":"Payer"}]}],"name":"Blue Cross Blue Shield of Texas","telecom":[{"system":"phone","value":"(+1) 972-766-6900"}],"address":[{"use":"billing","type":"postal","line":["P.O. Box 660044"],"city":"Dallas","state":"TX","postalCode":"75266-0044","country":"USA"}]},"request":{"method":"PUT","url":"Organization/5ad6ea38-07e9-4482-9e1b-c09eee595be9"}},{"fullUrl":"https://madie.cms.gov/Practitioner/344da41a-a5c3-4eca-9db5-e65f1935d56e","resource":{"resourceType":"Practitioner","id":"344da41a-a5c3-4eca-9db5-e65f1935d56e","identifier":[{"system":"http://hl7.org/fhir/sid/us-npi","value":"123456"}],"name":[{"family":"Evil","prefix":["Dr"]}]},"request":{"method":"PUT","url":"Practitioner/344da41a-a5c3-4eca-9db5-e65f1935d56e"}},{"fullUrl":"https://madie.cms.gov/MeasureReport/51007351-f2a0-4426-bf8a-00f47e1a2204","resource":{"resourceType":"MeasureReport","id":"51007351-f2a0-4426-bf8a-00f47e1a2204","meta":{"profile":["http://hl7.org/fhir/us/cqfmeasures/StructureDefinition/test-case-cqfm"]},"contained":[{"resourceType":"Parameters","id":"382d67b2-c9e8-44fe-a65a-9b7e24a71c07-parameters","parameter":[{"name":"subject","valueString":"5da7c3c7-9663-47f5-90b8-b1e754127a6f"}]}],"extension":[{"url":"http://hl7.org/fhir/us/cqfmeasures/StructureDefinition/cqfm-inputParameters","valueReference":{"reference":"#382d67b2-c9e8-44fe-a65a-9b7e24a71c07-parameters"}},{"url":"http://hl7.org/fhir/us/cqfmeasures/StructureDefinition/cqfm-testCaseDescription","valueMarkdown":"IPC =0 day after end of anesthesia\n"}],"modifierExtension":[{"url":"http://hl7.org/fhir/us/cqfmeasures/StructureDefinition/cqfm-isTestCase","valueBoolean":true}],"status":"complete","type":"individual","measure":"https://madie.cms.gov/Measure/CMS108VTEProphylaxisFHIR","period":{"start":"2026-01-01","end":"2026-12-31"},"group":[{"population":[{"code":{"coding":[{"system":"http://terminology.hl7.org/CodeSystem/measure-population","code":"initial-population","display":"Initial Population"}]},"count":1},{"code":{"coding":[{"system":"http://terminology.hl7.org/CodeSystem/measure-population","code":"denominator","display":"Denominator"}]},"count":1},{"code":{"coding":[{"system":"http://terminology.hl7.org/CodeSystem/measure-population","code":"denominator-exclusion","display":"Denominator Exclusion"}]},"count":0},{"code":{"coding":[{"system":"http://terminology.hl7.org/CodeSystem/measure-population","code":"numerator","display":"Numerator"}]},"count":1}]}]},"request":{"method":"PUT","url":"MeasureReport/51007351-f2a0-4426-bf8a-00f47e1a2204"}}]}