{"resourceType":"Bundle","id":"tests-73673965-9b35-446e-bad7-1701991e6906-bundle","type":"transaction","entry":[{"fullUrl":"https://madie.cms.gov/Patient/73673965-9b35-446e-bad7-1701991e6906","resource":{"resourceType":"Patient","id":"73673965-9b35-446e-bad7-1701991e6906","meta":{"profile":["http://hl7.org/fhir/us/qicore/StructureDefinition/qicore-patient"]},"text":{"status":"generated","div":"<div xmlns=\"http://www.w3.org/1999/xhtml\"><div class=\"hapiHeaderText\">VTERiskAssStartEDendOnIPEncStart <b>NUMERPASS </b></div><table class=\"hapiPropertyTable\"><tbody><tr><td>Identifier</td><td>9eeaae30f2c13f342ba722a8c92cd6bf</td></tr><tr><td>Date of birth</td><td><span>02 January 1974</span></td></tr></tbody></table></div>"},"extension":[{"url":"http://hl7.org/fhir/us/core/StructureDefinition/us-core-race","extension":[{"url":"ombCategory","valueCoding":{"system":"urn:oid:2.16.840.1.113883.6.238","code":"1002-5","display":"American Indian or Alaska Native","userSelected":true}},{"url":"text","valueString":"American Indian or Alaska Native"}]},{"url":"http://hl7.org/fhir/us/core/StructureDefinition/us-core-ethnicity","extension":[{"url":"ombCategory","valueCoding":{"system":"urn:oid:2.16.840.1.113883.6.238","code":"2135-2","display":"Hispanic or Latino","userSelected":true}},{"url":"text","valueString":"Hispanic or Latino"}]}],"identifier":[{"type":{"coding":[{"system":"http://terminology.hl7.org/CodeSystem/v2-0203","code":"MR"}]},"system":"https://bonnie-fhir.healthit.gov/","value":"612e6b2902c62a011f2ecaf3"}],"active":true,"name":[{"use":"usual","family":"NUMERPass","given":["VTERiskAssStartEDendOnIPEncStart"]}],"gender":"male","birthDate":"1975-01-02"},"request":{"method":"PUT","url":"Patient/73673965-9b35-446e-bad7-1701991e6906"}},{"fullUrl":"https://madie.cms.gov/Encounter/bf5630b7-6f84-4f0e-8646-f4eef881658f","resource":{"resourceType":"Encounter","id":"bf5630b7-6f84-4f0e-8646-f4eef881658f","meta":{"profile":["http://hl7.org/fhir/us/qicore/StructureDefinition/qicore-encounter"]},"status":"finished","class":{"system":"http://terminology.hl7.org/CodeSystem/v3-ActCode","code":"EMER","display":"emergency"},"type":[{"coding":[{"system":"http://snomed.info/sct","code":"4525004"}]}],"subject":{"reference":"Patient/73673965-9b35-446e-bad7-1701991e6906"},"period":{"start":"2026-11-01T06:00:00+00:00","end":"2026-11-01T08:00:00+00:00"},"length":{"value":0.0,"unit":"days"}},"request":{"method":"PUT","url":"Encounter/bf5630b7-6f84-4f0e-8646-f4eef881658f"}},{"fullUrl":"https://madie.cms.gov/Encounter/a2c27379-ee9f-4354-b3ff-488728057dce","resource":{"resourceType":"Encounter","id":"a2c27379-ee9f-4354-b3ff-488728057dce","meta":{"profile":["http://hl7.org/fhir/us/qicore/StructureDefinition/qicore-encounter"]},"status":"finished","class":{"system":"http://terminology.hl7.org/CodeSystem/v3-ActCode","code":"IMP","display":"inpatient encounter"},"type":[{"coding":[{"system":"http://snomed.info/sct","code":"8715000"}]}],"subject":{"reference":"Patient/73673965-9b35-446e-bad7-1701991e6906"},"period":{"start":"2026-11-01T08:00:00+00:00","end":"2026-11-26T08:15:00+00:00"},"length":{"value":25.0,"unit":"days"}},"request":{"method":"PUT","url":"Encounter/a2c27379-ee9f-4354-b3ff-488728057dce"}},{"fullUrl":"https://madie.cms.gov/Observation/0a78cb7b-9a0c-4a1b-8254-add6f5b59528","resource":{"resourceType":"Observation","id":"0a78cb7b-9a0c-4a1b-8254-add6f5b59528","meta":{"profile":["http://hl7.org/fhir/us/qicore/StructureDefinition/qicore-observation"]},"status":"final","category":[{"coding":[{"system":"http://terminology.hl7.org/CodeSystem/observation-category","code":"exam","display":"Exam","userSelected":true}]}],"code":{"coding":[{"system":"http://loinc.org","code":"72136-5"}]},"subject":{"reference":"Patient/73673965-9b35-446e-bad7-1701991e6906"},"effectivePeriod":{"start":"2026-11-01T07:15:00.000+00:00"},"valueCodeableConcept":{"coding":[{"system":"http://snomed.info/sct","code":"260362008","display":"Low Risk"}]}},"request":{"method":"PUT","url":"Observation/0a78cb7b-9a0c-4a1b-8254-add6f5b59528"}},{"fullUrl":"https://madie.cms.gov/Coverage/6ed66633-0109-411b-9a81-514a082fc254","resource":{"resourceType":"Coverage","id":"6ed66633-0109-411b-9a81-514a082fc254","status":"active","beneficiary":{"reference":"Patient/73673965-9b35-446e-bad7-1701991e6906"},"period":{"start":"1975-01-02T08:00:00+00:00"},"payor":[{"reference":"Organization/5ad6ea38-07e9-4482-9e1b-c09eee595be9"}]},"request":{"method":"PUT","url":"Coverage/6ed66633-0109-411b-9a81-514a082fc254"}},{"fullUrl":"https://madie.cms.gov/Organization/c7231cca-2270-41b0-a650-1feaa3f97b5d","resource":{"resourceType":"Organization","id":"5ad6ea38-07e9-4482-9e1b-c09eee595be9","meta":{"profile":["http://hl7.org/fhir/us/qicore/StructureDefinition/qicore-organization"]},"identifier":[{"use":"temp","system":"urn:oid:2.16.840.1.113883.4.4","value":"21-3259825"}],"active":true,"type":[{"coding":[{"system":"http://terminology.hl7.org/CodeSystem/organization-type","code":"pay","display":"Payer"}]}],"name":"Blue Cross Blue Shield of Texas","telecom":[{"system":"phone","value":"(+1) 972-766-6900"}],"address":[{"use":"billing","type":"postal","line":["P.O. Box 660044"],"city":"Dallas","state":"TX","postalCode":"75266-0044","country":"USA"}]},"request":{"method":"PUT","url":"Organization/5ad6ea38-07e9-4482-9e1b-c09eee595be9"}},{"fullUrl":"https://madie.cms.gov/Practitioner/744ddbb8-83c6-4f15-a31e-1ef274085685","resource":{"resourceType":"Practitioner","id":"744ddbb8-83c6-4f15-a31e-1ef274085685","identifier":[{"system":"http://hl7.org/fhir/sid/us-npi","value":"123456"}],"name":[{"family":"Evil","prefix":["Dr"]}]},"request":{"method":"PUT","url":"Practitioner/744ddbb8-83c6-4f15-a31e-1ef274085685"}},{"fullUrl":"https://madie.cms.gov/MeasureReport/1050a192-0fdd-423c-9a01-956671aae165","resource":{"resourceType":"MeasureReport","id":"1050a192-0fdd-423c-9a01-956671aae165","meta":{"profile":["http://hl7.org/fhir/us/cqfmeasures/StructureDefinition/test-case-cqfm"]},"contained":[{"resourceType":"Parameters","id":"6a728a93-3de2-4c9b-9517-69675120a7cf-parameters","parameter":[{"name":"subject","valueString":"73673965-9b35-446e-bad7-1701991e6906"}]}],"extension":[{"url":"http://hl7.org/fhir/us/cqfmeasures/StructureDefinition/cqfm-inputParameters","valueReference":{"reference":"#6a728a93-3de2-4c9b-9517-69675120a7cf-parameters"}},{"url":"http://hl7.org/fhir/us/cqfmeasures/StructureDefinition/cqfm-testCaseDescription","valueMarkdown":"\">18, LOS<120 day,Risk, RCA period start in ED (RCA endtime is null, and ED.end = IP.start\n\"\n"}],"modifierExtension":[{"url":"http://hl7.org/fhir/us/cqfmeasures/StructureDefinition/cqfm-isTestCase","valueBoolean":true}],"status":"complete","type":"individual","measure":"https://madie.cms.gov/Measure/CMS108VTEProphylaxisFHIR","period":{"start":"2026-01-01","end":"2026-12-31"},"group":[{"population":[{"code":{"coding":[{"system":"http://terminology.hl7.org/CodeSystem/measure-population","code":"initial-population","display":"Initial Population"}]},"count":1},{"code":{"coding":[{"system":"http://terminology.hl7.org/CodeSystem/measure-population","code":"denominator","display":"Denominator"}]},"count":1},{"code":{"coding":[{"system":"http://terminology.hl7.org/CodeSystem/measure-population","code":"denominator-exclusion","display":"Denominator Exclusion"}]},"count":0},{"code":{"coding":[{"system":"http://terminology.hl7.org/CodeSystem/measure-population","code":"numerator","display":"Numerator"}]},"count":1}]}]},"request":{"method":"PUT","url":"MeasureReport/1050a192-0fdd-423c-9a01-956671aae165"}}]}