{"resourceType":"Bundle","id":"tests-eed13aa3-a2ca-4262-b23a-940c5e576fe8-bundle","type":"transaction","entry":[{"fullUrl":"https://madie.cms.gov/Patient/eed13aa3-a2ca-4262-b23a-940c5e576fe8","resource":{"resourceType":"Patient","id":"eed13aa3-a2ca-4262-b23a-940c5e576fe8","meta":{"profile":["http://hl7.org/fhir/us/qicore/StructureDefinition/qicore-patient"]},"text":{"status":"generated","div":"<div xmlns=\"http://www.w3.org/1999/xhtml\"><div class=\"hapiHeaderText\">SCIP_GenSurgRank2_ProcStartNull <b>DENEXFAIL </b></div><table class=\"hapiPropertyTable\"><tbody><tr><td>Identifier</td><td>66c70c125db369967b4b164e75338304</td></tr><tr><td>Date of birth</td><td><span>01 September 2000</span></td></tr></tbody></table></div>"},"extension":[{"url":"http://hl7.org/fhir/us/core/StructureDefinition/us-core-race","extension":[{"url":"ombCategory","valueCoding":{"system":"urn:oid:2.16.840.1.113883.6.238","code":"1002-5","display":"American Indian or Alaska Native","userSelected":true}},{"url":"text","valueString":"American Indian or Alaska Native"}]},{"url":"http://hl7.org/fhir/us/core/StructureDefinition/us-core-ethnicity","extension":[{"url":"ombCategory","valueCoding":{"system":"urn:oid:2.16.840.1.113883.6.238","code":"2135-2","display":"Hispanic or Latino","userSelected":true}},{"url":"text","valueString":"Hispanic or Latino"}]}],"identifier":[{"type":{"coding":[{"system":"http://terminology.hl7.org/CodeSystem/v2-0203","code":"MR"}]},"system":"https://bonnie-fhir.healthit.gov/","value":"612e6b2402c62a011f2ec9ed"}],"active":true,"name":[{"use":"usual","family":"DENEXFail","given":["SCIP_GenSurgRank2_ProcStartNull"]}],"gender":"male","birthDate":"2001-09-01"},"request":{"method":"PUT","url":"Patient/eed13aa3-a2ca-4262-b23a-940c5e576fe8"}},{"fullUrl":"https://madie.cms.gov/Encounter/b291dd76-cf55-45b9-9ffd-851f3fb0241f","resource":{"resourceType":"Encounter","id":"b291dd76-cf55-45b9-9ffd-851f3fb0241f","meta":{"profile":["http://hl7.org/fhir/us/qicore/StructureDefinition/qicore-encounter"]},"extension":[{"url":"http://hl7.org/fhir/us/qicore/StructureDefinition/qicore-encounter-procedure","extension":[{"url":"type","valueCodeableConcept":{"coding":[{"system":"http://www.cms.gov/Medicare/Coding/ICD10","code":"008Q0ZZ"}]}},{"url":"rank","valuePositiveInt":2},{"url":"procedure","valueReference":{"reference":"Procedure/84028554-99c7-4902-9336-4f1c6e5eb6ab"}}]}],"status":"finished","class":{"system":"http://terminology.hl7.org/CodeSystem/v3-ActCode","code":"IMP","display":"inpatient encounter"},"type":[{"coding":[{"system":"http://snomed.info/sct","code":"183452005"}]}],"subject":{"reference":"Patient/eed13aa3-a2ca-4262-b23a-940c5e576fe8"},"period":{"start":"2026-09-02T06:00:00+00:00","end":"2026-12-31T12:59:00+00:00"},"length":{"value":120.0,"unit":"days"}},"request":{"method":"PUT","url":"Encounter/b291dd76-cf55-45b9-9ffd-851f3fb0241f"}},{"fullUrl":"https://madie.cms.gov/Coverage/4d8c7b71-6214-47c9-9c0c-9990ec979b23","resource":{"resourceType":"Coverage","id":"4d8c7b71-6214-47c9-9c0c-9990ec979b23","status":"active","beneficiary":{"reference":"Patient/eed13aa3-a2ca-4262-b23a-940c5e576fe8"},"period":{"start":"2001-09-01T08:00:00+00:00"},"payor":[{"reference":"Organization/5ad6ea38-07e9-4482-9e1b-c09eee595be9"}]},"request":{"method":"PUT","url":"Coverage/4d8c7b71-6214-47c9-9c0c-9990ec979b23"}},{"fullUrl":"https://madie.cms.gov/Procedure/84028554-99c7-4902-9336-4f1c6e5eb6ab","resource":{"resourceType":"Procedure","id":"84028554-99c7-4902-9336-4f1c6e5eb6ab","meta":{"profile":["http://hl7.org/fhir/us/qicore/StructureDefinition/qicore-procedure"]},"extension":[{"url":"http://hl7.org/fhir/us/qicore/StructureDefinition/qicore-recorded","valueDateTime":"2013-12-04T09:35:00-04:00"}],"status":"completed","code":{"coding":[{"system":"http://www.cms.gov/Medicare/Coding/ICD10","code":"008Q0ZZ"}]},"subject":{"reference":"Patient/eed13aa3-a2ca-4262-b23a-940c5e576fe8"},"performedPeriod":{"end":"2026-11-30T08:15:00+00:00"}},"request":{"method":"PUT","url":"Procedure/84028554-99c7-4902-9336-4f1c6e5eb6ab"}},{"fullUrl":"https://madie.cms.gov/Organization/6cf1be77-8a68-4555-a560-b2219d11cf87","resource":{"resourceType":"Organization","id":"5ad6ea38-07e9-4482-9e1b-c09eee595be9","meta":{"profile":["http://hl7.org/fhir/us/qicore/StructureDefinition/qicore-organization"]},"identifier":[{"use":"temp","system":"urn:oid:2.16.840.1.113883.4.4","value":"21-3259825"}],"active":true,"type":[{"coding":[{"system":"http://terminology.hl7.org/CodeSystem/organization-type","code":"pay","display":"Payer"}]}],"name":"Blue Cross Blue Shield of Texas","telecom":[{"system":"phone","value":"(+1) 972-766-6900"}],"address":[{"use":"billing","type":"postal","line":["P.O. Box 660044"],"city":"Dallas","state":"TX","postalCode":"75266-0044","country":"USA"}]},"request":{"method":"PUT","url":"Organization/5ad6ea38-07e9-4482-9e1b-c09eee595be9"}},{"fullUrl":"https://madie.cms.gov/Practitioner/e2884619-8a22-4787-8c3b-68a7e70ce8dc","resource":{"resourceType":"Practitioner","id":"e2884619-8a22-4787-8c3b-68a7e70ce8dc","identifier":[{"system":"http://hl7.org/fhir/sid/us-npi","value":"123456"}],"name":[{"family":"Evil","prefix":["Dr"]}]},"request":{"method":"PUT","url":"Practitioner/e2884619-8a22-4787-8c3b-68a7e70ce8dc"}},{"fullUrl":"https://madie.cms.gov/MeasureReport/9b9dfe59-f970-484a-86c7-d426f61852a2","resource":{"resourceType":"MeasureReport","id":"9b9dfe59-f970-484a-86c7-d426f61852a2","meta":{"profile":["http://hl7.org/fhir/us/cqfmeasures/StructureDefinition/test-case-cqfm"]},"contained":[{"resourceType":"Parameters","id":"d69dcf09-84d2-4476-92ce-d77f92642005-parameters","parameter":[{"name":"subject","valueString":"eed13aa3-a2ca-4262-b23a-940c5e576fe8"}]}],"extension":[{"url":"http://hl7.org/fhir/us/cqfmeasures/StructureDefinition/cqfm-inputParameters","valueReference":{"reference":"#d69dcf09-84d2-4476-92ce-d77f92642005-parameters"}},{"url":"http://hl7.org/fhir/us/cqfmeasures/StructureDefinition/cqfm-testCaseDescription","valueMarkdown":"Patient had SCIP -GenSurg during Encounter and Rank =2 with Proc start datetime is null\n"}],"modifierExtension":[{"url":"http://hl7.org/fhir/us/cqfmeasures/StructureDefinition/cqfm-isTestCase","valueBoolean":true}],"status":"complete","type":"individual","measure":"https://madie.cms.gov/Measure/CMS108VTEProphylaxisFHIR","period":{"start":"2026-01-01","end":"2026-12-31"},"group":[{"population":[{"code":{"coding":[{"system":"http://terminology.hl7.org/CodeSystem/measure-population","code":"initial-population","display":"Initial Population"}]},"count":1},{"code":{"coding":[{"system":"http://terminology.hl7.org/CodeSystem/measure-population","code":"denominator","display":"Denominator"}]},"count":1},{"code":{"coding":[{"system":"http://terminology.hl7.org/CodeSystem/measure-population","code":"denominator-exclusion","display":"Denominator Exclusion"}]},"count":0},{"code":{"coding":[{"system":"http://terminology.hl7.org/CodeSystem/measure-population","code":"numerator","display":"Numerator"}]},"count":0}]}]},"request":{"method":"PUT","url":"MeasureReport/9b9dfe59-f970-484a-86c7-d426f61852a2"}}]}