{"resourceType":"Bundle","id":"tests-b7783b8c-ba46-4509-a75e-203659abab3d-bundle","type":"transaction","entry":[{"fullUrl":"https://madie.cms.gov/Patient/b7783b8c-ba46-4509-a75e-203659abab3d","resource":{"resourceType":"Patient","id":"b7783b8c-ba46-4509-a75e-203659abab3d","meta":{"profile":["http://hl7.org/fhir/us/qicore/StructureDefinition/qicore-patient"]},"text":{"status":"generated","div":"<div xmlns=\"http://www.w3.org/1999/xhtml\"><div class=\"hapiHeaderText\">PtRef_DA_VFP_IPEnc <b>NUMERPASS </b></div><table class=\"hapiPropertyTable\"><tbody><tr><td>Identifier</td><td>5f7ad5e9fc357bf072546722e2c19e60</td></tr><tr><td>Date of birth</td><td><span>02 January 1974</span></td></tr></tbody></table></div>"},"extension":[{"url":"http://hl7.org/fhir/us/core/StructureDefinition/us-core-race","extension":[{"url":"ombCategory","valueCoding":{"system":"urn:oid:2.16.840.1.113883.6.238","code":"1002-5","display":"American Indian or Alaska Native","userSelected":true}},{"url":"text","valueString":"American Indian or Alaska Native"}]},{"url":"http://hl7.org/fhir/us/core/StructureDefinition/us-core-ethnicity","extension":[{"url":"ombCategory","valueCoding":{"system":"urn:oid:2.16.840.1.113883.6.238","code":"2135-2","display":"Hispanic or Latino","userSelected":true}},{"url":"text","valueString":"Hispanic or Latino"}]}],"identifier":[{"type":{"coding":[{"system":"http://terminology.hl7.org/CodeSystem/v2-0203","code":"MR"}]},"system":"https://bonnie-fhir.healthit.gov/","value":"612e6ab302c62a011f2eafaf"}],"active":true,"name":[{"use":"usual","family":"NUMERPass","given":["PtRef_DA_VFP_IPEnc"]}],"gender":"male","birthDate":"1975-01-02"},"request":{"method":"PUT","url":"Patient/b7783b8c-ba46-4509-a75e-203659abab3d"}},{"fullUrl":"https://madie.cms.gov/Encounter/e89c4ae0-9fdb-4750-8205-f010d893e8fc","resource":{"resourceType":"Encounter","id":"e89c4ae0-9fdb-4750-8205-f010d893e8fc","meta":{"profile":["http://hl7.org/fhir/us/qicore/StructureDefinition/qicore-encounter"]},"status":"finished","class":{"system":"http://terminology.hl7.org/CodeSystem/v3-ActCode","code":"EMER","display":"emergency"},"type":[{"coding":[{"system":"http://snomed.info/sct","code":"4525004"}]}],"subject":{"reference":"Patient/b7783b8c-ba46-4509-a75e-203659abab3d"},"period":{"start":"2026-10-31T05:00:00+00:00","end":"2026-11-01T07:15:00+00:00"},"length":{"value":1,"unit":"days"}},"request":{"method":"PUT","url":"Encounter/e89c4ae0-9fdb-4750-8205-f010d893e8fc"}},{"fullUrl":"https://madie.cms.gov/Encounter/26ef26d7-7e9d-45ee-8946-03ef30ef65af","resource":{"resourceType":"Encounter","id":"26ef26d7-7e9d-45ee-8946-03ef30ef65af","meta":{"profile":["http://hl7.org/fhir/us/qicore/StructureDefinition/qicore-encounter"]},"status":"finished","class":{"system":"http://terminology.hl7.org/CodeSystem/v3-ActCode","code":"IMP","display":"inpatient encounter"},"type":[{"coding":[{"system":"http://snomed.info/sct","code":"8715000"}]}],"subject":{"reference":"Patient/b7783b8c-ba46-4509-a75e-203659abab3d"},"period":{"start":"2026-11-01T08:00:00+00:00","end":"2026-11-26T08:15:00+00:00"},"length":{"value":25,"unit":"days"}},"request":{"method":"PUT","url":"Encounter/26ef26d7-7e9d-45ee-8946-03ef30ef65af"}},{"fullUrl":"https://madie.cms.gov/Coverage/b58e3b3f-1849-4595-874a-3eee9216498a","resource":{"resourceType":"Coverage","id":"b58e3b3f-1849-4595-874a-3eee9216498a","status":"active","beneficiary":{"reference":"Patient/b7783b8c-ba46-4509-a75e-203659abab3d"},"period":{"start":"1975-01-02T08:00:00+00:00"},"payor":[{"reference":"Organization/db141f66-a1cc-407b-9e95-adac27adee14"}]},"request":{"method":"PUT","url":"Coverage/b58e3b3f-1849-4595-874a-3eee9216498a"}},{"fullUrl":"https://madie.cms.gov/Procedure/c56fd10b-590a-4e5e-9cf1-d504adc4a531","resource":{"resourceType":"Procedure","id":"c56fd10b-590a-4e5e-9cf1-d504adc4a531","meta":{"profile":["http://hl7.org/fhir/us/qicore/StructureDefinition/qicore-procedurenotdone"]},"extension":[{"url":"http://hl7.org/fhir/us/qicore/StructureDefinition/qicore-recorded","valueDateTime":"2026-11-01T09:35:00-04:00"}],"status":"not-done","statusReason":{"coding":[{"system":"http://snomed.info/sct","code":"443390004","display":"Refusal of treatment by patient (situation)","userSelected":true}]},"code":{"coding":[{"system":"http://snomed.info/sct","version":"2025-03","code":"442410008","display":"Application of venous foot pump (procedure)","userSelected":true}]},"subject":{"reference":"Patient/b7783b8c-ba46-4509-a75e-203659abab3d"},"_performedDateTime":{"extension":[{"url":"http://hl7.org/fhir/StructureDefinition/data-absent-reason","valueCode":"not-performed"}]}},"request":{"method":"PUT","url":"Procedure/c56fd10b-590a-4e5e-9cf1-d504adc4a531"}},{"fullUrl":"https://madie.cms.gov/Organization/1c83b6fb-cce1-4ada-8498-72721fba41fd","resource":{"resourceType":"Organization","id":"db141f66-a1cc-407b-9e95-adac27adee14","meta":{"profile":["http://hl7.org/fhir/us/qicore/StructureDefinition/qicore-organization"]},"identifier":[{"use":"temp","system":"urn:oid:2.16.840.1.113883.4.4","value":"21-3259825"}],"active":true,"type":[{"coding":[{"system":"http://terminology.hl7.org/CodeSystem/organization-type","code":"pay","display":"Payer"}]}],"name":"Blue Cross Blue Shield of Texas","telecom":[{"system":"phone","value":"(+1) 972-766-6900"}],"address":[{"use":"billing","type":"postal","line":["P.O. Box 660044"],"city":"Dallas","state":"TX","postalCode":"75266-0044","country":"USA"}]},"request":{"method":"PUT","url":"Organization/db141f66-a1cc-407b-9e95-adac27adee14"}},{"fullUrl":"https://madie.cms.gov/Practitioner/bcd3e307-627a-46f0-b23d-4dbb96c6bc13","resource":{"resourceType":"Practitioner","id":"bcd3e307-627a-46f0-b23d-4dbb96c6bc13","identifier":[{"system":"http://hl7.org/fhir/sid/us-npi","value":"123456"}],"name":[{"family":"Evil","prefix":["Dr"]}]},"request":{"method":"PUT","url":"Practitioner/bcd3e307-627a-46f0-b23d-4dbb96c6bc13"}},{"fullUrl":"https://madie.cms.gov/MeasureReport/76700ef5-4b1f-48a7-9551-bf3f53c1db0b","resource":{"resourceType":"MeasureReport","id":"76700ef5-4b1f-48a7-9551-bf3f53c1db0b","meta":{"profile":["http://hl7.org/fhir/us/cqfmeasures/StructureDefinition/test-case-cqfm"]},"contained":[{"resourceType":"Parameters","id":"1410011f-f24f-4323-b204-df5a9c9bc0e6-parameters","parameter":[{"name":"subject","valueString":"b7783b8c-ba46-4509-a75e-203659abab3d"}]}],"extension":[{"url":"http://hl7.org/fhir/us/cqfmeasures/StructureDefinition/cqfm-inputParameters","valueReference":{"reference":"#1410011f-f24f-4323-b204-df5a9c9bc0e6-parameters"}},{"url":"http://hl7.org/fhir/us/cqfmeasures/StructureDefinition/cqfm-testCaseDescription","valueMarkdown":"VFP refused in day of inpatient encounter\n"}],"modifierExtension":[{"url":"http://hl7.org/fhir/us/cqfmeasures/StructureDefinition/cqfm-isTestCase","valueBoolean":true}],"status":"complete","type":"individual","measure":"https://madie.cms.gov/Measure/CMS108VTEProphylaxisFHIR","period":{"start":"2026-01-01","end":"2026-12-31"},"group":[{"population":[{"code":{"coding":[{"system":"http://terminology.hl7.org/CodeSystem/measure-population","code":"initial-population","display":"Initial Population"}]},"count":1},{"code":{"coding":[{"system":"http://terminology.hl7.org/CodeSystem/measure-population","code":"denominator","display":"Denominator"}]},"count":1},{"code":{"coding":[{"system":"http://terminology.hl7.org/CodeSystem/measure-population","code":"denominator-exclusion","display":"Denominator Exclusion"}]},"count":0},{"code":{"coding":[{"system":"http://terminology.hl7.org/CodeSystem/measure-population","code":"numerator","display":"Numerator"}]},"count":1}]}]},"request":{"method":"PUT","url":"MeasureReport/76700ef5-4b1f-48a7-9551-bf3f53c1db0b"}}]}