{"resourceType":"Bundle","id":"tests-96c7b8e3-2c28-4b46-a579-f56d644cf762-bundle","type":"transaction","entry":[{"fullUrl":"https://madie.cms.gov/Patient/96c7b8e3-2c28-4b46-a579-f56d644cf762","resource":{"resourceType":"Patient","id":"96c7b8e3-2c28-4b46-a579-f56d644cf762","meta":{"profile":["http://hl7.org/fhir/us/qicore/StructureDefinition/qicore-patient"]},"text":{"status":"generated","div":"<div xmlns=\"http://www.w3.org/1999/xhtml\"><div class=\"hapiHeaderText\">CMPerf_DayAfterAnesEnd2DayAFAdm <b>DENEXPASS </b></div><table class=\"hapiPropertyTable\"><tbody><tr><td>Identifier</td><td>33d5de982b1e73b15a4c778bb4a72964</td></tr><tr><td>Date of birth</td><td><span>02 January 1974</span></td></tr></tbody></table></div>"},"extension":[{"url":"http://hl7.org/fhir/us/core/StructureDefinition/us-core-race","extension":[{"url":"ombCategory","valueCoding":{"system":"urn:oid:2.16.840.1.113883.6.238","code":"1002-5","display":"American Indian or Alaska Native","userSelected":true}},{"url":"text","valueString":"American Indian or Alaska Native"}]},{"url":"http://hl7.org/fhir/us/core/StructureDefinition/us-core-ethnicity","extension":[{"url":"ombCategory","valueCoding":{"system":"urn:oid:2.16.840.1.113883.6.238","code":"2135-2","display":"Hispanic or Latino","userSelected":true}},{"url":"text","valueString":"Hispanic or Latino"}]}],"identifier":[{"type":{"coding":[{"system":"http://terminology.hl7.org/CodeSystem/v2-0203","code":"MR"}]},"system":"https://bonnie-fhir.healthit.gov/","value":"612e6b7502c62a011f2edce2"}],"active":true,"name":[{"use":"usual","family":"DENEXPass","given":["CMPerf_DayAfterAnesEnd2DayAFAdm"]}],"gender":"male","birthDate":"1975-01-02"},"request":{"method":"PUT","url":"Patient/96c7b8e3-2c28-4b46-a579-f56d644cf762"}},{"fullUrl":"https://madie.cms.gov/Encounter/06c85815-e112-4587-a168-bcf1b51fd654","resource":{"resourceType":"Encounter","id":"06c85815-e112-4587-a168-bcf1b51fd654","meta":{"profile":["http://hl7.org/fhir/us/qicore/StructureDefinition/qicore-encounter"]},"status":"finished","class":{"system":"http://terminology.hl7.org/CodeSystem/v3-ActCode","code":"IMP","display":"inpatient encounter"},"type":[{"coding":[{"system":"http://snomed.info/sct","code":"8715000"}]}],"subject":{"reference":"Patient/96c7b8e3-2c28-4b46-a579-f56d644cf762"},"period":{"start":"2026-11-01T08:00:00+00:00","end":"2026-11-26T08:15:00+00:00"},"length":{"value":25.0,"unit":"days"}},"request":{"method":"PUT","url":"Encounter/06c85815-e112-4587-a168-bcf1b51fd654"}},{"fullUrl":"https://madie.cms.gov/Procedure/f9a25719-df7f-441b-9610-f7cc6270f674","resource":{"resourceType":"Procedure","id":"f9a25719-df7f-441b-9610-f7cc6270f674","meta":{"profile":["http://hl7.org/fhir/us/qicore/StructureDefinition/qicore-procedure"]},"extension":[{"url":"http://hl7.org/fhir/us/qicore/StructureDefinition/qicore-recorded","valueDateTime":"2013-11-03T09:35:00-04:00"}],"status":"completed","code":{"coding":[{"system":"http://snomed.info/sct","code":"133918004"}]},"subject":{"reference":"Patient/96c7b8e3-2c28-4b46-a579-f56d644cf762"},"performedPeriod":{"start":"2026-11-03T09:15:00+00:00"}},"request":{"method":"PUT","url":"Procedure/f9a25719-df7f-441b-9610-f7cc6270f674"}},{"fullUrl":"https://madie.cms.gov/Coverage/64888e88-70ac-47b2-b86a-1b192eca82a9","resource":{"resourceType":"Coverage","id":"64888e88-70ac-47b2-b86a-1b192eca82a9","status":"active","beneficiary":{"reference":"Patient/96c7b8e3-2c28-4b46-a579-f56d644cf762"},"period":{"start":"1975-01-02T08:00:00+00:00"},"payor":[{"reference":"Organization/607fdef9-3983-4cef-ab1a-95434d29b463"}]},"request":{"method":"PUT","url":"Coverage/64888e88-70ac-47b2-b86a-1b192eca82a9"}},{"fullUrl":"https://madie.cms.gov/Procedure/36e47b6e-e8ac-4d7e-8f21-250dce3cb02c","resource":{"resourceType":"Procedure","id":"36e47b6e-e8ac-4d7e-8f21-250dce3cb02c","meta":{"profile":["http://hl7.org/fhir/us/qicore/StructureDefinition/qicore-procedure"]},"extension":[{"url":"http://hl7.org/fhir/us/qicore/StructureDefinition/qicore-recorded","valueDateTime":"2013-11-03T09:35:00-04:00"}],"status":"completed","code":{"coding":[{"system":"http://snomed.info/sct","code":"18946005"}]},"subject":{"reference":"Patient/96c7b8e3-2c28-4b46-a579-f56d644cf762"},"performedPeriod":{"start":"2026-11-02T09:00:00+00:00","end":"2026-11-02T09:15:00+00:00"}},"request":{"method":"PUT","url":"Procedure/36e47b6e-e8ac-4d7e-8f21-250dce3cb02c"}},{"fullUrl":"https://madie.cms.gov/Organization/d80f7bc6-39b0-44fc-a25e-00f4b6f54fec","resource":{"resourceType":"Organization","id":"607fdef9-3983-4cef-ab1a-95434d29b463","meta":{"profile":["http://hl7.org/fhir/us/qicore/StructureDefinition/qicore-organization"]},"identifier":[{"use":"temp","system":"urn:oid:2.16.840.1.113883.4.4","value":"21-3259825"}],"active":true,"type":[{"coding":[{"system":"http://terminology.hl7.org/CodeSystem/organization-type","code":"pay","display":"Payer"}]}],"name":"Blue Cross Blue Shield of Texas","telecom":[{"system":"phone","value":"(+1) 972-766-6900"}],"address":[{"use":"billing","type":"postal","line":["P.O. Box 660044"],"city":"Dallas","state":"TX","postalCode":"75266-0044","country":"USA"}]},"request":{"method":"PUT","url":"Organization/607fdef9-3983-4cef-ab1a-95434d29b463"}},{"fullUrl":"https://madie.cms.gov/Practitioner/c08ffb58-4ede-41bb-a1a8-1531f302e888","resource":{"resourceType":"Practitioner","id":"c08ffb58-4ede-41bb-a1a8-1531f302e888","identifier":[{"system":"http://hl7.org/fhir/sid/us-npi","value":"123456"}],"name":[{"family":"Evil","prefix":["Dr"]}]},"request":{"method":"PUT","url":"Practitioner/c08ffb58-4ede-41bb-a1a8-1531f302e888"}},{"fullUrl":"https://madie.cms.gov/MeasureReport/e1f93e41-f811-463e-9666-92433a16d5c8","resource":{"resourceType":"MeasureReport","id":"e1f93e41-f811-463e-9666-92433a16d5c8","meta":{"profile":["http://hl7.org/fhir/us/cqfmeasures/StructureDefinition/test-case-cqfm"]},"contained":[{"resourceType":"Parameters","id":"25446c4f-fb5e-4cf9-8f59-64a4fdd4584b-parameters","parameter":[{"name":"subject","valueString":"96c7b8e3-2c28-4b46-a579-f56d644cf762"}]}],"extension":[{"url":"http://hl7.org/fhir/us/cqfmeasures/StructureDefinition/cqfm-inputParameters","valueReference":{"reference":"#25446c4f-fb5e-4cf9-8f59-64a4fdd4584b-parameters"}},{"url":"http://hl7.org/fhir/us/cqfmeasures/StructureDefinition/cqfm-testCaseDescription","valueMarkdown":"comfort measures performed 1 day after end of  anesthesia 2 days after Adm\n"}],"modifierExtension":[{"url":"http://hl7.org/fhir/us/cqfmeasures/StructureDefinition/cqfm-isTestCase","valueBoolean":true}],"status":"complete","type":"individual","measure":"https://madie.cms.gov/Measure/CMS108VTEProphylaxisFHIR","period":{"start":"2026-01-01","end":"2026-12-31"},"group":[{"population":[{"code":{"coding":[{"system":"http://terminology.hl7.org/CodeSystem/measure-population","code":"initial-population","display":"Initial Population"}]},"count":1},{"code":{"coding":[{"system":"http://terminology.hl7.org/CodeSystem/measure-population","code":"denominator","display":"Denominator"}]},"count":1},{"code":{"coding":[{"system":"http://terminology.hl7.org/CodeSystem/measure-population","code":"denominator-exclusion","display":"Denominator Exclusion"}]},"count":1},{"code":{"coding":[{"system":"http://terminology.hl7.org/CodeSystem/measure-population","code":"numerator","display":"Numerator"}]},"count":0}]}]},"request":{"method":"PUT","url":"MeasureReport/e1f93e41-f811-463e-9666-92433a16d5c8"}}]}