{"resourceType":"Bundle","id":"tests-d9317b8a-ccf3-4fdb-bcee-da027b403708-bundle","type":"transaction","entry":[{"fullUrl":"https://madie.cms.gov/Patient/d9317b8a-ccf3-4fdb-bcee-da027b403708","resource":{"resourceType":"Patient","id":"d9317b8a-ccf3-4fdb-bcee-da027b403708","meta":{"profile":["http://hl7.org/fhir/us/qicore/StructureDefinition/qicore-patient"]},"text":{"status":"generated","div":"<div xmlns=\"http://www.w3.org/1999/xhtml\"><div class=\"hapiHeaderText\">CMO2DayAfterAnesthesia <b>DENEXFAIL </b></div><table class=\"hapiPropertyTable\"><tbody><tr><td>Identifier</td><td>eae8d1af3e172cab969568063cd70f67</td></tr><tr><td>Date of birth</td><td><span>02 January 1974</span></td></tr></tbody></table></div>"},"extension":[{"url":"http://hl7.org/fhir/us/core/StructureDefinition/us-core-race","extension":[{"url":"ombCategory","valueCoding":{"system":"urn:oid:2.16.840.1.113883.6.238","code":"1002-5","display":"American Indian or Alaska Native","userSelected":true}},{"url":"text","valueString":"American Indian or Alaska Native"}]},{"url":"http://hl7.org/fhir/us/core/StructureDefinition/us-core-ethnicity","extension":[{"url":"ombCategory","valueCoding":{"system":"urn:oid:2.16.840.1.113883.6.238","code":"2135-2","display":"Hispanic or Latino","userSelected":true}},{"url":"text","valueString":"Hispanic or Latino"}]}],"identifier":[{"type":{"coding":[{"system":"http://terminology.hl7.org/CodeSystem/v2-0203","code":"MR"}]},"system":"https://bonnie-fhir.healthit.gov/","value":"612e6ab402c62a011f2eb007"}],"active":true,"name":[{"use":"usual","family":"DENEXFail","given":["CMO2DayAfterAnesthesia"]}],"gender":"male","birthDate":"1975-01-02"},"request":{"method":"PUT","url":"Patient/d9317b8a-ccf3-4fdb-bcee-da027b403708"}},{"fullUrl":"https://madie.cms.gov/Encounter/bc98ea39-8ff3-43b9-8c3a-4b71b69c550c","resource":{"resourceType":"Encounter","id":"bc98ea39-8ff3-43b9-8c3a-4b71b69c550c","meta":{"profile":["http://hl7.org/fhir/us/qicore/StructureDefinition/qicore-encounter"]},"status":"finished","class":{"system":"http://terminology.hl7.org/CodeSystem/v3-ActCode","code":"IMP","display":"inpatient encounter"},"type":[{"coding":[{"system":"http://snomed.info/sct","code":"8715000"}]}],"subject":{"reference":"Patient/d9317b8a-ccf3-4fdb-bcee-da027b403708"},"period":{"start":"2026-11-01T08:00:00+00:00","end":"2026-11-26T08:15:00+00:00"},"length":{"value":25.0,"unit":"days"}},"request":{"method":"PUT","url":"Encounter/bc98ea39-8ff3-43b9-8c3a-4b71b69c550c"}},{"fullUrl":"https://madie.cms.gov/ServiceRequest/6e97662e-89f0-46ee-874b-2be401d10008","resource":{"resourceType":"ServiceRequest","id":"6e97662e-89f0-46ee-874b-2be401d10008","meta":{"profile":["http://hl7.org/fhir/us/qicore/StructureDefinition/qicore-servicerequest"]},"status":"active","intent":"order","code":{"coding":[{"system":"http://snomed.info/sct","code":"133918004"}]},"subject":{"reference":"Patient/d9317b8a-ccf3-4fdb-bcee-da027b403708"},"authoredOn":"2026-11-04T11:00:00.000+00:00"},"request":{"method":"PUT","url":"ServiceRequest/6e97662e-89f0-46ee-874b-2be401d10008"}},{"fullUrl":"https://madie.cms.gov/Coverage/319d17ca-3284-4c6d-b90b-453776187bc9","resource":{"resourceType":"Coverage","id":"319d17ca-3284-4c6d-b90b-453776187bc9","status":"active","beneficiary":{"reference":"Patient/d9317b8a-ccf3-4fdb-bcee-da027b403708"},"period":{"start":"1975-01-02T08:00:00+00:00"},"payor":[{"reference":"Organization/5ad6ea38-07e9-4482-9e1b-c09eee595be9"}]},"request":{"method":"PUT","url":"Coverage/319d17ca-3284-4c6d-b90b-453776187bc9"}},{"fullUrl":"https://madie.cms.gov/Procedure/4d1a3c23-55d9-4050-8b33-0c965f7e1037","resource":{"resourceType":"Procedure","id":"4d1a3c23-55d9-4050-8b33-0c965f7e1037","meta":{"profile":["http://hl7.org/fhir/us/qicore/StructureDefinition/qicore-procedure"]},"extension":[{"url":"http://hl7.org/fhir/us/qicore/StructureDefinition/qicore-recorded","valueDateTime":"2013-12-04T09:35:00-04:00"}],"status":"completed","code":{"coding":[{"system":"http://www.icd10data.com/icd10pcs","code":"3E030FZ"},{"system":"http://snomed.info/sct","code":"18946005"}]},"subject":{"reference":"Patient/d9317b8a-ccf3-4fdb-bcee-da027b403708"},"performedPeriod":{"start":"2026-11-02T09:00:00+00:00","end":"2026-11-02T09:15:00+00:00"}},"request":{"method":"PUT","url":"Procedure/4d1a3c23-55d9-4050-8b33-0c965f7e1037"}},{"fullUrl":"https://madie.cms.gov/Organization/e0238cee-0cbf-4679-881d-2396b505c749","resource":{"resourceType":"Organization","id":"5ad6ea38-07e9-4482-9e1b-c09eee595be9","meta":{"profile":["http://hl7.org/fhir/us/qicore/StructureDefinition/qicore-organization"]},"identifier":[{"use":"temp","system":"urn:oid:2.16.840.1.113883.4.4","value":"21-3259825"}],"active":true,"type":[{"coding":[{"system":"http://terminology.hl7.org/CodeSystem/organization-type","code":"pay","display":"Payer"}]}],"name":"Blue Cross Blue Shield of Texas","telecom":[{"system":"phone","value":"(+1) 972-766-6900"}],"address":[{"use":"billing","type":"postal","line":["P.O. Box 660044"],"city":"Dallas","state":"TX","postalCode":"75266-0044","country":"USA"}]},"request":{"method":"PUT","url":"Organization/5ad6ea38-07e9-4482-9e1b-c09eee595be9"}},{"fullUrl":"https://madie.cms.gov/Practitioner/abda088e-3289-463c-a4dc-17e790303eda","resource":{"resourceType":"Practitioner","id":"abda088e-3289-463c-a4dc-17e790303eda","identifier":[{"system":"http://hl7.org/fhir/sid/us-npi","value":"123456"}],"name":[{"family":"Evil","prefix":["Dr"]}]},"request":{"method":"PUT","url":"Practitioner/abda088e-3289-463c-a4dc-17e790303eda"}},{"fullUrl":"https://madie.cms.gov/MeasureReport/4e8ffdb2-4969-4263-80fe-eadf24bae112","resource":{"resourceType":"MeasureReport","id":"4e8ffdb2-4969-4263-80fe-eadf24bae112","meta":{"profile":["http://hl7.org/fhir/us/cqfmeasures/StructureDefinition/test-case-cqfm"]},"contained":[{"resourceType":"Parameters","id":"f1224dd0-4327-4f75-9699-61695caef6e7-parameters","parameter":[{"name":"subject","valueString":"d9317b8a-ccf3-4fdb-bcee-da027b403708"}]}],"extension":[{"url":"http://hl7.org/fhir/us/cqfmeasures/StructureDefinition/cqfm-inputParameters","valueReference":{"reference":"#f1224dd0-4327-4f75-9699-61695caef6e7-parameters"}},{"url":"http://hl7.org/fhir/us/cqfmeasures/StructureDefinition/cqfm-testCaseDescription","valueMarkdown":"comfort measures order 2 day after end of  anesthesia\n"}],"modifierExtension":[{"url":"http://hl7.org/fhir/us/cqfmeasures/StructureDefinition/cqfm-isTestCase","valueBoolean":true}],"status":"complete","type":"individual","measure":"https://madie.cms.gov/Measure/CMS108VTEProphylaxisFHIR","period":{"start":"2026-01-01","end":"2026-12-31"},"group":[{"population":[{"code":{"coding":[{"system":"http://terminology.hl7.org/CodeSystem/measure-population","code":"initial-population","display":"Initial Population"}]},"count":1},{"code":{"coding":[{"system":"http://terminology.hl7.org/CodeSystem/measure-population","code":"denominator","display":"Denominator"}]},"count":1},{"code":{"coding":[{"system":"http://terminology.hl7.org/CodeSystem/measure-population","code":"denominator-exclusion","display":"Denominator Exclusion"}]},"count":0},{"code":{"coding":[{"system":"http://terminology.hl7.org/CodeSystem/measure-population","code":"numerator","display":"Numerator"}]},"count":0}]}]},"request":{"method":"PUT","url":"MeasureReport/4e8ffdb2-4969-4263-80fe-eadf24bae112"}}]}