{"resourceType":"Bundle","id":"tests-d2d1c27e-28f2-4536-a398-27d60f83bf54-bundle","type":"transaction","entry":[{"fullUrl":"https://madie.cms.gov/Patient/d2d1c27e-28f2-4536-a398-27d60f83bf54","resource":{"resourceType":"Patient","id":"d2d1c27e-28f2-4536-a398-27d60f83bf54","meta":{"profile":["http://hl7.org/fhir/us/qicore/StructureDefinition/qicore-patient"]},"text":{"status":"generated","div":"<div xmlns=\"http://www.w3.org/1999/xhtml\"><div class=\"hapiHeaderText\">ICULT1Day <b>DENEXFAIL </b></div><table class=\"hapiPropertyTable\"><tbody><tr><td>Identifier</td><td>921f510d1aeb2bac2646f5217cfdf1a7</td></tr><tr><td>Date of birth</td><td><span>02 January 1974</span></td></tr></tbody></table></div>"},"extension":[{"url":"http://hl7.org/fhir/us/core/StructureDefinition/us-core-race","extension":[{"url":"ombCategory","valueCoding":{"system":"urn:oid:2.16.840.1.113883.6.238","code":"1002-5","display":"American Indian or Alaska Native","userSelected":true}},{"url":"text","valueString":"American Indian or Alaska Native"}]},{"url":"http://hl7.org/fhir/us/core/StructureDefinition/us-core-ethnicity","extension":[{"url":"ombCategory","valueCoding":{"system":"urn:oid:2.16.840.1.113883.6.238","code":"2135-2","display":"Hispanic or Latino","userSelected":true}},{"url":"text","valueString":"Hispanic or Latino"}]}],"identifier":[{"type":{"coding":[{"system":"http://terminology.hl7.org/CodeSystem/v2-0203","code":"MR"}]},"system":"https://bonnie-fhir.healthit.gov/","value":"612e6b3d02c62a011f2ed022"}],"active":true,"name":[{"use":"usual","family":"DENEXFail","given":["ICULT1Day"]}],"gender":"male","birthDate":"1975-01-02"},"request":{"method":"PUT","url":"Patient/d2d1c27e-28f2-4536-a398-27d60f83bf54"}},{"fullUrl":"https://madie.cms.gov/Encounter/ff98c12f-1b31-4cd5-998e-6be69f69f6bd","resource":{"resourceType":"Encounter","id":"ff98c12f-1b31-4cd5-998e-6be69f69f6bd","meta":{"profile":["http://hl7.org/fhir/us/qicore/StructureDefinition/qicore-encounter"]},"status":"finished","class":{"system":"http://terminology.hl7.org/CodeSystem/v3-ActCode","code":"IMP","display":"inpatient encounter"},"type":[{"coding":[{"system":"http://snomed.info/sct","code":"8715000"}]}],"subject":{"reference":"Patient/d2d1c27e-28f2-4536-a398-27d60f83bf54"},"period":{"start":"2026-11-01T08:00:00+00:00","end":"2026-11-26T08:15:00+00:00"},"length":{"value":25.0,"unit":"days"},"location":[{"location":{"reference":"Location/29f29951-bcd6-4b35-b733-3b6b9fb30b0b"},"period":{"start":"2026-11-01T11:00:00.000+00:00","end":"2026-11-01T16:50:00.000+00:00"}}]},"request":{"method":"PUT","url":"Encounter/ff98c12f-1b31-4cd5-998e-6be69f69f6bd"}},{"fullUrl":"https://madie.cms.gov/Coverage/31a74778-55b0-4ce3-8f93-64c942c80315","resource":{"resourceType":"Coverage","id":"31a74778-55b0-4ce3-8f93-64c942c80315","status":"active","beneficiary":{"reference":"Patient/d2d1c27e-28f2-4536-a398-27d60f83bf54"},"period":{"start":"1975-01-02T08:00:00+00:00"},"payor":[{"reference":"Organization/db141f66-a1cc-407b-9e95-adac27adee14"}]},"request":{"method":"PUT","url":"Coverage/31a74778-55b0-4ce3-8f93-64c942c80315"}},{"fullUrl":"https://madie.cms.gov/Location/29f29951-bcd6-4b35-b733-3b6b9fb30b0b","resource":{"resourceType":"Location","id":"29f29951-bcd6-4b35-b733-3b6b9fb30b0b","meta":{"profile":["http://hl7.org/fhir/us/qicore/StructureDefinition/qicore-location"]},"identifier":[{"use":"usual","system":"http://exampleoflocation.com","value":"B1-S.F2"}],"name":"Medical Surgical East, first floor","type":[{"coding":[{"system":"https://www.cdc.gov/nhsn/cdaportal/terminology/codesystem/hsloc.html","code":"1025-6","display":"Trauma Critical Care","userSelected":true}]}]},"request":{"method":"PUT","url":"Location/29f29951-bcd6-4b35-b733-3b6b9fb30b0b"}},{"fullUrl":"https://madie.cms.gov/Organization/dad94c9d-c798-4e65-992e-c7beea3a5907","resource":{"resourceType":"Organization","id":"db141f66-a1cc-407b-9e95-adac27adee14","meta":{"profile":["http://hl7.org/fhir/us/qicore/StructureDefinition/qicore-organization"]},"identifier":[{"use":"temp","system":"urn:oid:2.16.840.1.113883.4.4","value":"21-3259825"}],"active":true,"type":[{"coding":[{"system":"http://terminology.hl7.org/CodeSystem/organization-type","code":"pay","display":"Payer"}]}],"name":"Blue Cross Blue Shield of Texas","telecom":[{"system":"phone","value":"(+1) 972-766-6900"}],"address":[{"use":"billing","type":"postal","line":["P.O. Box 660044"],"city":"Dallas","state":"TX","postalCode":"75266-0044","country":"USA"}]},"request":{"method":"PUT","url":"Organization/db141f66-a1cc-407b-9e95-adac27adee14"}},{"fullUrl":"https://madie.cms.gov/Practitioner/f2c6b303-08a6-4747-8cff-228c4efb2065","resource":{"resourceType":"Practitioner","id":"f2c6b303-08a6-4747-8cff-228c4efb2065","identifier":[{"system":"http://hl7.org/fhir/sid/us-npi","value":"123456"}],"name":[{"family":"Evil","prefix":["Dr"]}]},"request":{"method":"PUT","url":"Practitioner/f2c6b303-08a6-4747-8cff-228c4efb2065"}},{"fullUrl":"https://madie.cms.gov/MeasureReport/a9de9f09-990b-421c-bba3-c5974753c04b","resource":{"resourceType":"MeasureReport","id":"a9de9f09-990b-421c-bba3-c5974753c04b","meta":{"profile":["http://hl7.org/fhir/us/cqfmeasures/StructureDefinition/test-case-cqfm"]},"contained":[{"resourceType":"Parameters","id":"8708027d-1f18-4d75-b32b-32580b381eaa-parameters","parameter":[{"name":"subject","valueString":"d2d1c27e-28f2-4536-a398-27d60f83bf54"}]}],"extension":[{"url":"http://hl7.org/fhir/us/cqfmeasures/StructureDefinition/cqfm-inputParameters","valueReference":{"reference":"#8708027d-1f18-4d75-b32b-32580b381eaa-parameters"}},{"url":"http://hl7.org/fhir/us/cqfmeasures/StructureDefinition/cqfm-testCaseDescription","valueMarkdown":"ICU LOS < 1 day\n"}],"modifierExtension":[{"url":"http://hl7.org/fhir/us/cqfmeasures/StructureDefinition/cqfm-isTestCase","valueBoolean":true}],"status":"complete","type":"individual","measure":"https://madie.cms.gov/Measure/CMS108VTEProphylaxisFHIR","period":{"start":"2026-01-01","end":"2026-12-31"},"group":[{"population":[{"code":{"coding":[{"system":"http://terminology.hl7.org/CodeSystem/measure-population","code":"initial-population","display":"Initial Population"}]},"count":1},{"code":{"coding":[{"system":"http://terminology.hl7.org/CodeSystem/measure-population","code":"denominator","display":"Denominator"}]},"count":1},{"code":{"coding":[{"system":"http://terminology.hl7.org/CodeSystem/measure-population","code":"denominator-exclusion","display":"Denominator Exclusion"}]},"count":0},{"code":{"coding":[{"system":"http://terminology.hl7.org/CodeSystem/measure-population","code":"numerator","display":"Numerator"}]},"count":0}]}]},"request":{"method":"PUT","url":"MeasureReport/a9de9f09-990b-421c-bba3-c5974753c04b"}}]}