{"resourceType":"Bundle","id":"tests-3d6571e7-25b8-4ec7-a4a7-0e41fafeadb5-bundle","type":"transaction","entry":[{"fullUrl":"https://madie.cms.gov/Patient/3d6571e7-25b8-4ec7-a4a7-0e41fafeadb5","resource":{"resourceType":"Patient","id":"3d6571e7-25b8-4ec7-a4a7-0e41fafeadb5","meta":{"profile":["http://hl7.org/fhir/us/qicore/StructureDefinition/qicore-patient"]},"text":{"status":"generated","div":"<div xmlns=\"http://www.w3.org/1999/xhtml\"><div class=\"hapiHeaderText\">MARixDrgOBSEDEQ1hr <b>NUMERPASS </b></div><table class=\"hapiPropertyTable\"><tbody><tr><td>Identifier</td><td>9ac41bff10ef3353d0742df1f73dc984</td></tr><tr><td>Date of birth</td><td><span>02 January 1974</span></td></tr></tbody></table></div>"},"extension":[{"url":"http://hl7.org/fhir/us/core/StructureDefinition/us-core-race","extension":[{"url":"ombCategory","valueCoding":{"system":"urn:oid:2.16.840.1.113883.6.238","code":"1002-5","display":"American Indian or Alaska Native","userSelected":true}},{"url":"text","valueString":"American Indian or Alaska Native"}]},{"url":"http://hl7.org/fhir/us/core/StructureDefinition/us-core-ethnicity","extension":[{"url":"ombCategory","valueCoding":{"system":"urn:oid:2.16.840.1.113883.6.238","code":"2135-2","display":"Hispanic or Latino","userSelected":true}},{"url":"text","valueString":"Hispanic or Latino"}]}],"identifier":[{"type":{"coding":[{"system":"http://terminology.hl7.org/CodeSystem/v2-0203","code":"MR"}]},"system":"https://bonnie-fhir.healthit.gov/","value":"612e6b1002c62a011f2ec46d"}],"active":true,"name":[{"use":"usual","family":"NUMERPass","given":["MARixDrgOBSEDEQ1hr"]}],"gender":"male","birthDate":"1975-01-02"},"request":{"method":"PUT","url":"Patient/3d6571e7-25b8-4ec7-a4a7-0e41fafeadb5"}},{"fullUrl":"https://madie.cms.gov/Encounter/6c3f4537-db72-437e-a3f0-9250b672711f","resource":{"resourceType":"Encounter","id":"6c3f4537-db72-437e-a3f0-9250b672711f","meta":{"profile":["http://hl7.org/fhir/us/qicore/StructureDefinition/qicore-encounter"]},"status":"finished","class":{"system":"http://terminology.hl7.org/CodeSystem/v3-ActCode","code":"IMP","display":"inpatient encounter"},"type":[{"coding":[{"system":"http://snomed.info/sct","code":"8715000"}]}],"subject":{"reference":"Patient/3d6571e7-25b8-4ec7-a4a7-0e41fafeadb5"},"period":{"start":"2026-11-01T08:00:00+00:00","end":"2026-11-26T08:15:00+00:00"},"length":{"value":25.0,"unit":"days"}},"request":{"method":"PUT","url":"Encounter/6c3f4537-db72-437e-a3f0-9250b672711f"}},{"fullUrl":"https://madie.cms.gov/Encounter/8ce88baf-cf6f-41cb-a7f3-5b8df68f3941","resource":{"resourceType":"Encounter","id":"8ce88baf-cf6f-41cb-a7f3-5b8df68f3941","meta":{"profile":["http://hl7.org/fhir/us/qicore/StructureDefinition/qicore-encounter"]},"status":"finished","class":{"system":"http://terminology.hl7.org/CodeSystem/v3-ActCode","code":"EMER","display":"emergency"},"type":[{"coding":[{"system":"http://snomed.info/sct","code":"4525004"}]}],"subject":{"reference":"Patient/3d6571e7-25b8-4ec7-a4a7-0e41fafeadb5"},"period":{"start":"2026-10-31T10:00:00+00:00","end":"2026-10-31T19:00:00+00:00"}},"request":{"method":"PUT","url":"Encounter/8ce88baf-cf6f-41cb-a7f3-5b8df68f3941"}},{"fullUrl":"https://madie.cms.gov/Encounter/907d9c56-a3be-4285-b460-263e0c4d9ba4","resource":{"resourceType":"Encounter","id":"907d9c56-a3be-4285-b460-263e0c4d9ba4","meta":{"profile":["http://hl7.org/fhir/us/qicore/StructureDefinition/qicore-encounter"]},"status":"finished","class":{"system":"http://terminology.hl7.org/CodeSystem/v3-ActCode","code":"OBSENC","display":"observation encounter"},"type":[{"coding":[{"system":"http://snomed.info/sct","code":"448951000124107"}]}],"subject":{"reference":"Patient/3d6571e7-25b8-4ec7-a4a7-0e41fafeadb5"},"period":{"start":"2026-10-31T20:00:00+00:00","end":"2026-11-01T07:00:00+00:00"}},"request":{"method":"PUT","url":"Encounter/907d9c56-a3be-4285-b460-263e0c4d9ba4"}},{"fullUrl":"https://madie.cms.gov/Coverage/12b83bb5-75fe-4893-ac11-95c540f55c7d","resource":{"resourceType":"Coverage","id":"12b83bb5-75fe-4893-ac11-95c540f55c7d","status":"active","beneficiary":{"reference":"Patient/3d6571e7-25b8-4ec7-a4a7-0e41fafeadb5"},"period":{"start":"1975-01-02T08:00:00+00:00"},"payor":[{"reference":"Organization/5ad6ea38-07e9-4482-9e1b-c09eee595be9"}]},"request":{"method":"PUT","url":"Coverage/12b83bb5-75fe-4893-ac11-95c540f55c7d"}},{"fullUrl":"https://madie.cms.gov/MedicationAdministration/802d0743-dad5-4730-9883-6a037a6c7a87","resource":{"resourceType":"MedicationAdministration","id":"802d0743-dad5-4730-9883-6a037a6c7a87","meta":{"profile":["http://hl7.org/fhir/us/qicore/StructureDefinition/qicore-medicationadministration"]},"status":"completed","medicationCodeableConcept":{"coding":[{"system":"http://www.nlm.nih.gov/research/umls/rxnorm","code":"1114198"}]},"subject":{"reference":"Patient/3d6571e7-25b8-4ec7-a4a7-0e41fafeadb5"},"effectivePeriod":{"start":"2026-10-31T09:00:00+00:00","end":"2026-10-31T09:15:00+00:00"}},"request":{"method":"PUT","url":"MedicationAdministration/802d0743-dad5-4730-9883-6a037a6c7a87"}},{"fullUrl":"https://madie.cms.gov/Organization/e80f0101-9d4c-4581-aab7-23a824e6afff","resource":{"resourceType":"Organization","id":"5ad6ea38-07e9-4482-9e1b-c09eee595be9","meta":{"profile":["http://hl7.org/fhir/us/qicore/StructureDefinition/qicore-organization"]},"identifier":[{"use":"temp","system":"urn:oid:2.16.840.1.113883.4.4","value":"21-3259825"}],"active":true,"type":[{"coding":[{"system":"http://terminology.hl7.org/CodeSystem/organization-type","code":"pay","display":"Payer"}]}],"name":"Blue Cross Blue Shield of Texas","telecom":[{"system":"phone","value":"(+1) 972-766-6900"}],"address":[{"use":"billing","type":"postal","line":["P.O. Box 660044"],"city":"Dallas","state":"TX","postalCode":"75266-0044","country":"USA"}]},"request":{"method":"PUT","url":"Organization/5ad6ea38-07e9-4482-9e1b-c09eee595be9"}},{"fullUrl":"https://madie.cms.gov/Practitioner/ca3b0f6f-bbb1-45f8-b12d-e7fa67dbddd8","resource":{"resourceType":"Practitioner","id":"ca3b0f6f-bbb1-45f8-b12d-e7fa67dbddd8","identifier":[{"system":"http://hl7.org/fhir/sid/us-npi","value":"123456"}],"name":[{"family":"Evil","prefix":["Dr"]}]},"request":{"method":"PUT","url":"Practitioner/ca3b0f6f-bbb1-45f8-b12d-e7fa67dbddd8"}},{"fullUrl":"https://madie.cms.gov/MeasureReport/fc020489-30dc-442f-96d2-d81b4a155f94","resource":{"resourceType":"MeasureReport","id":"fc020489-30dc-442f-96d2-d81b4a155f94","meta":{"profile":["http://hl7.org/fhir/us/cqfmeasures/StructureDefinition/test-case-cqfm"]},"contained":[{"resourceType":"Parameters","id":"aa60cdbb-9d86-44ef-8db9-f3f12940651e-parameters","parameter":[{"name":"subject","valueString":"3d6571e7-25b8-4ec7-a4a7-0e41fafeadb5"}]}],"extension":[{"url":"http://hl7.org/fhir/us/cqfmeasures/StructureDefinition/cqfm-inputParameters","valueReference":{"reference":"#aa60cdbb-9d86-44ef-8db9-f3f12940651e-parameters"}},{"url":"http://hl7.org/fhir/us/cqfmeasures/StructureDefinition/cqfm-testCaseDescription","valueMarkdown":"Rivaroxaban  for VTE Prophylaxis Med Administered during OBS which ends 1 hr before adm and ED = 1 hr ends OBS\n"}],"modifierExtension":[{"url":"http://hl7.org/fhir/us/cqfmeasures/StructureDefinition/cqfm-isTestCase","valueBoolean":true}],"status":"complete","type":"individual","measure":"https://madie.cms.gov/Measure/CMS108VTEProphylaxisFHIR","period":{"start":"2026-01-01","end":"2026-12-31"},"group":[{"population":[{"code":{"coding":[{"system":"http://terminology.hl7.org/CodeSystem/measure-population","code":"initial-population","display":"Initial Population"}]},"count":1},{"code":{"coding":[{"system":"http://terminology.hl7.org/CodeSystem/measure-population","code":"denominator","display":"Denominator"}]},"count":1},{"code":{"coding":[{"system":"http://terminology.hl7.org/CodeSystem/measure-population","code":"denominator-exclusion","display":"Denominator Exclusion"}]},"count":0},{"code":{"coding":[{"system":"http://terminology.hl7.org/CodeSystem/measure-population","code":"numerator","display":"Numerator"}]},"count":1}]}]},"request":{"method":"PUT","url":"MeasureReport/fc020489-30dc-442f-96d2-d81b4a155f94"}}]}