{"resourceType":"Bundle","id":"tests-898693f7-3efa-4240-bc7f-cfe7019a594b-bundle","type":"transaction","entry":[{"fullUrl":"https://madie.cms.gov/Patient/898693f7-3efa-4240-bc7f-cfe7019a594b","resource":{"resourceType":"Patient","id":"898693f7-3efa-4240-bc7f-cfe7019a594b","meta":{"profile":["http://hl7.org/fhir/us/qicore/StructureDefinition/qicore-patient"]},"text":{"status":"generated","div":"<div xmlns=\"http://www.w3.org/1999/xhtml\"><div class=\"hapiHeaderText\">ICU3DaysAfterAdmit <b>DENEXFAIL </b></div><table class=\"hapiPropertyTable\"><tbody><tr><td>Identifier</td><td>e27e5563554c3f0106e7e2711362df0d</td></tr><tr><td>Date of birth</td><td><span>02 January 1974</span></td></tr></tbody></table></div>"},"extension":[{"url":"http://hl7.org/fhir/us/core/StructureDefinition/us-core-race","extension":[{"url":"ombCategory","valueCoding":{"system":"urn:oid:2.16.840.1.113883.6.238","code":"1002-5","display":"American Indian or Alaska Native","userSelected":true}},{"url":"text","valueString":"American Indian or Alaska Native"}]},{"url":"http://hl7.org/fhir/us/core/StructureDefinition/us-core-ethnicity","extension":[{"url":"ombCategory","valueCoding":{"system":"urn:oid:2.16.840.1.113883.6.238","code":"2135-2","display":"Hispanic or Latino","userSelected":true}},{"url":"text","valueString":"Hispanic or Latino"}]}],"identifier":[{"type":{"coding":[{"system":"http://terminology.hl7.org/CodeSystem/v2-0203","code":"MR"}]},"system":"https://bonnie-fhir.healthit.gov/","value":"612e6b3f02c62a011f2ed070"}],"active":true,"name":[{"use":"usual","family":"DENEXFail","given":["ICU3DaysAfterAdmit"]}],"gender":"male","birthDate":"1975-01-02"},"request":{"method":"PUT","url":"Patient/898693f7-3efa-4240-bc7f-cfe7019a594b"}},{"fullUrl":"https://madie.cms.gov/Encounter/fee22773-038a-4a07-b0d5-604a8f9f25c7","resource":{"resourceType":"Encounter","id":"fee22773-038a-4a07-b0d5-604a8f9f25c7","meta":{"profile":["http://hl7.org/fhir/us/qicore/StructureDefinition/qicore-encounter"]},"status":"finished","class":{"system":"http://terminology.hl7.org/CodeSystem/v3-ActCode","code":"IMP","display":"inpatient encounter"},"type":[{"coding":[{"system":"http://snomed.info/sct","code":"8715000"}]}],"subject":{"reference":"Patient/898693f7-3efa-4240-bc7f-cfe7019a594b"},"period":{"start":"2026-11-01T08:00:00+00:00","end":"2026-11-26T08:15:00+00:00"},"length":{"value":25.0,"unit":"days"},"location":[{"location":{"reference":"Location/bd331e9a-0cae-42e9-9263-8e4a9763f33e"},"period":{"start":"2026-11-03T11:00:00.000+00:00","end":"2026-11-05T00:15:00.000+00:00"}}]},"request":{"method":"PUT","url":"Encounter/fee22773-038a-4a07-b0d5-604a8f9f25c7"}},{"fullUrl":"https://madie.cms.gov/Coverage/9581b318-e964-4d56-97ce-c43040c77b24","resource":{"resourceType":"Coverage","id":"9581b318-e964-4d56-97ce-c43040c77b24","status":"active","beneficiary":{"reference":"Patient/898693f7-3efa-4240-bc7f-cfe7019a594b"},"period":{"start":"1975-01-02T08:00:00+00:00"},"payor":[{"reference":"Organization/db141f66-a1cc-407b-9e95-adac27adee14"}]},"request":{"method":"PUT","url":"Coverage/9581b318-e964-4d56-97ce-c43040c77b24"}},{"fullUrl":"https://madie.cms.gov/Location/bd331e9a-0cae-42e9-9263-8e4a9763f33e","resource":{"resourceType":"Location","id":"bd331e9a-0cae-42e9-9263-8e4a9763f33e","meta":{"profile":["http://hl7.org/fhir/us/qicore/StructureDefinition/qicore-location"]},"identifier":[{"use":"usual","system":"http://exampleoflocation.com","value":"B1-S.F2"}],"name":"Medical Surgical East, first floor","type":[{"coding":[{"system":"http://cts.nlm.nih.gov/fhir/cs/hsloc","version":"2020","code":"1025-6","display":"Trauma Critical Care","userSelected":true}]}]},"request":{"method":"PUT","url":"Location/bd331e9a-0cae-42e9-9263-8e4a9763f33e"}},{"fullUrl":"https://madie.cms.gov/Organization/ca704f4e-1977-4926-804d-5d3670a93826","resource":{"resourceType":"Organization","id":"db141f66-a1cc-407b-9e95-adac27adee14","meta":{"profile":["http://hl7.org/fhir/us/qicore/StructureDefinition/qicore-organization"]},"identifier":[{"use":"temp","system":"urn:oid:2.16.840.1.113883.4.4","value":"21-3259825"}],"active":true,"type":[{"coding":[{"system":"http://terminology.hl7.org/CodeSystem/organization-type","code":"pay","display":"Payer"}]}],"name":"Blue Cross Blue Shield of Texas","telecom":[{"system":"phone","value":"(+1) 972-766-6900"}],"address":[{"use":"billing","type":"postal","line":["P.O. Box 660044"],"city":"Dallas","state":"TX","postalCode":"75266-0044","country":"USA"}]},"request":{"method":"PUT","url":"Organization/db141f66-a1cc-407b-9e95-adac27adee14"}},{"fullUrl":"https://madie.cms.gov/Practitioner/3c6cecbe-13f7-4b7a-9579-08649b36ccc8","resource":{"resourceType":"Practitioner","id":"3c6cecbe-13f7-4b7a-9579-08649b36ccc8","identifier":[{"system":"http://hl7.org/fhir/sid/us-npi","value":"123456"}],"name":[{"family":"Evil","prefix":["Dr"]}]},"request":{"method":"PUT","url":"Practitioner/3c6cecbe-13f7-4b7a-9579-08649b36ccc8"}},{"fullUrl":"https://madie.cms.gov/MeasureReport/9ea2cbfa-3565-4e90-9c1c-38cda38af8d2","resource":{"resourceType":"MeasureReport","id":"9ea2cbfa-3565-4e90-9c1c-38cda38af8d2","meta":{"profile":["http://hl7.org/fhir/us/cqfmeasures/StructureDefinition/test-case-cqfm"]},"contained":[{"resourceType":"Parameters","id":"03c0c4d7-cacf-416e-980a-4215b92584b7-parameters","parameter":[{"name":"subject","valueString":"898693f7-3efa-4240-bc7f-cfe7019a594b"}]}],"extension":[{"url":"http://hl7.org/fhir/us/cqfmeasures/StructureDefinition/cqfm-inputParameters","valueReference":{"reference":"#03c0c4d7-cacf-416e-980a-4215b92584b7-parameters"}},{"url":"http://hl7.org/fhir/us/cqfmeasures/StructureDefinition/cqfm-testCaseDescription","valueMarkdown":"ICU admission > 1 day after start of IP encounter\n"}],"modifierExtension":[{"url":"http://hl7.org/fhir/us/cqfmeasures/StructureDefinition/cqfm-isTestCase","valueBoolean":true}],"status":"complete","type":"individual","measure":"https://madie.cms.gov/Measure/CMS108VTEProphylaxisFHIR","period":{"start":"2026-01-01","end":"2026-12-31"},"group":[{"population":[{"code":{"coding":[{"system":"http://terminology.hl7.org/CodeSystem/measure-population","code":"initial-population","display":"Initial Population"}]},"count":1},{"code":{"coding":[{"system":"http://terminology.hl7.org/CodeSystem/measure-population","code":"denominator","display":"Denominator"}]},"count":1},{"code":{"coding":[{"system":"http://terminology.hl7.org/CodeSystem/measure-population","code":"denominator-exclusion","display":"Denominator Exclusion"}]},"count":0},{"code":{"coding":[{"system":"http://terminology.hl7.org/CodeSystem/measure-population","code":"numerator","display":"Numerator"}]},"count":0}]}]},"request":{"method":"PUT","url":"MeasureReport/9ea2cbfa-3565-4e90-9c1c-38cda38af8d2"}}]}