{"resourceType":"Bundle","id":"tests-4b739978-837b-4de8-a137-6388cfce6a5f-bundle","type":"transaction","entry":[{"fullUrl":"https://madie.cms.gov/Patient/4b739978-837b-4de8-a137-6388cfce6a5f","resource":{"resourceType":"Patient","id":"4b739978-837b-4de8-a137-6388cfce6a5f","meta":{"profile":["http://hl7.org/fhir/us/qicore/StructureDefinition/qicore-patient"]},"text":{"status":"generated","div":"<div xmlns=\"http://www.w3.org/1999/xhtml\"><div class=\"hapiHeaderText\">RixDuringED_EDGT1hr1minAdm <b>NUMERFAIL </b></div><table class=\"hapiPropertyTable\"><tbody><tr><td>Identifier</td><td>9ac41bff10ef3353d0742df1f73dc984</td></tr><tr><td>Date of birth</td><td><span>02 January 1974</span></td></tr></tbody></table></div>"},"extension":[{"url":"http://hl7.org/fhir/us/core/StructureDefinition/us-core-race","extension":[{"url":"ombCategory","valueCoding":{"system":"urn:oid:2.16.840.1.113883.6.238","code":"1002-5","display":"American Indian or Alaska Native","userSelected":true}},{"url":"text","valueString":"American Indian or Alaska Native"}]},{"url":"http://hl7.org/fhir/us/core/StructureDefinition/us-core-ethnicity","extension":[{"url":"ombCategory","valueCoding":{"system":"urn:oid:2.16.840.1.113883.6.238","code":"2135-2","display":"Hispanic or Latino","userSelected":true}},{"url":"text","valueString":"Hispanic or Latino"}]}],"identifier":[{"type":{"coding":[{"system":"http://terminology.hl7.org/CodeSystem/v2-0203","code":"MR"}]},"system":"https://bonnie-fhir.healthit.gov/","value":"612e6b1102c62a011f2ec4c4"}],"active":true,"name":[{"use":"usual","family":"NUMERFail","given":["RixDuringED_EDGT1hr1minAdm"]}],"gender":"male","birthDate":"1975-01-02"},"request":{"method":"PUT","url":"Patient/4b739978-837b-4de8-a137-6388cfce6a5f"}},{"fullUrl":"https://madie.cms.gov/Encounter/ddb62172-3dfb-469c-ac5f-62b07bf90bc9","resource":{"resourceType":"Encounter","id":"ddb62172-3dfb-469c-ac5f-62b07bf90bc9","meta":{"profile":["http://hl7.org/fhir/us/qicore/StructureDefinition/qicore-encounter"]},"status":"finished","class":{"system":"http://terminology.hl7.org/CodeSystem/v3-ActCode","code":"IMP","display":"inpatient encounter"},"type":[{"coding":[{"system":"http://snomed.info/sct","code":"8715000"}]}],"subject":{"reference":"Patient/4b739978-837b-4de8-a137-6388cfce6a5f"},"period":{"start":"2026-11-01T08:00:00+00:00","end":"2026-11-26T08:15:00+00:00"},"length":{"value":25.0,"unit":"days"}},"request":{"method":"PUT","url":"Encounter/ddb62172-3dfb-469c-ac5f-62b07bf90bc9"}},{"fullUrl":"https://madie.cms.gov/Encounter/b36a21b6-fed0-4be4-a782-97e8a3dc1c6a","resource":{"resourceType":"Encounter","id":"b36a21b6-fed0-4be4-a782-97e8a3dc1c6a","meta":{"profile":["http://hl7.org/fhir/us/qicore/StructureDefinition/qicore-encounter"]},"status":"finished","class":{"system":"http://terminology.hl7.org/CodeSystem/v3-ActCode","code":"EMER","display":"emergency"},"type":[{"coding":[{"system":"http://snomed.info/sct","code":"4525004"}]}],"subject":{"reference":"Patient/4b739978-837b-4de8-a137-6388cfce6a5f"},"period":{"start":"2026-10-31T20:00:00+00:00","end":"2026-11-01T06:59:00+00:00"}},"request":{"method":"PUT","url":"Encounter/b36a21b6-fed0-4be4-a782-97e8a3dc1c6a"}},{"fullUrl":"https://madie.cms.gov/Coverage/32cf9e54-894f-41a8-9ae4-991b891ed10b","resource":{"resourceType":"Coverage","id":"32cf9e54-894f-41a8-9ae4-991b891ed10b","status":"active","beneficiary":{"reference":"Patient/4b739978-837b-4de8-a137-6388cfce6a5f"},"period":{"start":"1975-01-02T08:00:00+00:00"},"payor":[{"reference":"Organization/607fdef9-3983-4cef-ab1a-95434d29b463"}]},"request":{"method":"PUT","url":"Coverage/32cf9e54-894f-41a8-9ae4-991b891ed10b"}},{"fullUrl":"https://madie.cms.gov/MedicationAdministration/2b040626-6f11-4cf7-8384-875fc952b118","resource":{"resourceType":"MedicationAdministration","id":"2b040626-6f11-4cf7-8384-875fc952b118","status":"completed","medicationCodeableConcept":{"coding":[{"system":"http://www.nlm.nih.gov/research/umls/rxnorm","code":"1114198"}]},"subject":{"reference":"Patient/4b739978-837b-4de8-a137-6388cfce6a5f"},"effectivePeriod":{"start":"2026-10-31T09:00:00+00:00","end":"2026-10-31T09:15:00+00:00"}},"request":{"method":"PUT","url":"MedicationAdministration/2b040626-6f11-4cf7-8384-875fc952b118"}},{"fullUrl":"https://madie.cms.gov/Organization/1eb7088b-8913-433a-82c0-007ad7cedcb6","resource":{"resourceType":"Organization","id":"607fdef9-3983-4cef-ab1a-95434d29b463","meta":{"profile":["http://hl7.org/fhir/us/qicore/StructureDefinition/qicore-organization"]},"identifier":[{"use":"temp","system":"urn:oid:2.16.840.1.113883.4.4","value":"21-3259825"}],"active":true,"type":[{"coding":[{"system":"http://terminology.hl7.org/CodeSystem/organization-type","code":"pay","display":"Payer"}]}],"name":"Blue Cross Blue Shield of Texas","telecom":[{"system":"phone","value":"(+1) 972-766-6900"}],"address":[{"use":"billing","type":"postal","line":["P.O. Box 660044"],"city":"Dallas","state":"TX","postalCode":"75266-0044","country":"USA"}]},"request":{"method":"PUT","url":"Organization/607fdef9-3983-4cef-ab1a-95434d29b463"}},{"fullUrl":"https://madie.cms.gov/Practitioner/75b6d6be-6c9b-4a3f-9383-d3fd89e42f2b","resource":{"resourceType":"Practitioner","id":"75b6d6be-6c9b-4a3f-9383-d3fd89e42f2b","identifier":[{"system":"http://hl7.org/fhir/sid/us-npi","value":"123456"}],"name":[{"family":"Evil","prefix":["Dr"]}]},"request":{"method":"PUT","url":"Practitioner/75b6d6be-6c9b-4a3f-9383-d3fd89e42f2b"}},{"fullUrl":"https://madie.cms.gov/MeasureReport/ca9eb02c-9b1a-49e5-a8dd-897dcf9075fc","resource":{"resourceType":"MeasureReport","id":"ca9eb02c-9b1a-49e5-a8dd-897dcf9075fc","meta":{"profile":["http://hl7.org/fhir/us/cqfmeasures/StructureDefinition/test-case-cqfm"]},"contained":[{"resourceType":"Parameters","id":"4abe3c8f-4fba-4efa-a1a3-c4263c822c22-parameters","parameter":[{"name":"subject","valueString":"4b739978-837b-4de8-a137-6388cfce6a5f"}]}],"extension":[{"url":"http://hl7.org/fhir/us/cqfmeasures/StructureDefinition/cqfm-inputParameters","valueReference":{"reference":"#4abe3c8f-4fba-4efa-a1a3-c4263c822c22-parameters"}},{"url":"http://hl7.org/fhir/us/cqfmeasures/StructureDefinition/cqfm-testCaseDescription","valueMarkdown":"Rivaroxaban  for VTE Prophylaxis Med Administered during ED which ED >1 hr ends Adm\n"}],"modifierExtension":[{"url":"http://hl7.org/fhir/us/cqfmeasures/StructureDefinition/cqfm-isTestCase","valueBoolean":true}],"status":"complete","type":"individual","measure":"https://madie.cms.gov/Measure/CMS108VTEProphylaxisFHIR","period":{"start":"2026-01-01","end":"2026-12-31"},"group":[{"population":[{"code":{"coding":[{"system":"http://terminology.hl7.org/CodeSystem/measure-population","code":"initial-population","display":"Initial Population"}]},"count":1},{"code":{"coding":[{"system":"http://terminology.hl7.org/CodeSystem/measure-population","code":"denominator","display":"Denominator"}]},"count":1},{"code":{"coding":[{"system":"http://terminology.hl7.org/CodeSystem/measure-population","code":"denominator-exclusion","display":"Denominator Exclusion"}]},"count":0},{"code":{"coding":[{"system":"http://terminology.hl7.org/CodeSystem/measure-population","code":"numerator","display":"Numerator"}]},"count":0}]}]},"request":{"method":"PUT","url":"MeasureReport/ca9eb02c-9b1a-49e5-a8dd-897dcf9075fc"}}]}