{"resourceType":"Bundle","id":"tests-dfc6a903-e637-4fff-8619-996099874454-bundle","type":"transaction","entry":[{"fullUrl":"https://madie.cms.gov/Patient/dfc6a903-e637-4fff-8619-996099874454","resource":{"resourceType":"Patient","id":"dfc6a903-e637-4fff-8619-996099874454","meta":{"profile":["http://hl7.org/fhir/us/qicore/StructureDefinition/qicore-patient"]},"text":{"status":"generated","div":"<div xmlns=\"http://www.w3.org/1999/xhtml\"><div class=\"hapiHeaderText\">INR_InvalidValue <b>NUMERFAIL </b></div><table class=\"hapiPropertyTable\"><tbody><tr><td>Identifier</td><td>698cb035726013399ea3ce60e92c9a6fae5c605ed7af65e4a30123b6e34d303e</td></tr><tr><td>Date of birth</td><td><span>02 January 1974</span></td></tr></tbody></table></div>"},"extension":[{"url":"http://hl7.org/fhir/us/core/StructureDefinition/us-core-race","extension":[{"url":"ombCategory","valueCoding":{"system":"urn:oid:2.16.840.1.113883.6.238","code":"1002-5","display":"American Indian or Alaska Native","userSelected":true}},{"url":"text","valueString":"American Indian or Alaska Native"}]},{"url":"http://hl7.org/fhir/us/core/StructureDefinition/us-core-ethnicity","extension":[{"url":"ombCategory","valueCoding":{"system":"urn:oid:2.16.840.1.113883.6.238","code":"2135-2","display":"Hispanic or Latino","userSelected":true}},{"url":"text","valueString":"Hispanic or Latino"}]}],"identifier":[{"type":{"coding":[{"system":"http://terminology.hl7.org/CodeSystem/v2-0203","code":"MR"}]},"system":"https://bonnie-fhir.healthit.gov/","value":"612e6aeb02c62a011f2ebbf9"}],"active":true,"name":[{"use":"usual","family":"NUMERFail","given":["INR_InvalidValue"]}],"gender":"male","birthDate":"1975-01-02"},"request":{"method":"PUT","url":"Patient/dfc6a903-e637-4fff-8619-996099874454"}},{"fullUrl":"https://madie.cms.gov/Encounter/7eac8d32-8f47-4536-9310-12b7005ea87d","resource":{"resourceType":"Encounter","id":"7eac8d32-8f47-4536-9310-12b7005ea87d","meta":{"profile":["http://hl7.org/fhir/us/qicore/StructureDefinition/qicore-encounter"]},"status":"finished","class":{"system":"http://terminology.hl7.org/CodeSystem/v3-ActCode","code":"IMP","display":"inpatient encounter"},"type":[{"coding":[{"system":"http://snomed.info/sct","code":"8715000"}]}],"subject":{"reference":"Patient/dfc6a903-e637-4fff-8619-996099874454"},"period":{"start":"2026-11-01T08:00:00+00:00","end":"2026-11-26T08:15:00+00:00"},"length":{"value":25.0,"unit":"days"}},"request":{"method":"PUT","url":"Encounter/7eac8d32-8f47-4536-9310-12b7005ea87d"}},{"fullUrl":"https://madie.cms.gov/Coverage/fe9d7713-216b-4145-80c6-6581f093fd2e","resource":{"resourceType":"Coverage","id":"fe9d7713-216b-4145-80c6-6581f093fd2e","status":"active","beneficiary":{"reference":"Patient/dfc6a903-e637-4fff-8619-996099874454"},"period":{"start":"1975-01-02T08:00:00+00:00"},"payor":[{"reference":"Organization/5ad6ea38-07e9-4482-9e1b-c09eee595be9"}]},"request":{"method":"PUT","url":"Coverage/fe9d7713-216b-4145-80c6-6581f093fd2e"}},{"fullUrl":"https://madie.cms.gov/Observation/46e4f869-f251-43df-a6bb-c3f7d460c026","resource":{"resourceType":"Observation","id":"46e4f869-f251-43df-a6bb-c3f7d460c026","meta":{"profile":["http://hl7.org/fhir/us/core/StructureDefinition/us-core-observation-lab"]},"status":"amended","category":[{"coding":[{"system":"http://terminology.hl7.org/CodeSystem/observation-category","code":"laboratory","display":"Laboratory"}]}],"code":{"coding":[{"system":"http://loinc.org","code":"34714-6"}]},"subject":{"reference":"Patient/dfc6a903-e637-4fff-8619-996099874454"},"issued":"2026-11-01T10:00:00.000+00:00","valueCodeableConcept":{"coding":[{"system":"http://cts.nlm.nih.gov/fhir/cs/cdcrec","code":"2135-2","display":"Ethnicity"}]}},"request":{"method":"PUT","url":"Observation/46e4f869-f251-43df-a6bb-c3f7d460c026"}},{"fullUrl":"https://madie.cms.gov/Procedure/32dbcffa-4698-436d-94b7-d00962e5cb98","resource":{"resourceType":"Procedure","id":"32dbcffa-4698-436d-94b7-d00962e5cb98","status":"completed","code":{"coding":[{"system":"http://www.icd10data.com/icd10pcs","code":"3E030FZ"},{"system":"http://snomed.info/sct","code":"18946005"}]},"subject":{"reference":"Patient/dfc6a903-e637-4fff-8619-996099874454"},"performedPeriod":{"start":"2026-11-01T09:00:00+00:00","end":"2026-11-01T09:15:00+00:00"}},"request":{"method":"PUT","url":"Procedure/32dbcffa-4698-436d-94b7-d00962e5cb98"}},{"fullUrl":"https://madie.cms.gov/Organization/d222d34d-c454-4dae-8f01-41ddba9c5dfb","resource":{"resourceType":"Organization","id":"5ad6ea38-07e9-4482-9e1b-c09eee595be9","meta":{"profile":["http://hl7.org/fhir/us/qicore/StructureDefinition/qicore-organization"]},"identifier":[{"use":"temp","system":"urn:oid:2.16.840.1.113883.4.4","value":"21-3259825"}],"active":true,"type":[{"coding":[{"system":"http://terminology.hl7.org/CodeSystem/organization-type","code":"pay","display":"Payer"}]}],"name":"Blue Cross Blue Shield of Texas","telecom":[{"system":"phone","value":"(+1) 972-766-6900"}],"address":[{"use":"billing","type":"postal","line":["P.O. Box 660044"],"city":"Dallas","state":"TX","postalCode":"75266-0044","country":"USA"}]},"request":{"method":"PUT","url":"Organization/5ad6ea38-07e9-4482-9e1b-c09eee595be9"}},{"fullUrl":"https://madie.cms.gov/Practitioner/ba3734fa-8d73-4a3b-a13e-aa535d6fa055","resource":{"resourceType":"Practitioner","id":"ba3734fa-8d73-4a3b-a13e-aa535d6fa055","identifier":[{"system":"http://hl7.org/fhir/sid/us-npi","value":"123456"}],"name":[{"family":"Evil","prefix":["Dr"]}]},"request":{"method":"PUT","url":"Practitioner/ba3734fa-8d73-4a3b-a13e-aa535d6fa055"}},{"fullUrl":"https://madie.cms.gov/MeasureReport/60cfa03a-34af-4155-8486-148abd4d613b","resource":{"resourceType":"MeasureReport","id":"60cfa03a-34af-4155-8486-148abd4d613b","meta":{"profile":["http://hl7.org/fhir/us/cqfmeasures/StructureDefinition/test-case-cqfm"]},"contained":[{"resourceType":"Parameters","id":"5636f147-4ee9-4f53-a970-776e6d0b9e8b-parameters","parameter":[{"name":"subject","valueString":"dfc6a903-e637-4fff-8619-996099874454"}]}],"extension":[{"url":"http://hl7.org/fhir/us/cqfmeasures/StructureDefinition/cqfm-inputParameters","valueReference":{"reference":"#5636f147-4ee9-4f53-a970-776e6d0b9e8b-parameters"}},{"url":"http://hl7.org/fhir/us/cqfmeasures/StructureDefinition/cqfm-testCaseDescription","valueMarkdown":">18, dx VTE, LOS<120 day,   LabResult INR is a invalid value as coded value,  < 0 day after surgery end datetime\n"}],"modifierExtension":[{"url":"http://hl7.org/fhir/us/cqfmeasures/StructureDefinition/cqfm-isTestCase","valueBoolean":true}],"status":"complete","type":"individual","measure":"https://madie.cms.gov/Measure/CMS108VTEProphylaxisFHIR","period":{"start":"2026-01-01","end":"2026-12-31"},"group":[{"population":[{"code":{"coding":[{"system":"http://terminology.hl7.org/CodeSystem/measure-population","code":"initial-population","display":"Initial Population"}]},"count":1},{"code":{"coding":[{"system":"http://terminology.hl7.org/CodeSystem/measure-population","code":"denominator","display":"Denominator"}]},"count":1},{"code":{"coding":[{"system":"http://terminology.hl7.org/CodeSystem/measure-population","code":"denominator-exclusion","display":"Denominator Exclusion"}]},"count":0},{"code":{"coding":[{"system":"http://terminology.hl7.org/CodeSystem/measure-population","code":"numerator","display":"Numerator"}]},"count":0}]}]},"request":{"method":"PUT","url":"MeasureReport/60cfa03a-34af-4155-8486-148abd4d613b"}}]}