{"resourceType":"Bundle","id":"tests-dc0dcb01-87f0-4e65-9c36-8cf6174abef1-bundle","type":"transaction","entry":[{"fullUrl":"https://madie.cms.gov/Patient/dc0dcb01-87f0-4e65-9c36-8cf6174abef1","resource":{"resourceType":"Patient","id":"dc0dcb01-87f0-4e65-9c36-8cf6174abef1","meta":{"profile":["http://hl7.org/fhir/us/qicore/StructureDefinition/qicore-patient"]},"text":{"status":"generated","div":"<div xmlns=\"http://www.w3.org/1999/xhtml\"><div class=\"hapiHeaderText\">INR4WOdecimal_AfterEndOfAnes <b>NUMERPASS </b></div><table class=\"hapiPropertyTable\"><tbody><tr><td>Identifier</td><td>63ba0f1cce38276422ef5807decdf655</td></tr><tr><td>Date of birth</td><td><span>02 January 1974</span></td></tr></tbody></table></div>"},"extension":[{"url":"http://hl7.org/fhir/us/core/StructureDefinition/us-core-race","extension":[{"url":"ombCategory","valueCoding":{"system":"urn:oid:2.16.840.1.113883.6.238","code":"1002-5","display":"American Indian or Alaska Native","userSelected":true}},{"url":"text","valueString":"American Indian or Alaska Native"}]},{"url":"http://hl7.org/fhir/us/core/StructureDefinition/us-core-ethnicity","extension":[{"url":"ombCategory","valueCoding":{"system":"urn:oid:2.16.840.1.113883.6.238","code":"2135-2","display":"Hispanic or Latino","userSelected":true}},{"url":"text","valueString":"Hispanic or Latino"}]}],"identifier":[{"type":{"coding":[{"system":"http://terminology.hl7.org/CodeSystem/v2-0203","code":"MR"}]},"system":"https://bonnie-fhir.healthit.gov/","value":"612e6ad402c62a011f2eb5f5"}],"active":true,"name":[{"use":"usual","family":"NUMERPass","given":["INR4WOdecimal_AfterEndOfAnes"]}],"gender":"male","birthDate":"1975-01-02"},"request":{"method":"PUT","url":"Patient/dc0dcb01-87f0-4e65-9c36-8cf6174abef1"}},{"fullUrl":"https://madie.cms.gov/Encounter/5cd7bda6-fd35-4431-a9a5-6f7ff0233574","resource":{"resourceType":"Encounter","id":"5cd7bda6-fd35-4431-a9a5-6f7ff0233574","meta":{"profile":["http://hl7.org/fhir/us/qicore/StructureDefinition/qicore-encounter"]},"status":"finished","class":{"system":"http://terminology.hl7.org/CodeSystem/v3-ActCode","code":"IMP","display":"inpatient encounter"},"type":[{"coding":[{"system":"http://snomed.info/sct","code":"8715000"}]}],"subject":{"reference":"Patient/dc0dcb01-87f0-4e65-9c36-8cf6174abef1"},"period":{"start":"2026-11-01T08:00:00+00:00","end":"2026-11-26T08:15:00+00:00"},"length":{"value":25.0,"unit":"days"}},"request":{"method":"PUT","url":"Encounter/5cd7bda6-fd35-4431-a9a5-6f7ff0233574"}},{"fullUrl":"https://madie.cms.gov/Coverage/03f6d077-6159-4676-8083-16bce293d512","resource":{"resourceType":"Coverage","id":"03f6d077-6159-4676-8083-16bce293d512","status":"active","beneficiary":{"reference":"Patient/dc0dcb01-87f0-4e65-9c36-8cf6174abef1"},"period":{"start":"1975-01-02T08:00:00+00:00"},"payor":[{"reference":"Organization/3e899f33-84eb-4634-a770-a5a0bd7a80e7"}]},"request":{"method":"PUT","url":"Coverage/03f6d077-6159-4676-8083-16bce293d512"}},{"fullUrl":"https://madie.cms.gov/Observation/e40578af-2413-4458-9c9c-c4657cfed28a","resource":{"resourceType":"Observation","id":"e40578af-2413-4458-9c9c-c4657cfed28a","meta":{"profile":["http://hl7.org/fhir/us/core/StructureDefinition/us-core-observation-lab"]},"status":"final","category":[{"coding":[{"system":"http://terminology.hl7.org/CodeSystem/observation-category","code":"laboratory","display":"Laboratory"}]}],"code":{"coding":[{"system":"http://loinc.org","code":"34714-6"}]},"subject":{"reference":"Patient/dc0dcb01-87f0-4e65-9c36-8cf6174abef1"},"effectiveDateTime":"2026-11-01T09:15:00+00:00","issued":"2026-11-01T10:00:00.000+00:00","valueQuantity":{"value":4,"unit":"{INR}"}},"request":{"method":"PUT","url":"Observation/e40578af-2413-4458-9c9c-c4657cfed28a"}},{"fullUrl":"https://madie.cms.gov/Procedure/8133d2fb-3057-4ca4-8353-8af5a2d8ba1e","resource":{"resourceType":"Procedure","id":"8133d2fb-3057-4ca4-8353-8af5a2d8ba1e","meta":{"profile":["http://hl7.org/fhir/us/qicore/StructureDefinition/qicore-procedure"]},"extension":[{"url":"http://hl7.org/fhir/us/qicore/StructureDefinition/qicore-recorded","valueDateTime":"2013-11-01T09:35:00-04:00"}],"status":"completed","code":{"coding":[{"system":"http://www.icd10data.com/icd10pcs","code":"3E030FZ"},{"system":"http://snomed.info/sct","code":"18946005"}]},"subject":{"reference":"Patient/dc0dcb01-87f0-4e65-9c36-8cf6174abef1"},"performedPeriod":{"start":"2026-11-01T09:00:00+00:00","end":"2026-11-01T09:15:00+00:00"}},"request":{"method":"PUT","url":"Procedure/8133d2fb-3057-4ca4-8353-8af5a2d8ba1e"}},{"fullUrl":"https://madie.cms.gov/Organization/5b4802a9-fb74-49ce-8002-3b0d2a9086ea","resource":{"resourceType":"Organization","id":"3e899f33-84eb-4634-a770-a5a0bd7a80e7","meta":{"profile":["http://hl7.org/fhir/us/qicore/StructureDefinition/qicore-organization"]},"identifier":[{"use":"temp","system":"urn:oid:2.16.840.1.113883.4.4","value":"21-3259825"}],"active":true,"type":[{"coding":[{"system":"http://terminology.hl7.org/CodeSystem/organization-type","code":"pay","display":"Payer"}]}],"name":"Blue Cross Blue Shield of Texas","telecom":[{"system":"phone","value":"(+1) 972-766-6900"}],"address":[{"use":"billing","type":"postal","line":["P.O. Box 660044"],"city":"Dallas","state":"TX","postalCode":"75266-0044","country":"USA"}]},"request":{"method":"PUT","url":"Organization/3e899f33-84eb-4634-a770-a5a0bd7a80e7"}},{"fullUrl":"https://madie.cms.gov/Practitioner/56063581-171c-400d-93ed-359ab2d16cc5","resource":{"resourceType":"Practitioner","id":"56063581-171c-400d-93ed-359ab2d16cc5","identifier":[{"system":"http://hl7.org/fhir/sid/us-npi","value":"123456"}],"name":[{"family":"Evil","prefix":["Dr"]}]},"request":{"method":"PUT","url":"Practitioner/56063581-171c-400d-93ed-359ab2d16cc5"}},{"fullUrl":"https://madie.cms.gov/MeasureReport/afabdf28-6cf2-4a06-a020-fa06e1f43684","resource":{"resourceType":"MeasureReport","id":"afabdf28-6cf2-4a06-a020-fa06e1f43684","meta":{"profile":["http://hl7.org/fhir/us/cqfmeasures/StructureDefinition/test-case-cqfm"]},"contained":[{"resourceType":"Parameters","id":"39ecb86b-5f56-4e6f-8853-ae5f95dce4ec-parameters","parameter":[{"name":"subject","valueString":"dc0dcb01-87f0-4e65-9c36-8cf6174abef1"}]}],"extension":[{"url":"http://hl7.org/fhir/us/cqfmeasures/StructureDefinition/cqfm-inputParameters","valueReference":{"reference":"#39ecb86b-5f56-4e6f-8853-ae5f95dce4ec-parameters"}},{"url":"http://hl7.org/fhir/us/cqfmeasures/StructureDefinition/cqfm-testCaseDescription","valueMarkdown":">18, dx VTE, LOS<120 day,   LabResult INR>3 no decimal,  on surgery end datetime\n"}],"modifierExtension":[{"url":"http://hl7.org/fhir/us/cqfmeasures/StructureDefinition/cqfm-isTestCase","valueBoolean":true}],"status":"complete","type":"individual","measure":"https://madie.cms.gov/Measure/CMS108VTEProphylaxisFHIR","period":{"start":"2026-01-01","end":"2026-12-31"},"group":[{"population":[{"code":{"coding":[{"system":"http://terminology.hl7.org/CodeSystem/measure-population","code":"initial-population","display":"Initial Population"}]},"count":1},{"code":{"coding":[{"system":"http://terminology.hl7.org/CodeSystem/measure-population","code":"denominator","display":"Denominator"}]},"count":1},{"code":{"coding":[{"system":"http://terminology.hl7.org/CodeSystem/measure-population","code":"denominator-exclusion","display":"Denominator Exclusion"}]},"count":0},{"code":{"coding":[{"system":"http://terminology.hl7.org/CodeSystem/measure-population","code":"numerator","display":"Numerator"}]},"count":1}]}]},"request":{"method":"PUT","url":"MeasureReport/afabdf28-6cf2-4a06-a020-fa06e1f43684"}}]}