{"resourceType":"Bundle","id":"tests-1b7603d3-81d1-45be-8b6f-a483827e9eb8-bundle","type":"transaction","entry":[{"fullUrl":"https://madie.cms.gov/Patient/1b7603d3-81d1-45be-8b6f-a483827e9eb8","resource":{"resourceType":"Patient","id":"1b7603d3-81d1-45be-8b6f-a483827e9eb8","meta":{"profile":["http://hl7.org/fhir/us/qicore/StructureDefinition/qicore-patient"]},"text":{"status":"generated","div":"<div xmlns=\"http://www.w3.org/1999/xhtml\"><div class=\"hapiHeaderText\">MA_LMWH_DayOfAdmit <b>NUMERPASS </b></div><table class=\"hapiPropertyTable\"><tbody><tr><td>Identifier</td><td>e213550d1409db28f4a0cef7910ee883</td></tr><tr><td>Date of birth</td><td><span>02 January 1974</span></td></tr></tbody></table></div>"},"extension":[{"url":"http://hl7.org/fhir/us/core/StructureDefinition/us-core-race","extension":[{"url":"ombCategory","valueCoding":{"system":"urn:oid:2.16.840.1.113883.6.238","code":"1002-5","display":"American Indian or Alaska Native","userSelected":true}},{"url":"text","valueString":"American Indian or Alaska Native"}]},{"url":"http://hl7.org/fhir/us/core/StructureDefinition/us-core-ethnicity","extension":[{"url":"ombCategory","valueCoding":{"system":"urn:oid:2.16.840.1.113883.6.238","code":"2135-2","display":"Hispanic or Latino","userSelected":true}},{"url":"text","valueString":"Hispanic or Latino"}]}],"identifier":[{"type":{"coding":[{"system":"http://terminology.hl7.org/CodeSystem/v2-0203","code":"MR"}]},"system":"https://bonnie-fhir.healthit.gov/","value":"612e6a7a02c62a011f2ea2a3"}],"active":true,"name":[{"use":"usual","family":"NUMERPass","given":["MA_LMWH_DayOfAdmit"]}],"gender":"male","birthDate":"1975-01-02"},"request":{"method":"PUT","url":"Patient/1b7603d3-81d1-45be-8b6f-a483827e9eb8"}},{"fullUrl":"https://madie.cms.gov/Encounter/e257ec87-1b91-4709-be69-4133611cd459","resource":{"resourceType":"Encounter","id":"e257ec87-1b91-4709-be69-4133611cd459","meta":{"profile":["http://hl7.org/fhir/us/qicore/StructureDefinition/qicore-encounter"]},"status":"finished","class":{"system":"http://terminology.hl7.org/CodeSystem/v3-ActCode","code":"IMP","display":"inpatient encounter"},"type":[{"coding":[{"system":"http://snomed.info/sct","code":"8715000"}]}],"subject":{"reference":"Patient/1b7603d3-81d1-45be-8b6f-a483827e9eb8"},"period":{"start":"2026-11-01T08:00:00+00:00","end":"2026-11-26T08:15:00+00:00"},"length":{"value":25.0,"unit":"days"}},"request":{"method":"PUT","url":"Encounter/e257ec87-1b91-4709-be69-4133611cd459"}},{"fullUrl":"https://madie.cms.gov/Coverage/ab6c2151-89ee-484d-8d43-02ca263f98f3","resource":{"resourceType":"Coverage","id":"ab6c2151-89ee-484d-8d43-02ca263f98f3","status":"active","beneficiary":{"reference":"Patient/1b7603d3-81d1-45be-8b6f-a483827e9eb8"},"period":{"start":"1975-01-02T08:00:00+00:00"},"payor":[{"reference":"Organization/3e899f33-84eb-4634-a770-a5a0bd7a80e7"}]},"request":{"method":"PUT","url":"Coverage/ab6c2151-89ee-484d-8d43-02ca263f98f3"}},{"fullUrl":"https://madie.cms.gov/MedicationAdministration/7edc5de8-d09e-4023-86cc-fefe8b130192","resource":{"resourceType":"MedicationAdministration","id":"7edc5de8-d09e-4023-86cc-fefe8b130192","meta":{"profile":["http://hl7.org/fhir/us/qicore/StructureDefinition/qicore-medicationadministration"]},"status":"completed","medicationCodeableConcept":{"coding":[{"system":"http://www.nlm.nih.gov/research/umls/rxnorm","code":"854228"}]},"subject":{"reference":"Patient/1b7603d3-81d1-45be-8b6f-a483827e9eb8"},"effectivePeriod":{"start":"2026-11-01T09:00:00+00:00","end":"2026-11-01T09:15:00+00:00"}},"request":{"method":"PUT","url":"MedicationAdministration/7edc5de8-d09e-4023-86cc-fefe8b130192"}},{"fullUrl":"https://madie.cms.gov/Organization/499ebf69-22a5-462d-af42-8ec53ec3c040","resource":{"resourceType":"Organization","id":"3e899f33-84eb-4634-a770-a5a0bd7a80e7","meta":{"profile":["http://hl7.org/fhir/us/qicore/StructureDefinition/qicore-organization"]},"identifier":[{"use":"temp","system":"urn:oid:2.16.840.1.113883.4.4","value":"21-3259825"}],"active":true,"type":[{"coding":[{"system":"http://terminology.hl7.org/CodeSystem/organization-type","code":"pay","display":"Payer"}]}],"name":"Blue Cross Blue Shield of Texas","telecom":[{"system":"phone","value":"(+1) 972-766-6900"}],"address":[{"use":"billing","type":"postal","line":["P.O. Box 660044"],"city":"Dallas","state":"TX","postalCode":"75266-0044","country":"USA"}]},"request":{"method":"PUT","url":"Organization/3e899f33-84eb-4634-a770-a5a0bd7a80e7"}},{"fullUrl":"https://madie.cms.gov/Practitioner/2033a1a4-a8d8-415d-8f1a-99cee0fbfde5","resource":{"resourceType":"Practitioner","id":"2033a1a4-a8d8-415d-8f1a-99cee0fbfde5","identifier":[{"system":"http://hl7.org/fhir/sid/us-npi","value":"123456"}],"name":[{"family":"Evil","prefix":["Dr"]}]},"request":{"method":"PUT","url":"Practitioner/2033a1a4-a8d8-415d-8f1a-99cee0fbfde5"}},{"fullUrl":"https://madie.cms.gov/MeasureReport/189e374d-9a78-447a-8fbd-a04cc5e5e4cd","resource":{"resourceType":"MeasureReport","id":"189e374d-9a78-447a-8fbd-a04cc5e5e4cd","meta":{"profile":["http://hl7.org/fhir/us/cqfmeasures/StructureDefinition/test-case-cqfm"]},"contained":[{"resourceType":"Parameters","id":"f0877c21-b818-4da9-bbd4-d12fae94b0b1-parameters","parameter":[{"name":"subject","valueString":"1b7603d3-81d1-45be-8b6f-a483827e9eb8"}]}],"extension":[{"url":"http://hl7.org/fhir/us/cqfmeasures/StructureDefinition/cqfm-inputParameters","valueReference":{"reference":"#f0877c21-b818-4da9-bbd4-d12fae94b0b1-parameters"}},{"url":"http://hl7.org/fhir/us/cqfmeasures/StructureDefinition/cqfm-testCaseDescription","valueMarkdown":"lmwh administered during IP encounter\n"}],"modifierExtension":[{"url":"http://hl7.org/fhir/us/cqfmeasures/StructureDefinition/cqfm-isTestCase","valueBoolean":true}],"status":"complete","type":"individual","measure":"https://madie.cms.gov/Measure/CMS108VTEProphylaxisFHIR","period":{"start":"2026-01-01","end":"2026-12-31"},"group":[{"population":[{"code":{"coding":[{"system":"http://terminology.hl7.org/CodeSystem/measure-population","code":"initial-population","display":"Initial Population"}]},"count":1},{"code":{"coding":[{"system":"http://terminology.hl7.org/CodeSystem/measure-population","code":"denominator","display":"Denominator"}]},"count":1},{"code":{"coding":[{"system":"http://terminology.hl7.org/CodeSystem/measure-population","code":"denominator-exclusion","display":"Denominator Exclusion"}]},"count":0},{"code":{"coding":[{"system":"http://terminology.hl7.org/CodeSystem/measure-population","code":"numerator","display":"Numerator"}]},"count":1}]}]},"request":{"method":"PUT","url":"MeasureReport/189e374d-9a78-447a-8fbd-a04cc5e5e4cd"}}]}