{"resourceType":"Bundle","id":"tests-9f11ba0f-2fd8-4f45-87c8-98fd7f81e42b-bundle","type":"transaction","entry":[{"fullUrl":"https://madie.cms.gov/Patient/9f11ba0f-2fd8-4f45-87c8-98fd7f81e42b","resource":{"resourceType":"Patient","id":"9f11ba0f-2fd8-4f45-87c8-98fd7f81e42b","meta":{"profile":["http://hl7.org/fhir/us/qicore/StructureDefinition/qicore-patient"]},"text":{"status":"generated","div":"<div xmlns=\"http://www.w3.org/1999/xhtml\"><div class=\"hapiHeaderText\">SCIP_GenSurgRank1 <b>DENEXPASS </b></div><table class=\"hapiPropertyTable\"><tbody><tr><td>Identifier</td><td>66c70c125db369967b4b164e75338304</td></tr><tr><td>Date of birth</td><td><span>01 September 2000</span></td></tr></tbody></table></div>"},"extension":[{"url":"http://hl7.org/fhir/us/core/StructureDefinition/us-core-race","extension":[{"url":"ombCategory","valueCoding":{"system":"urn:oid:2.16.840.1.113883.6.238","code":"1002-5","display":"American Indian or Alaska Native","userSelected":true}},{"url":"text","valueString":"American Indian or Alaska Native"}]},{"url":"http://hl7.org/fhir/us/core/StructureDefinition/us-core-ethnicity","extension":[{"url":"ombCategory","valueCoding":{"system":"urn:oid:2.16.840.1.113883.6.238","code":"2135-2","display":"Hispanic or Latino","userSelected":true}},{"url":"text","valueString":"Hispanic or Latino"}]}],"identifier":[{"type":{"coding":[{"system":"http://terminology.hl7.org/CodeSystem/v2-0203","code":"MR"}]},"system":"https://bonnie-fhir.healthit.gov/","value":"612e6b0002c62a011f2ec10b"}],"active":true,"name":[{"use":"usual","family":"DENEXPass ","given":["SCIP_GenSurgRank1"]}],"gender":"male","birthDate":"2001-09-01"},"request":{"method":"PUT","url":"Patient/9f11ba0f-2fd8-4f45-87c8-98fd7f81e42b"}},{"fullUrl":"https://madie.cms.gov/Encounter/92382cf9-6103-4b52-a2f2-2667650029d4","resource":{"resourceType":"Encounter","id":"92382cf9-6103-4b52-a2f2-2667650029d4","meta":{"profile":["http://hl7.org/fhir/us/qicore/StructureDefinition/qicore-encounter"]},"extension":[{"url":"http://hl7.org/fhir/us/qicore/StructureDefinition/qicore-encounter-procedure","extension":[{"url":"type","valueCodeableConcept":{"coding":[{"system":"https://www.icd10data.com/icd10pcs","code":"008Q0ZZ"}]}},{"url":"rank","valuePositiveInt":1},{"url":"procedure","valueReference":{"reference":"Procedure/f4389d43-cb1d-4aa5-9dbe-efd2632dbc0d"}}]}],"status":"finished","class":{"system":"http://terminology.hl7.org/CodeSystem/v3-ActCode","code":"IMP","display":"inpatient encounter"},"type":[{"coding":[{"system":"http://snomed.info/sct","code":"183452005"}]}],"subject":{"reference":"Patient/9f11ba0f-2fd8-4f45-87c8-98fd7f81e42b"},"period":{"start":"2026-09-02T06:00:00+00:00","end":"2026-12-31T12:59:00+00:00"},"length":{"value":120.0,"unit":"days"}},"request":{"method":"PUT","url":"Encounter/92382cf9-6103-4b52-a2f2-2667650029d4"}},{"fullUrl":"https://madie.cms.gov/Coverage/dc41b5ec-e30a-4144-897c-7bbfe7c37f00","resource":{"resourceType":"Coverage","id":"dc41b5ec-e30a-4144-897c-7bbfe7c37f00","status":"active","beneficiary":{"reference":"Patient/9f11ba0f-2fd8-4f45-87c8-98fd7f81e42b"},"period":{"start":"2001-09-01T08:00:00+00:00"},"payor":[{"reference":"Organization/db141f66-a1cc-407b-9e95-adac27adee14"}]},"request":{"method":"PUT","url":"Coverage/dc41b5ec-e30a-4144-897c-7bbfe7c37f00"}},{"fullUrl":"https://madie.cms.gov/Procedure/f4389d43-cb1d-4aa5-9dbe-efd2632dbc0d","resource":{"resourceType":"Procedure","id":"f4389d43-cb1d-4aa5-9dbe-efd2632dbc0d","meta":{"profile":["http://hl7.org/fhir/us/qicore/StructureDefinition/qicore-procedure"]},"extension":[{"url":"http://hl7.org/fhir/us/qicore/StructureDefinition/qicore-recorded","valueDateTime":"2014-04-05T09:35:00-04:00"}],"status":"completed","code":{"coding":[{"system":"http://snomed.info/sct","version":"2025-03","code":"72261007","display":"Resection of rectum with pelvic exenteration (procedure)"}]},"subject":{"reference":"Patient/9f11ba0f-2fd8-4f45-87c8-98fd7f81e42b"},"performedPeriod":{"start":"2026-09-02T09:00:00+00:00","end":"2026-09-02T12:59:00+00:00"}},"request":{"method":"PUT","url":"Procedure/f4389d43-cb1d-4aa5-9dbe-efd2632dbc0d"}},{"fullUrl":"https://madie.cms.gov/Organization/a415edcf-0770-4bf7-974d-7a356350ef1d","resource":{"resourceType":"Organization","id":"db141f66-a1cc-407b-9e95-adac27adee14","meta":{"profile":["http://hl7.org/fhir/us/qicore/StructureDefinition/qicore-organization"]},"identifier":[{"use":"temp","system":"urn:oid:2.16.840.1.113883.4.4","value":"21-3259825"}],"active":true,"type":[{"coding":[{"system":"http://terminology.hl7.org/CodeSystem/organization-type","code":"pay","display":"Payer"}]}],"name":"Blue Cross Blue Shield of Texas","telecom":[{"system":"phone","value":"(+1) 972-766-6900"}],"address":[{"use":"billing","type":"postal","line":["P.O. Box 660044"],"city":"Dallas","state":"TX","postalCode":"75266-0044","country":"USA"}]},"request":{"method":"PUT","url":"Organization/db141f66-a1cc-407b-9e95-adac27adee14"}},{"fullUrl":"https://madie.cms.gov/Practitioner/2299a174-a1da-401e-b152-08f2dd01c683","resource":{"resourceType":"Practitioner","id":"2299a174-a1da-401e-b152-08f2dd01c683","identifier":[{"system":"http://hl7.org/fhir/sid/us-npi","value":"123456"}],"name":[{"family":"Evil","prefix":["Dr"]}]},"request":{"method":"PUT","url":"Practitioner/2299a174-a1da-401e-b152-08f2dd01c683"}},{"fullUrl":"https://madie.cms.gov/MeasureReport/8975488a-e805-4ef6-b8a2-81ef72e8dfe4","resource":{"resourceType":"MeasureReport","id":"8975488a-e805-4ef6-b8a2-81ef72e8dfe4","meta":{"profile":["http://hl7.org/fhir/us/cqfmeasures/StructureDefinition/test-case-cqfm"]},"contained":[{"resourceType":"Parameters","id":"6aa4faf1-89f6-4ff4-9714-bf2ab6ecb45e-parameters","parameter":[{"name":"subject","valueString":"9f11ba0f-2fd8-4f45-87c8-98fd7f81e42b"}]}],"extension":[{"url":"http://hl7.org/fhir/us/cqfmeasures/StructureDefinition/cqfm-inputParameters","valueReference":{"reference":"#6aa4faf1-89f6-4ff4-9714-bf2ab6ecb45e-parameters"}},{"url":"http://hl7.org/fhir/us/cqfmeasures/StructureDefinition/cqfm-testCaseDescription","valueMarkdown":"Patient had SCIP -GenSurg during Encounter and Rank =1\n"}],"modifierExtension":[{"url":"http://hl7.org/fhir/us/cqfmeasures/StructureDefinition/cqfm-isTestCase","valueBoolean":true}],"status":"complete","type":"individual","measure":"https://madie.cms.gov/Measure/CMS108VTEProphylaxisFHIR","period":{"start":"2026-01-01","end":"2026-12-31"},"group":[{"population":[{"code":{"coding":[{"system":"http://terminology.hl7.org/CodeSystem/measure-population","code":"initial-population","display":"Initial Population"}]},"count":1},{"code":{"coding":[{"system":"http://terminology.hl7.org/CodeSystem/measure-population","code":"denominator","display":"Denominator"}]},"count":1},{"code":{"coding":[{"system":"http://terminology.hl7.org/CodeSystem/measure-population","code":"denominator-exclusion","display":"Denominator Exclusion"}]},"count":1},{"code":{"coding":[{"system":"http://terminology.hl7.org/CodeSystem/measure-population","code":"numerator","display":"Numerator"}]},"count":0}]}]},"request":{"method":"PUT","url":"MeasureReport/8975488a-e805-4ef6-b8a2-81ef72e8dfe4"}}]}