{"resourceType":"Bundle","id":"tests-f02a4a69-6e70-465f-a3f8-9e9c369d72c3-bundle","type":"transaction","entry":[{"fullUrl":"https://madie.cms.gov/Patient/f02a4a69-6e70-465f-a3f8-9e9c369d72c3","resource":{"resourceType":"Patient","id":"f02a4a69-6e70-465f-a3f8-9e9c369d72c3","meta":{"profile":["http://hl7.org/fhir/us/qicore/StructureDefinition/qicore-patient"]},"text":{"status":"generated","div":"<div xmlns=\"http://www.w3.org/1999/xhtml\"><div class=\"hapiHeaderText\">CMO_DayofAdmit <b>DENEXPASS </b></div><table class=\"hapiPropertyTable\"><tbody><tr><td>Identifier</td><td>0c49f8b1cebc43e2b12df0b5c8ac49c4</td></tr><tr><td>Date of birth</td><td><span>02 January 1974</span></td></tr></tbody></table></div>"},"extension":[{"url":"http://hl7.org/fhir/us/core/StructureDefinition/us-core-race","extension":[{"url":"ombCategory","valueCoding":{"system":"urn:oid:2.16.840.1.113883.6.238","code":"1002-5","display":"American Indian or Alaska Native","userSelected":true}},{"url":"text","valueString":"American Indian or Alaska Native"}]},{"url":"http://hl7.org/fhir/us/core/StructureDefinition/us-core-ethnicity","extension":[{"url":"ombCategory","valueCoding":{"system":"urn:oid:2.16.840.1.113883.6.238","code":"2135-2","display":"Hispanic or Latino","userSelected":true}},{"url":"text","valueString":"Hispanic or Latino"}]}],"identifier":[{"type":{"coding":[{"system":"http://terminology.hl7.org/CodeSystem/v2-0203","code":"MR"}]},"system":"https://bonnie-fhir.healthit.gov/","value":"612e6b4002c62a011f2ed0d6"}],"active":true,"name":[{"use":"usual","family":"DENEXPass","given":["CMO_DayofAdmit"]}],"gender":"male","birthDate":"1975-01-02"},"request":{"method":"PUT","url":"Patient/f02a4a69-6e70-465f-a3f8-9e9c369d72c3"}},{"fullUrl":"https://madie.cms.gov/Encounter/1ad87a01-386d-4684-ac40-96d4d4325c68","resource":{"resourceType":"Encounter","id":"1ad87a01-386d-4684-ac40-96d4d4325c68","meta":{"profile":["http://hl7.org/fhir/us/qicore/StructureDefinition/qicore-encounter"]},"status":"finished","class":{"system":"http://terminology.hl7.org/CodeSystem/v3-ActCode","code":"IMP","display":"inpatient encounter"},"type":[{"coding":[{"system":"http://snomed.info/sct","code":"8715000"}]}],"subject":{"reference":"Patient/f02a4a69-6e70-465f-a3f8-9e9c369d72c3"},"period":{"start":"2026-10-19T08:00:00+00:00","end":"2026-11-02T08:15:00+00:00"},"length":{"value":14.0,"unit":"days"},"diagnosis":[{"condition":{"reference":"Condition/20e2a7b3-6ad1-4500-b571-bc78a3767f4e"}}]},"request":{"method":"PUT","url":"Encounter/1ad87a01-386d-4684-ac40-96d4d4325c68"}},{"fullUrl":"https://madie.cms.gov/Encounter/833b72b5-1203-4776-b887-c8e58087a153","resource":{"resourceType":"Encounter","id":"833b72b5-1203-4776-b887-c8e58087a153","meta":{"profile":["http://hl7.org/fhir/us/qicore/StructureDefinition/qicore-encounter"]},"status":"finished","class":{"system":"http://terminology.hl7.org/CodeSystem/v3-ActCode","code":"IMP","display":"inpatient encounter"},"type":[{"coding":[{"system":"http://snomed.info/sct","code":"8715000"}]}],"subject":{"reference":"Patient/f02a4a69-6e70-465f-a3f8-9e9c369d72c3"},"period":{"start":"2026-11-01T08:00:00+00:00","end":"2026-11-26T08:15:00+00:00"},"length":{"value":25.0,"unit":"days"}},"request":{"method":"PUT","url":"Encounter/833b72b5-1203-4776-b887-c8e58087a153"}},{"fullUrl":"https://madie.cms.gov/ServiceRequest/47cb80a4-b3d9-494c-b2bb-acfefd0d01be","resource":{"resourceType":"ServiceRequest","id":"47cb80a4-b3d9-494c-b2bb-acfefd0d01be","meta":{"profile":["http://hl7.org/fhir/us/qicore/StructureDefinition/qicore-servicerequest"]},"status":"completed","intent":"order","code":{"coding":[{"system":"http://snomed.info/sct","code":"133918004"}]},"subject":{"reference":"Patient/f02a4a69-6e70-465f-a3f8-9e9c369d72c3"},"authoredOn":"2026-11-01T11:00:00+00:00"},"request":{"method":"PUT","url":"ServiceRequest/47cb80a4-b3d9-494c-b2bb-acfefd0d01be"}},{"fullUrl":"https://madie.cms.gov/Coverage/9ff8428e-e4ec-46fd-9049-b8e4ecaf63fb","resource":{"resourceType":"Coverage","id":"9ff8428e-e4ec-46fd-9049-b8e4ecaf63fb","status":"active","beneficiary":{"reference":"Patient/f02a4a69-6e70-465f-a3f8-9e9c369d72c3"},"period":{"start":"1975-01-02T08:00:00+00:00"},"payor":[{"reference":"Organization/db141f66-a1cc-407b-9e95-adac27adee14"}]},"request":{"method":"PUT","url":"Coverage/9ff8428e-e4ec-46fd-9049-b8e4ecaf63fb"}},{"fullUrl":"https://madie.cms.gov/Condition/20e2a7b3-6ad1-4500-b571-bc78a3767f4e","resource":{"resourceType":"Condition","id":"20e2a7b3-6ad1-4500-b571-bc78a3767f4e","meta":{"profile":["http://hl7.org/fhir/us/qicore/StructureDefinition/qicore-condition"]},"category":[{"coding":[{"system":"http://terminology.hl7.org/CodeSystem/condition-category","code":"encounter-diagnosis","display":"Encounter Diagnosis"}]}],"code":{"coding":[{"system":"http://snomed.info/sct","version":"2025-03","code":"1001000119102","display":"Pulmonary embolism with pulmonary infarction (disorder)","userSelected":true}]},"subject":{"reference":"Patient/f02a4a69-6e70-465f-a3f8-9e9c369d72c3"},"recordedDate":"2026-07-13T08:00:00.000+00:00"},"request":{"method":"PUT","url":"Condition/20e2a7b3-6ad1-4500-b571-bc78a3767f4e"}},{"fullUrl":"https://madie.cms.gov/Organization/94a4e7e1-227e-47c5-a62c-d7a8edee7dc6","resource":{"resourceType":"Organization","id":"db141f66-a1cc-407b-9e95-adac27adee14","meta":{"profile":["http://hl7.org/fhir/us/qicore/StructureDefinition/qicore-organization"]},"identifier":[{"use":"temp","system":"urn:oid:2.16.840.1.113883.4.4","value":"21-3259825"}],"active":true,"type":[{"coding":[{"system":"http://terminology.hl7.org/CodeSystem/organization-type","code":"pay","display":"Payer"}]}],"name":"Blue Cross Blue Shield of Texas","telecom":[{"system":"phone","value":"(+1) 972-766-6900"}],"address":[{"use":"billing","type":"postal","line":["P.O. Box 660044"],"city":"Dallas","state":"TX","postalCode":"75266-0044","country":"USA"}]},"request":{"method":"PUT","url":"Organization/db141f66-a1cc-407b-9e95-adac27adee14"}},{"fullUrl":"https://madie.cms.gov/Practitioner/51edbf60-1e16-421a-8d17-947bd506026a","resource":{"resourceType":"Practitioner","id":"51edbf60-1e16-421a-8d17-947bd506026a","identifier":[{"system":"http://hl7.org/fhir/sid/us-npi","value":"123456"}],"name":[{"family":"Evil","prefix":["Dr"]}]},"request":{"method":"PUT","url":"Practitioner/51edbf60-1e16-421a-8d17-947bd506026a"}},{"fullUrl":"https://madie.cms.gov/MeasureReport/e8485bbe-c418-497b-8063-c1bd62528dcf","resource":{"resourceType":"MeasureReport","id":"e8485bbe-c418-497b-8063-c1bd62528dcf","meta":{"profile":["http://hl7.org/fhir/us/cqfmeasures/StructureDefinition/test-case-cqfm"]},"contained":[{"resourceType":"Parameters","id":"ffb0f4ec-1845-4222-9f07-dd1d530c7201-parameters","parameter":[{"name":"subject","valueString":"f02a4a69-6e70-465f-a3f8-9e9c369d72c3"}]}],"extension":[{"url":"http://hl7.org/fhir/us/cqfmeasures/StructureDefinition/cqfm-inputParameters","valueReference":{"reference":"#ffb0f4ec-1845-4222-9f07-dd1d530c7201-parameters"}},{"url":"http://hl7.org/fhir/us/cqfmeasures/StructureDefinition/cqfm-testCaseDescription","valueMarkdown":"comfort measures order = 0 day after start of IP encounter\n"}],"modifierExtension":[{"url":"http://hl7.org/fhir/us/cqfmeasures/StructureDefinition/cqfm-isTestCase","valueBoolean":true}],"status":"complete","type":"individual","measure":"https://madie.cms.gov/Measure/CMS108VTEProphylaxisFHIR","period":{"start":"2026-01-01","end":"2026-12-31"},"group":[{"population":[{"code":{"coding":[{"system":"http://terminology.hl7.org/CodeSystem/measure-population","code":"initial-population","display":"Initial Population"}]},"count":1},{"code":{"coding":[{"system":"http://terminology.hl7.org/CodeSystem/measure-population","code":"denominator","display":"Denominator"}]},"count":1},{"code":{"coding":[{"system":"http://terminology.hl7.org/CodeSystem/measure-population","code":"denominator-exclusion","display":"Denominator Exclusion"}]},"count":1},{"code":{"coding":[{"system":"http://terminology.hl7.org/CodeSystem/measure-population","code":"numerator","display":"Numerator"}]},"count":0}]}]},"request":{"method":"PUT","url":"MeasureReport/e8485bbe-c418-497b-8063-c1bd62528dcf"}}]}