{"resourceType":"Bundle","id":"tests-6ce8d015-efcf-4c8e-a715-cc7c460e3ba8-bundle","type":"transaction","entry":[{"fullUrl":"https://madie.cms.gov/Patient/6ce8d015-efcf-4c8e-a715-cc7c460e3ba8","resource":{"resourceType":"Patient","id":"6ce8d015-efcf-4c8e-a715-cc7c460e3ba8","meta":{"profile":["http://hl7.org/fhir/us/qicore/StructureDefinition/qicore-patient"]},"text":{"status":"generated","div":"<div xmlns=\"http://www.w3.org/1999/xhtml\"><div class=\"hapiHeaderText\">MA_Glyco_1DayAFIPEnc <b>NUMERPASS </b></div><table class=\"hapiPropertyTable\"><tbody><tr><td>Identifier</td><td>c2e8bf5527b837484be3c34ba714a74a</td></tr><tr><td>Date of birth</td><td><span>02 January 1974</span></td></tr></tbody></table></div>"},"extension":[{"url":"http://hl7.org/fhir/us/core/StructureDefinition/us-core-race","extension":[{"url":"ombCategory","valueCoding":{"system":"urn:oid:2.16.840.1.113883.6.238","code":"1002-5","display":"American Indian or Alaska Native","userSelected":true}},{"url":"text","valueString":"American Indian or Alaska Native"}]},{"url":"http://hl7.org/fhir/us/core/StructureDefinition/us-core-ethnicity","extension":[{"url":"ombCategory","valueCoding":{"system":"urn:oid:2.16.840.1.113883.6.238","code":"2135-2","display":"Hispanic or Latino","userSelected":true}},{"url":"text","valueString":"Hispanic or Latino"}]}],"identifier":[{"type":{"coding":[{"system":"http://terminology.hl7.org/CodeSystem/v2-0203","code":"MR"}]},"system":"https://bonnie-fhir.healthit.gov/","value":"612e6ad802c62a011f2eb6db"}],"active":true,"name":[{"use":"usual","family":"NUMERPass","given":["MA_Glyco_1DayAFIPEnc"]}],"gender":"male","birthDate":"1975-01-02"},"request":{"method":"PUT","url":"Patient/6ce8d015-efcf-4c8e-a715-cc7c460e3ba8"}},{"fullUrl":"https://madie.cms.gov/Encounter/25e73b82-c833-4c89-9213-57b20d8ab16e","resource":{"resourceType":"Encounter","id":"25e73b82-c833-4c89-9213-57b20d8ab16e","meta":{"profile":["http://hl7.org/fhir/us/qicore/StructureDefinition/qicore-encounter"]},"status":"finished","class":{"system":"http://terminology.hl7.org/CodeSystem/v3-ActCode","code":"IMP","display":"inpatient encounter"},"type":[{"coding":[{"system":"http://snomed.info/sct","code":"8715000"}]}],"subject":{"reference":"Patient/6ce8d015-efcf-4c8e-a715-cc7c460e3ba8"},"period":{"start":"2026-11-01T08:00:00+00:00","end":"2026-11-26T08:15:00+00:00"},"length":{"value":25.0,"unit":"days"}},"request":{"method":"PUT","url":"Encounter/25e73b82-c833-4c89-9213-57b20d8ab16e"}},{"fullUrl":"https://madie.cms.gov/Coverage/7471ed73-078c-49dc-8151-85520115075d","resource":{"resourceType":"Coverage","id":"7471ed73-078c-49dc-8151-85520115075d","status":"active","beneficiary":{"reference":"Patient/6ce8d015-efcf-4c8e-a715-cc7c460e3ba8"},"period":{"start":"1975-01-02T08:00:00+00:00"},"payor":[{"reference":"Organization/db141f66-a1cc-407b-9e95-adac27adee14"}]},"request":{"method":"PUT","url":"Coverage/7471ed73-078c-49dc-8151-85520115075d"}},{"fullUrl":"https://madie.cms.gov/MedicationAdministration/c17e5b93-132f-4637-ac6a-908dba259ada","resource":{"resourceType":"MedicationAdministration","id":"c17e5b93-132f-4637-ac6a-908dba259ada","meta":{"profile":["http://hl7.org/fhir/us/qicore/StructureDefinition/qicore-medicationadministration"]},"status":"completed","medicationCodeableConcept":{"coding":[{"system":"http://www.nlm.nih.gov/research/umls/rxnorm","code":"200349"}]},"subject":{"reference":"Patient/6ce8d015-efcf-4c8e-a715-cc7c460e3ba8"},"effectivePeriod":{"start":"2026-11-02T09:00:00+00:00","end":"2026-11-02T09:10:00+00:00"}},"request":{"method":"PUT","url":"MedicationAdministration/c17e5b93-132f-4637-ac6a-908dba259ada"}},{"fullUrl":"https://madie.cms.gov/Organization/e6781df4-2cde-4c9a-9330-bcd299419694","resource":{"resourceType":"Organization","id":"db141f66-a1cc-407b-9e95-adac27adee14","meta":{"profile":["http://hl7.org/fhir/us/qicore/StructureDefinition/qicore-organization"]},"identifier":[{"use":"temp","system":"urn:oid:2.16.840.1.113883.4.4","value":"21-3259825"}],"active":true,"type":[{"coding":[{"system":"http://terminology.hl7.org/CodeSystem/organization-type","code":"pay","display":"Payer"}]}],"name":"Blue Cross Blue Shield of Texas","telecom":[{"system":"phone","value":"(+1) 972-766-6900"}],"address":[{"use":"billing","type":"postal","line":["P.O. Box 660044"],"city":"Dallas","state":"TX","postalCode":"75266-0044","country":"USA"}]},"request":{"method":"PUT","url":"Organization/db141f66-a1cc-407b-9e95-adac27adee14"}},{"fullUrl":"https://madie.cms.gov/Practitioner/93012614-b347-4770-b077-0346dff1ddb3","resource":{"resourceType":"Practitioner","id":"93012614-b347-4770-b077-0346dff1ddb3","identifier":[{"system":"http://hl7.org/fhir/sid/us-npi","value":"123456"}],"name":[{"family":"Evil","prefix":["Dr"]}]},"request":{"method":"PUT","url":"Practitioner/93012614-b347-4770-b077-0346dff1ddb3"}},{"fullUrl":"https://madie.cms.gov/MeasureReport/af523f12-53f3-486f-82bd-c915b0f3773d","resource":{"resourceType":"MeasureReport","id":"af523f12-53f3-486f-82bd-c915b0f3773d","meta":{"profile":["http://hl7.org/fhir/us/cqfmeasures/StructureDefinition/test-case-cqfm"]},"contained":[{"resourceType":"Parameters","id":"877df9b8-99a4-4e2e-b549-6ec5d19e11a3-parameters","parameter":[{"name":"subject","valueString":"6ce8d015-efcf-4c8e-a715-cc7c460e3ba8"}]}],"extension":[{"url":"http://hl7.org/fhir/us/cqfmeasures/StructureDefinition/cqfm-inputParameters","valueReference":{"reference":"#877df9b8-99a4-4e2e-b549-6ec5d19e11a3-parameters"}},{"url":"http://hl7.org/fhir/us/cqfmeasures/StructureDefinition/cqfm-testCaseDescription","valueMarkdown":"glycoprotein IIb/IIIa inhibitor = 1 day after start of IP encounter\n"}],"modifierExtension":[{"url":"http://hl7.org/fhir/us/cqfmeasures/StructureDefinition/cqfm-isTestCase","valueBoolean":true}],"status":"complete","type":"individual","measure":"https://madie.cms.gov/Measure/CMS108VTEProphylaxisFHIR","period":{"start":"2026-01-01","end":"2026-12-31"},"group":[{"population":[{"code":{"coding":[{"system":"http://terminology.hl7.org/CodeSystem/measure-population","code":"initial-population","display":"Initial Population"}]},"count":1},{"code":{"coding":[{"system":"http://terminology.hl7.org/CodeSystem/measure-population","code":"denominator","display":"Denominator"}]},"count":1},{"code":{"coding":[{"system":"http://terminology.hl7.org/CodeSystem/measure-population","code":"denominator-exclusion","display":"Denominator Exclusion"}]},"count":0},{"code":{"coding":[{"system":"http://terminology.hl7.org/CodeSystem/measure-population","code":"numerator","display":"Numerator"}]},"count":1}]}]},"request":{"method":"PUT","url":"MeasureReport/af523f12-53f3-486f-82bd-c915b0f3773d"}}]}