{"resourceType":"Bundle","id":"tests-54851bea-ea21-497a-ad7d-fc9819a6a1c8-bundle","type":"transaction","entry":[{"fullUrl":"https://madie.cms.gov/Patient/54851bea-ea21-497a-ad7d-fc9819a6a1c8","resource":{"resourceType":"Patient","id":"54851bea-ea21-497a-ad7d-fc9819a6a1c8","meta":{"profile":["http://hl7.org/fhir/us/qicore/StructureDefinition/qicore-patient"]},"text":{"status":"generated","div":"<div xmlns=\"http://www.w3.org/1999/xhtml\"><div class=\"hapiHeaderText\">MedRsnMOInjXaDOIPCOnAnesEndTime <b>NUMERPASS </b></div><table class=\"hapiPropertyTable\"><tbody><tr><td>Identifier</td><td>d807935b54e02b33e4279bc51c4ec66c</td></tr><tr><td>Date of birth</td><td><span>02 January 1974</span></td></tr></tbody></table></div>"},"extension":[{"url":"http://hl7.org/fhir/us/core/StructureDefinition/us-core-race","extension":[{"url":"ombCategory","valueCoding":{"system":"urn:oid:2.16.840.1.113883.6.238","code":"1002-5","display":"American Indian or Alaska Native","userSelected":true}},{"url":"text","valueString":"American Indian or Alaska Native"}]},{"url":"http://hl7.org/fhir/us/core/StructureDefinition/us-core-ethnicity","extension":[{"url":"ombCategory","valueCoding":{"system":"urn:oid:2.16.840.1.113883.6.238","code":"2135-2","display":"Hispanic or Latino","userSelected":true}},{"url":"text","valueString":"Hispanic or Latino"}]}],"identifier":[{"type":{"coding":[{"system":"http://terminology.hl7.org/CodeSystem/v2-0203","code":"MR"}]},"system":"https://bonnie-fhir.healthit.gov/","value":"612e6ad002c62a011f2eb4ec"}],"active":true,"name":[{"use":"usual","family":"NUMERPass","given":["MedRsnMOInjXaDOIPCOnAnesEndTime"]}],"gender":"male","birthDate":"1975-01-02"},"request":{"method":"PUT","url":"Patient/54851bea-ea21-497a-ad7d-fc9819a6a1c8"}},{"fullUrl":"https://madie.cms.gov/Encounter/c4864757-319a-4d0d-85af-3b87a02420c5","resource":{"resourceType":"Encounter","id":"c4864757-319a-4d0d-85af-3b87a02420c5","meta":{"profile":["http://hl7.org/fhir/us/qicore/StructureDefinition/qicore-encounter"]},"status":"finished","class":{"system":"http://terminology.hl7.org/CodeSystem/v3-ActCode","code":"IMP","display":"inpatient encounter"},"type":[{"coding":[{"system":"http://snomed.info/sct","code":"8715000"}]}],"subject":{"reference":"Patient/54851bea-ea21-497a-ad7d-fc9819a6a1c8"},"period":{"start":"2026-11-01T08:00:00+00:00","end":"2026-11-26T08:15:00+00:00"},"length":{"value":25.0,"unit":"days"}},"request":{"method":"PUT","url":"Encounter/c4864757-319a-4d0d-85af-3b87a02420c5"}},{"fullUrl":"https://madie.cms.gov/Coverage/a3334890-6c55-4365-9fbd-d08861f112dc","resource":{"resourceType":"Coverage","id":"a3334890-6c55-4365-9fbd-d08861f112dc","status":"active","beneficiary":{"reference":"Patient/54851bea-ea21-497a-ad7d-fc9819a6a1c8"},"period":{"start":"1975-01-02T08:00:00+00:00"},"payor":[{"reference":"Organization/3e899f33-84eb-4634-a770-a5a0bd7a80e7"}]},"request":{"method":"PUT","url":"Coverage/a3334890-6c55-4365-9fbd-d08861f112dc"}},{"fullUrl":"https://madie.cms.gov/ServiceRequest/0dbd1592-5b71-4413-8caf-c695ef7ddd02","resource":{"resourceType":"ServiceRequest","id":"0dbd1592-5b71-4413-8caf-c695ef7ddd02","meta":{"profile":["http://hl7.org/fhir/us/qicore/StructureDefinition/qicore-servicenotrequested"]},"extension":[{"url":"http://hl7.org/fhir/us/qicore/StructureDefinition/qicore-doNotPerformReason","valueCodeableConcept":{"coding":[{"system":"http://snomed.info/sct","code":"183932001","display":"Procedure contraindicated (situation)"}]}}],"status":"completed","intent":"order","doNotPerform":true,"code":{"coding":[{"system":"http://snomed.info/sct","code":"432441000124100","display":"Intermittent pneumatic compression device (physical object)","userSelected":true}]},"subject":{"reference":"Patient/54851bea-ea21-497a-ad7d-fc9819a6a1c8"},"authoredOn":"2026-11-02T09:15:00+00:00"},"request":{"method":"PUT","url":"ServiceRequest/0dbd1592-5b71-4413-8caf-c695ef7ddd02"}},{"fullUrl":"https://madie.cms.gov/MedicationRequest/e8066ee8-210d-4f2f-97f2-aee4f27b5b84","resource":{"resourceType":"MedicationRequest","id":"e8066ee8-210d-4f2f-97f2-aee4f27b5b84","meta":{"profile":["http://hl7.org/fhir/us/qicore/StructureDefinition/qicore-mednotrequested"]},"status":"completed","intent":"order","category":[{"coding":[{"system":"http://terminology.hl7.org/CodeSystem/medicationrequest-category","code":"community"}]}],"doNotPerform":true,"medicationCodeableConcept":{"coding":[{"system":"http://www.nlm.nih.gov/research/umls/rxnorm","code":"861363"}]},"subject":{"reference":"Patient/54851bea-ea21-497a-ad7d-fc9819a6a1c8"},"authoredOn":"2026-11-02T09:15:00+00:00","requester":{"reference":"Practitioner/123456"},"reasonCode":[{"coding":[{"system":"http://snomed.info/sct","code":"183932001","display":"Procedure contraindicated (situation)","userSelected":true}]}],"dosageInstruction":[{"timing":{"repeat":{"boundsPeriod":{"start":"2026-11-03T09:00:00+00:00"}}}}]},"request":{"method":"PUT","url":"MedicationRequest/e8066ee8-210d-4f2f-97f2-aee4f27b5b84"}},{"fullUrl":"https://madie.cms.gov/Procedure/55dd961f-db9d-40c8-abbe-e42ca8980624","resource":{"resourceType":"Procedure","id":"55dd961f-db9d-40c8-abbe-e42ca8980624","status":"completed","code":{"coding":[{"system":"http://snomed.info/sct","code":"18946005"}]},"subject":{"reference":"Patient/54851bea-ea21-497a-ad7d-fc9819a6a1c8"},"performedPeriod":{"start":"2026-11-02T09:00:00+00:00","end":"2026-11-02T09:15:00+00:00"}},"request":{"method":"PUT","url":"Procedure/55dd961f-db9d-40c8-abbe-e42ca8980624"}},{"fullUrl":"https://madie.cms.gov/Organization/2921f341-290b-43a1-bf50-121f080aed0c","resource":{"resourceType":"Organization","id":"3e899f33-84eb-4634-a770-a5a0bd7a80e7","meta":{"profile":["http://hl7.org/fhir/us/qicore/StructureDefinition/qicore-organization"]},"identifier":[{"use":"temp","system":"urn:oid:2.16.840.1.113883.4.4","value":"21-3259825"}],"active":true,"type":[{"coding":[{"system":"http://terminology.hl7.org/CodeSystem/organization-type","code":"pay","display":"Payer"}]}],"name":"Blue Cross Blue Shield of Texas","telecom":[{"system":"phone","value":"(+1) 972-766-6900"}],"address":[{"use":"billing","type":"postal","line":["P.O. Box 660044"],"city":"Dallas","state":"TX","postalCode":"75266-0044","country":"USA"}]},"request":{"method":"PUT","url":"Organization/3e899f33-84eb-4634-a770-a5a0bd7a80e7"}},{"fullUrl":"https://madie.cms.gov/Practitioner/afcc5f69-ade9-44be-8e5c-b9db0be2ed88","resource":{"resourceType":"Practitioner","id":"afcc5f69-ade9-44be-8e5c-b9db0be2ed88","identifier":[{"system":"http://hl7.org/fhir/sid/us-npi","value":"123456"}],"name":[{"family":"Evil","prefix":["Dr"]}]},"request":{"method":"PUT","url":"Practitioner/afcc5f69-ade9-44be-8e5c-b9db0be2ed88"}},{"fullUrl":"https://madie.cms.gov/MeasureReport/1bdf71e2-f78e-465d-ad15-3b8f6e6ba83b","resource":{"resourceType":"MeasureReport","id":"1bdf71e2-f78e-465d-ad15-3b8f6e6ba83b","meta":{"profile":["http://hl7.org/fhir/us/cqfmeasures/StructureDefinition/test-case-cqfm"]},"contained":[{"resourceType":"Parameters","id":"27f86dac-0ce7-4589-a21f-98a86347f9f2-parameters","parameter":[{"name":"subject","valueString":"54851bea-ea21-497a-ad7d-fc9819a6a1c8"}]}],"extension":[{"url":"http://hl7.org/fhir/us/cqfmeasures/StructureDefinition/cqfm-inputParameters","valueReference":{"reference":"#27f86dac-0ce7-4589-a21f-98a86347f9f2-parameters"}},{"url":"http://hl7.org/fhir/us/cqfmeasures/StructureDefinition/cqfm-testCaseDescription","valueMarkdown":"injectable factor Xa and IPC not ordered due to medical reason OnAnesEndTime\n"}],"modifierExtension":[{"url":"http://hl7.org/fhir/us/cqfmeasures/StructureDefinition/cqfm-isTestCase","valueBoolean":true}],"status":"complete","type":"individual","measure":"https://madie.cms.gov/Measure/CMS108VTEProphylaxisFHIR","period":{"start":"2026-01-01","end":"2026-12-31"},"group":[{"population":[{"code":{"coding":[{"system":"http://terminology.hl7.org/CodeSystem/measure-population","code":"initial-population","display":"Initial Population"}]},"count":1},{"code":{"coding":[{"system":"http://terminology.hl7.org/CodeSystem/measure-population","code":"denominator","display":"Denominator"}]},"count":1},{"code":{"coding":[{"system":"http://terminology.hl7.org/CodeSystem/measure-population","code":"denominator-exclusion","display":"Denominator Exclusion"}]},"count":0},{"code":{"coding":[{"system":"http://terminology.hl7.org/CodeSystem/measure-population","code":"numerator","display":"Numerator"}]},"count":1}]}]},"request":{"method":"PUT","url":"MeasureReport/1bdf71e2-f78e-465d-ad15-3b8f6e6ba83b"}}]}