{"resourceType":"Bundle","id":"tests-900f47c2-3615-4ffe-a9e0-3e7e70469ffb-bundle","type":"transaction","entry":[{"fullUrl":"https://madie.cms.gov/Patient/900f47c2-3615-4ffe-a9e0-3e7e70469ffb","resource":{"resourceType":"Patient","id":"900f47c2-3615-4ffe-a9e0-3e7e70469ffb","meta":{"profile":["http://hl7.org/fhir/us/qicore/StructureDefinition/qicore-patient"]},"text":{"status":"generated","div":"<div xmlns=\"http://www.w3.org/1999/xhtml\"><div class=\"hapiHeaderText\">CMPerf_DuringED_EDendsOnEncStartTime <b>DENEXPASS </b></div><table class=\"hapiPropertyTable\"><tbody><tr><td>Identifier</td><td>8bdaf10da95f851378bfb130016c2122</td></tr><tr><td>Date of birth</td><td><span>02 January 1974</span></td></tr></tbody></table></div>"},"extension":[{"url":"http://hl7.org/fhir/us/core/StructureDefinition/us-core-race","extension":[{"url":"ombCategory","valueCoding":{"system":"urn:oid:2.16.840.1.113883.6.238","code":"1002-5","display":"American Indian or Alaska Native","userSelected":true}},{"url":"text","valueString":"American Indian or Alaska Native"}]},{"url":"http://hl7.org/fhir/us/core/StructureDefinition/us-core-ethnicity","extension":[{"url":"ombCategory","valueCoding":{"system":"urn:oid:2.16.840.1.113883.6.238","code":"2135-2","display":"Hispanic or Latino","userSelected":true}},{"url":"text","valueString":"Hispanic or Latino"}]}],"identifier":[{"type":{"coding":[{"system":"http://terminology.hl7.org/CodeSystem/v2-0203","code":"MR"}]},"system":"https://bonnie-fhir.healthit.gov/","value":"612e6ac002c62a011f2eb21c"}],"active":true,"name":[{"use":"usual","family":"DENEXPass","given":["CMPerf_DuringED_EDendsOnEncStartTime"]}],"gender":"male","birthDate":"1975-01-02"},"request":{"method":"PUT","url":"Patient/900f47c2-3615-4ffe-a9e0-3e7e70469ffb"}},{"fullUrl":"https://madie.cms.gov/Encounter/b0131bb0-2173-4727-9acb-bcf929f9d82a","resource":{"resourceType":"Encounter","id":"b0131bb0-2173-4727-9acb-bcf929f9d82a","meta":{"profile":["http://hl7.org/fhir/us/qicore/StructureDefinition/qicore-encounter"]},"status":"finished","class":{"system":"http://terminology.hl7.org/CodeSystem/v3-ActCode","code":"EMER","display":"emergency"},"type":[{"coding":[{"system":"http://snomed.info/sct","code":"4525004"}]}],"subject":{"reference":"Patient/900f47c2-3615-4ffe-a9e0-3e7e70469ffb"},"period":{"start":"2026-10-31T05:00:00+00:00","end":"2026-11-01T08:00:00+00:00"},"length":{"value":1.0,"unit":"days"}},"request":{"method":"PUT","url":"Encounter/b0131bb0-2173-4727-9acb-bcf929f9d82a"}},{"fullUrl":"https://madie.cms.gov/Encounter/22fc46bb-da08-448f-82c6-4e4a76ed1aa7","resource":{"resourceType":"Encounter","id":"22fc46bb-da08-448f-82c6-4e4a76ed1aa7","meta":{"profile":["http://hl7.org/fhir/us/qicore/StructureDefinition/qicore-encounter"]},"status":"finished","class":{"system":"http://terminology.hl7.org/CodeSystem/v3-ActCode","code":"IMP","display":"inpatient encounter"},"type":[{"coding":[{"system":"http://snomed.info/sct","code":"8715000"}]}],"subject":{"reference":"Patient/900f47c2-3615-4ffe-a9e0-3e7e70469ffb"},"period":{"start":"2026-11-01T08:00:00+00:00","end":"2026-11-26T08:15:00+00:00"},"length":{"value":25.0,"unit":"days"}},"request":{"method":"PUT","url":"Encounter/22fc46bb-da08-448f-82c6-4e4a76ed1aa7"}},{"fullUrl":"https://madie.cms.gov/Procedure/b64b8322-4b2a-49da-9345-11fc4e8aa2dd","resource":{"resourceType":"Procedure","id":"b64b8322-4b2a-49da-9345-11fc4e8aa2dd","meta":{"profile":["http://hl7.org/fhir/us/qicore/StructureDefinition/qicore-procedure"]},"extension":[{"url":"http://hl7.org/fhir/us/qicore/StructureDefinition/qicore-recorded","valueDateTime":"2013-11-01T09:35:00-04:00"}],"status":"completed","code":{"coding":[{"system":"http://snomed.info/sct","code":"133918004"}]},"subject":{"reference":"Patient/900f47c2-3615-4ffe-a9e0-3e7e70469ffb"},"performedPeriod":{"start":"2026-10-31T07:00:00+00:00"}},"request":{"method":"PUT","url":"Procedure/b64b8322-4b2a-49da-9345-11fc4e8aa2dd"}},{"fullUrl":"https://madie.cms.gov/Coverage/c835ba3b-56d8-4dc8-b4c6-d73d2b827733","resource":{"resourceType":"Coverage","id":"c835ba3b-56d8-4dc8-b4c6-d73d2b827733","status":"active","beneficiary":{"reference":"Patient/900f47c2-3615-4ffe-a9e0-3e7e70469ffb"},"period":{"start":"1975-01-02T08:00:00+00:00"},"payor":[{"reference":"Organization/db141f66-a1cc-407b-9e95-adac27adee14"}]},"request":{"method":"PUT","url":"Coverage/c835ba3b-56d8-4dc8-b4c6-d73d2b827733"}},{"fullUrl":"https://madie.cms.gov/Organization/8861767f-891c-44e5-8084-4582b80eec6b","resource":{"resourceType":"Organization","id":"db141f66-a1cc-407b-9e95-adac27adee14","meta":{"profile":["http://hl7.org/fhir/us/qicore/StructureDefinition/qicore-organization"]},"identifier":[{"use":"temp","system":"urn:oid:2.16.840.1.113883.4.4","value":"21-3259825"}],"active":true,"type":[{"coding":[{"system":"http://terminology.hl7.org/CodeSystem/organization-type","code":"pay","display":"Payer"}]}],"name":"Blue Cross Blue Shield of Texas","telecom":[{"system":"phone","value":"(+1) 972-766-6900"}],"address":[{"use":"billing","type":"postal","line":["P.O. Box 660044"],"city":"Dallas","state":"TX","postalCode":"75266-0044","country":"USA"}]},"request":{"method":"PUT","url":"Organization/db141f66-a1cc-407b-9e95-adac27adee14"}},{"fullUrl":"https://madie.cms.gov/Practitioner/3ebc3e92-8638-4fe1-8a1c-29b167aa3e91","resource":{"resourceType":"Practitioner","id":"3ebc3e92-8638-4fe1-8a1c-29b167aa3e91","identifier":[{"system":"http://hl7.org/fhir/sid/us-npi","value":"123456"}],"name":[{"family":"Evil","prefix":["Dr"]}]},"request":{"method":"PUT","url":"Practitioner/3ebc3e92-8638-4fe1-8a1c-29b167aa3e91"}},{"fullUrl":"https://madie.cms.gov/MeasureReport/46c9e732-21fb-49c7-9a54-e149f803020e","resource":{"resourceType":"MeasureReport","id":"46c9e732-21fb-49c7-9a54-e149f803020e","meta":{"profile":["http://hl7.org/fhir/us/cqfmeasures/StructureDefinition/test-case-cqfm"]},"contained":[{"resourceType":"Parameters","id":"73a7af35-0d86-40af-91e7-8f8777cea9dd-parameters","parameter":[{"name":"subject","valueString":"900f47c2-3615-4ffe-a9e0-3e7e70469ffb"}]}],"extension":[{"url":"http://hl7.org/fhir/us/cqfmeasures/StructureDefinition/cqfm-inputParameters","valueReference":{"reference":"#73a7af35-0d86-40af-91e7-8f8777cea9dd-parameters"}},{"url":"http://hl7.org/fhir/us/cqfmeasures/StructureDefinition/cqfm-testCaseDescription","valueMarkdown":"Comfort Measures Intervention Performed- during ED and ED end time is concurrent with EncInp start time.\n"}],"modifierExtension":[{"url":"http://hl7.org/fhir/us/cqfmeasures/StructureDefinition/cqfm-isTestCase","valueBoolean":true}],"status":"complete","type":"individual","measure":"https://madie.cms.gov/Measure/CMS108VTEProphylaxisFHIR","period":{"start":"2026-01-01","end":"2026-12-31"},"group":[{"population":[{"code":{"coding":[{"system":"http://terminology.hl7.org/CodeSystem/measure-population","code":"initial-population","display":"Initial Population"}]},"count":1},{"code":{"coding":[{"system":"http://terminology.hl7.org/CodeSystem/measure-population","code":"denominator","display":"Denominator"}]},"count":1},{"code":{"coding":[{"system":"http://terminology.hl7.org/CodeSystem/measure-population","code":"denominator-exclusion","display":"Denominator Exclusion"}]},"count":1},{"code":{"coding":[{"system":"http://terminology.hl7.org/CodeSystem/measure-population","code":"numerator","display":"Numerator"}]},"count":0}]}]},"request":{"method":"PUT","url":"MeasureReport/46c9e732-21fb-49c7-9a54-e149f803020e"}}]}