{"resourceType":"Bundle","id":"tests-d9b7ffa9-ed78-484c-8880-b4cbf2b4b6a1-bundle","type":"transaction","entry":[{"fullUrl":"https://madie.cms.gov/Patient/d9b7ffa9-ed78-484c-8880-b4cbf2b4b6a1","resource":{"resourceType":"Patient","id":"d9b7ffa9-ed78-484c-8880-b4cbf2b4b6a1","meta":{"profile":["http://hl7.org/fhir/us/qicore/StructureDefinition/qicore-patient"]},"text":{"status":"generated","div":"<div xmlns=\"http://www.w3.org/1999/xhtml\"><div class=\"hapiHeaderText\">DxVTEClinicalStatusResolved<b>NUMERPASS </b></div><table class=\"hapiPropertyTable\"><tbody><tr><td>Identifier</td><td>53ba7bfa81859444ffcb221a690f5daf</td></tr><tr><td>Date of birth</td><td><span>02 January 1974</span></td></tr></tbody></table></div>"},"extension":[{"url":"http://hl7.org/fhir/us/core/StructureDefinition/us-core-race","extension":[{"url":"ombCategory","valueCoding":{"system":"urn:oid:2.16.840.1.113883.6.238","code":"1002-5","display":"American Indian or Alaska Native","userSelected":true}},{"url":"text","valueString":"American Indian or Alaska Native"}]},{"url":"http://hl7.org/fhir/us/core/StructureDefinition/us-core-ethnicity","extension":[{"url":"ombCategory","valueCoding":{"system":"urn:oid:2.16.840.1.113883.6.238","code":"2135-2","display":"Hispanic or Latino","userSelected":true}},{"url":"text","valueString":"Hispanic or Latino"}]}],"identifier":[{"type":{"coding":[{"system":"http://terminology.hl7.org/CodeSystem/v2-0203","code":"MR"}]},"system":"https://bonnie-fhir.healthit.gov/","value":"612e6b5702c62a011f2ed65d"}],"active":true,"name":[{"use":"usual","family":"NUMERPass","given":["DxVTEClinicalStatusResolved"]}],"gender":"male","birthDate":"1975-01-02"},"request":{"method":"PUT","url":"Patient/d9b7ffa9-ed78-484c-8880-b4cbf2b4b6a1"}},{"fullUrl":"https://madie.cms.gov/Encounter/cde53fab-1cfd-4bf0-9769-e725af79a874","resource":{"resourceType":"Encounter","id":"cde53fab-1cfd-4bf0-9769-e725af79a874","meta":{"profile":["http://hl7.org/fhir/us/qicore/StructureDefinition/qicore-encounter"]},"status":"finished","class":{"system":"http://terminology.hl7.org/CodeSystem/v3-ActCode","code":"IMP","display":"inpatient encounter"},"type":[{"coding":[{"system":"http://snomed.info/sct","code":"8715000"}]}],"subject":{"reference":"Patient/d9b7ffa9-ed78-484c-8880-b4cbf2b4b6a1"},"period":{"start":"2026-11-01T08:00:00+00:00","end":"2026-11-26T08:15:00+00:00"},"length":{"value":25.0,"unit":"days"}},"request":{"method":"PUT","url":"Encounter/cde53fab-1cfd-4bf0-9769-e725af79a874"}},{"fullUrl":"https://madie.cms.gov/Coverage/e323833b-1517-4960-9ef3-0fad334c0d47","resource":{"resourceType":"Coverage","id":"e323833b-1517-4960-9ef3-0fad334c0d47","status":"active","beneficiary":{"reference":"Patient/d9b7ffa9-ed78-484c-8880-b4cbf2b4b6a1"},"period":{"start":"1975-01-02T08:00:00+00:00"},"payor":[{"reference":"Organization/db141f66-a1cc-407b-9e95-adac27adee14"}]},"request":{"method":"PUT","url":"Coverage/e323833b-1517-4960-9ef3-0fad334c0d47"}},{"fullUrl":"https://madie.cms.gov/Condition/a6f8184b-3a3e-48e9-8e9c-45c449bc291e","resource":{"resourceType":"Condition","id":"a6f8184b-3a3e-48e9-8e9c-45c449bc291e","meta":{"profile":["http://hl7.org/fhir/us/qicore/StructureDefinition/qicore-condition"]},"clinicalStatus":{"coding":[{"system":"http://terminology.hl7.org/CodeSystem/condition-clinical","code":"resolved","display":"resolved","userSelected":true}]},"verificationStatus":{"coding":[{"system":"http://terminology.hl7.org/CodeSystem/condition-ver-status","code":"confirmed","display":"confirmed","userSelected":true}]},"category":[{"coding":[{"system":"http://terminology.hl7.org/CodeSystem/condition-category","code":"problem-list-item","display":"Problem List Item"}]}],"code":{"coding":[{"system":"http://snomed.info/sct","code":"1001000119102","display":"Pulmonary embolism with pulmonary"}]},"subject":{"reference":"Patient/d9b7ffa9-ed78-484c-8880-b4cbf2b4b6a1"},"onsetPeriod":{"start":"2026-10-09T08:00:00+00:00","end":"2026-10-09T08:15:00+00:00"}},"request":{"method":"PUT","url":"Condition/a6f8184b-3a3e-48e9-8e9c-45c449bc291e"}},{"fullUrl":"https://madie.cms.gov/MedicationAdministration/e678b876-42b2-49f5-a67e-9dd3d38d5bdf","resource":{"resourceType":"MedicationAdministration","id":"e678b876-42b2-49f5-a67e-9dd3d38d5bdf","meta":{"profile":["http://hl7.org/fhir/us/qicore/StructureDefinition/qicore-medicationadministration"]},"status":"completed","medicationCodeableConcept":{"coding":[{"system":"http://www.nlm.nih.gov/research/umls/rxnorm","code":"1599543","display":"edoxaban 15 MG Oral Tablet"}]},"subject":{"reference":"Patient/d9b7ffa9-ed78-484c-8880-b4cbf2b4b6a1"},"effectivePeriod":{"start":"2026-11-01T11:00:00+00:00","end":"2026-11-01T11:05:00+00:00"}},"request":{"method":"PUT","url":"MedicationAdministration/e678b876-42b2-49f5-a67e-9dd3d38d5bdf"}},{"fullUrl":"https://madie.cms.gov/Organization/8be5354f-401d-44e2-b04f-fa02b55ca9f0","resource":{"resourceType":"Organization","id":"db141f66-a1cc-407b-9e95-adac27adee14","meta":{"profile":["http://hl7.org/fhir/us/qicore/StructureDefinition/qicore-organization"]},"identifier":[{"use":"temp","system":"urn:oid:2.16.840.1.113883.4.4","value":"21-3259825"}],"active":true,"type":[{"coding":[{"system":"http://terminology.hl7.org/CodeSystem/organization-type","code":"pay","display":"Payer"}]}],"name":"Blue Cross Blue Shield of Texas","telecom":[{"system":"phone","value":"(+1) 972-766-6900"}],"address":[{"use":"billing","type":"postal","line":["P.O. Box 660044"],"city":"Dallas","state":"TX","postalCode":"75266-0044","country":"USA"}]},"request":{"method":"PUT","url":"Organization/db141f66-a1cc-407b-9e95-adac27adee14"}},{"fullUrl":"https://madie.cms.gov/MeasureReport/538f02db-3914-40f0-84f3-abc691c75d86","resource":{"resourceType":"MeasureReport","id":"538f02db-3914-40f0-84f3-abc691c75d86","meta":{"profile":["http://hl7.org/fhir/us/cqfmeasures/StructureDefinition/test-case-cqfm"]},"contained":[{"resourceType":"Parameters","id":"41812c67-a29d-4f3e-8c22-cb27973fa060-parameters","parameter":[{"name":"subject","valueString":"d9b7ffa9-ed78-484c-8880-b4cbf2b4b6a1"}]}],"extension":[{"url":"http://hl7.org/fhir/us/cqfmeasures/StructureDefinition/cqfm-inputParameters","valueReference":{"reference":"#41812c67-a29d-4f3e-8c22-cb27973fa060-parameters"}},{"url":"http://hl7.org/fhir/us/cqfmeasures/StructureDefinition/cqfm-testCaseDescription","valueMarkdown":"To test and cover Condition. clinicalStatus  in resolved >18, LOS<120 day. Medication, Administered: Oral Factor Xa Inhibitor for VTE Prophylaxis with diagnosis of  VTE starts before the encounter."}],"modifierExtension":[{"url":"http://hl7.org/fhir/us/cqfmeasures/StructureDefinition/cqfm-isTestCase","valueBoolean":true}],"status":"complete","type":"individual","measure":"https://madie.cms.gov/Measure/CMS108VTEProphylaxisFHIR","period":{"start":"2026-01-01","end":"2026-12-31"},"group":[{"population":[{"code":{"coding":[{"system":"http://terminology.hl7.org/CodeSystem/measure-population","code":"initial-population","display":"Initial Population"}]},"count":1},{"code":{"coding":[{"system":"http://terminology.hl7.org/CodeSystem/measure-population","code":"denominator","display":"Denominator"}]},"count":1},{"code":{"coding":[{"system":"http://terminology.hl7.org/CodeSystem/measure-population","code":"denominator-exclusion","display":"Denominator Exclusion"}]},"count":0},{"code":{"coding":[{"system":"http://terminology.hl7.org/CodeSystem/measure-population","code":"numerator","display":"Numerator"}]},"count":1}]}]},"request":{"method":"PUT","url":"MeasureReport/538f02db-3914-40f0-84f3-abc691c75d86"}}]}