{"resourceType":"Bundle","id":"tests-1701c7fe-de21-4bb9-8404-92cb1ef4e638-bundle","type":"transaction","entry":[{"fullUrl":"https://madie.cms.gov/Patient/1701c7fe-de21-4bb9-8404-92cb1ef4e638","resource":{"resourceType":"Patient","id":"1701c7fe-de21-4bb9-8404-92cb1ef4e638","meta":{"profile":["http://hl7.org/fhir/us/qicore/StructureDefinition/qicore-patient"]},"text":{"status":"generated","div":"<div xmlns=\"http://www.w3.org/1999/xhtml\"><div class=\"hapiHeaderText\">PtRef_MO_Warf_EDendTimeEQEncStartTime <b>NUMERPASS </b></div><table class=\"hapiPropertyTable\"><tbody><tr><td>Identifier</td><td>35e854fe06e36e7e02449812c3316da3</td></tr><tr><td>Date of birth</td><td><span>02 January 1974</span></td></tr></tbody></table></div>"},"extension":[{"url":"http://hl7.org/fhir/us/core/StructureDefinition/us-core-race","extension":[{"url":"ombCategory","valueCoding":{"system":"urn:oid:2.16.840.1.113883.6.238","code":"1002-5","display":"American Indian or Alaska Native","userSelected":true}},{"url":"text","valueString":"American Indian or Alaska Native"}]},{"url":"http://hl7.org/fhir/us/core/StructureDefinition/us-core-ethnicity","extension":[{"url":"ombCategory","valueCoding":{"system":"urn:oid:2.16.840.1.113883.6.238","code":"2135-2","display":"Hispanic or Latino","userSelected":true}},{"url":"text","valueString":"Hispanic or Latino"}]}],"identifier":[{"type":{"coding":[{"system":"http://terminology.hl7.org/CodeSystem/v2-0203","code":"MR"}]},"system":"https://bonnie-fhir.healthit.gov/","value":"612e6b5002c62a011f2ed433"}],"active":true,"name":[{"use":"usual","family":"NUMERPass","given":["PtRef_MO_Warf_EDendTimeEQEncStartTime"]}],"gender":"male","birthDate":"1975-01-02"},"request":{"method":"PUT","url":"Patient/1701c7fe-de21-4bb9-8404-92cb1ef4e638"}},{"fullUrl":"https://madie.cms.gov/Encounter/7fe314f7-fb8b-4db0-9981-af9448c562ff","resource":{"resourceType":"Encounter","id":"7fe314f7-fb8b-4db0-9981-af9448c562ff","meta":{"profile":["http://hl7.org/fhir/us/qicore/StructureDefinition/qicore-encounter"]},"status":"finished","class":{"system":"http://terminology.hl7.org/CodeSystem/v3-ActCode","code":"EMER","display":"emergency"},"type":[{"coding":[{"system":"http://snomed.info/sct","code":"4525004"}]}],"subject":{"reference":"Patient/1701c7fe-de21-4bb9-8404-92cb1ef4e638"},"period":{"start":"2026-10-31T05:00:00+00:00","end":"2026-11-01T08:00:00+00:00"},"length":{"value":1,"unit":"days"}},"request":{"method":"PUT","url":"Encounter/7fe314f7-fb8b-4db0-9981-af9448c562ff"}},{"fullUrl":"https://madie.cms.gov/Encounter/eac3f770-6577-4ee9-9fbb-0f32baa7f415","resource":{"resourceType":"Encounter","id":"eac3f770-6577-4ee9-9fbb-0f32baa7f415","meta":{"profile":["http://hl7.org/fhir/us/qicore/StructureDefinition/qicore-encounter"]},"status":"finished","class":{"system":"http://terminology.hl7.org/CodeSystem/v3-ActCode","code":"IMP","display":"inpatient encounter"},"type":[{"coding":[{"system":"http://snomed.info/sct","code":"8715000"}]}],"subject":{"reference":"Patient/1701c7fe-de21-4bb9-8404-92cb1ef4e638"},"period":{"start":"2026-11-01T08:00:00+00:00","end":"2026-11-26T08:15:00+00:00"},"length":{"value":25,"unit":"days"}},"request":{"method":"PUT","url":"Encounter/eac3f770-6577-4ee9-9fbb-0f32baa7f415"}},{"fullUrl":"https://madie.cms.gov/Coverage/b79f796e-79b5-4520-b8f0-a55d7f558ed5","resource":{"resourceType":"Coverage","id":"b79f796e-79b5-4520-b8f0-a55d7f558ed5","status":"active","beneficiary":{"reference":"Patient/1701c7fe-de21-4bb9-8404-92cb1ef4e638"},"period":{"start":"1975-01-02T08:00:00+00:00"},"payor":[{"reference":"Organization/5ad6ea38-07e9-4482-9e1b-c09eee595be9"}]},"request":{"method":"PUT","url":"Coverage/b79f796e-79b5-4520-b8f0-a55d7f558ed5"}},{"fullUrl":"https://madie.cms.gov/MedicationRequest/7cbcfef8-5daf-4208-a579-c2f499b14b88","resource":{"resourceType":"MedicationRequest","id":"7cbcfef8-5daf-4208-a579-c2f499b14b88","meta":{"profile":["http://hl7.org/fhir/us/qicore/StructureDefinition/qicore-mednotrequested"]},"status":"completed","intent":"order","category":[{"coding":[{"system":"http://terminology.hl7.org/CodeSystem/medicationrequest-category","code":"community"}]}],"doNotPerform":true,"medicationCodeableConcept":{"coding":[{"system":"http://www.nlm.nih.gov/research/umls/rxnorm","code":"855288"}]},"subject":{"reference":"Patient/1701c7fe-de21-4bb9-8404-92cb1ef4e638"},"authoredOn":"2026-11-01T07:00:00+00:00","requester":{"reference":"Practitioner/123456"},"reasonCode":[{"coding":[{"system":"http://snomed.info/sct","code":"443390004","display":"Refusal of treatment by patient (situation)","userSelected":true}]}],"dosageInstruction":[{"timing":{"repeat":{"boundsPeriod":{"start":"2026-11-03T09:00:00+00:00"}}}}]},"request":{"method":"PUT","url":"MedicationRequest/7cbcfef8-5daf-4208-a579-c2f499b14b88"}},{"fullUrl":"https://madie.cms.gov/Organization/7c9b05d8-7072-4187-8b16-2f38febe6668","resource":{"resourceType":"Organization","id":"5ad6ea38-07e9-4482-9e1b-c09eee595be9","meta":{"profile":["http://hl7.org/fhir/us/qicore/StructureDefinition/qicore-organization"]},"identifier":[{"use":"temp","system":"urn:oid:2.16.840.1.113883.4.4","value":"21-3259825"}],"active":true,"type":[{"coding":[{"system":"http://terminology.hl7.org/CodeSystem/organization-type","code":"pay","display":"Payer"}]}],"name":"Blue Cross Blue Shield of Texas","telecom":[{"system":"phone","value":"(+1) 972-766-6900"}],"address":[{"use":"billing","type":"postal","line":["P.O. Box 660044"],"city":"Dallas","state":"TX","postalCode":"75266-0044","country":"USA"}]},"request":{"method":"PUT","url":"Organization/5ad6ea38-07e9-4482-9e1b-c09eee595be9"}},{"fullUrl":"https://madie.cms.gov/Practitioner/1576d51f-4671-4bdf-859f-9fd4a0497953","resource":{"resourceType":"Practitioner","id":"1576d51f-4671-4bdf-859f-9fd4a0497953","identifier":[{"system":"http://hl7.org/fhir/sid/us-npi","value":"123456"}],"name":[{"family":"Evil","prefix":["Dr"]}]},"request":{"method":"PUT","url":"Practitioner/1576d51f-4671-4bdf-859f-9fd4a0497953"}},{"fullUrl":"https://madie.cms.gov/MeasureReport/1f3bdd62-76a1-4da9-8453-62de5895fb58","resource":{"resourceType":"MeasureReport","id":"1f3bdd62-76a1-4da9-8453-62de5895fb58","meta":{"profile":["http://hl7.org/fhir/us/cqfmeasures/StructureDefinition/test-case-cqfm"]},"contained":[{"resourceType":"Parameters","id":"3fb95998-b6e8-40c9-b1ea-f73ba67adad6-parameters","parameter":[{"name":"subject","valueString":"1701c7fe-de21-4bb9-8404-92cb1ef4e638"}]}],"extension":[{"url":"http://hl7.org/fhir/us/cqfmeasures/StructureDefinition/cqfm-inputParameters","valueReference":{"reference":"#3fb95998-b6e8-40c9-b1ea-f73ba67adad6-parameters"}},{"url":"http://hl7.org/fhir/us/cqfmeasures/StructureDefinition/cqfm-testCaseDescription","valueMarkdown":"\">18, ED visits before encounter, medication not order(Warfarin ), patient refused during the ED encounter.  ED endTime concurrent w EncInp startTime.\n\"\n"}],"modifierExtension":[{"url":"http://hl7.org/fhir/us/cqfmeasures/StructureDefinition/cqfm-isTestCase","valueBoolean":true}],"status":"complete","type":"individual","measure":"https://madie.cms.gov/Measure/CMS108VTEProphylaxisFHIR","period":{"start":"2026-01-01","end":"2026-12-31"},"group":[{"population":[{"code":{"coding":[{"system":"http://terminology.hl7.org/CodeSystem/measure-population","code":"initial-population","display":"Initial Population"}]},"count":1},{"code":{"coding":[{"system":"http://terminology.hl7.org/CodeSystem/measure-population","code":"denominator","display":"Denominator"}]},"count":1},{"code":{"coding":[{"system":"http://terminology.hl7.org/CodeSystem/measure-population","code":"denominator-exclusion","display":"Denominator Exclusion"}]},"count":0},{"code":{"coding":[{"system":"http://terminology.hl7.org/CodeSystem/measure-population","code":"numerator","display":"Numerator"}]},"count":1}]}]},"request":{"method":"PUT","url":"MeasureReport/1f3bdd62-76a1-4da9-8453-62de5895fb58"}}]}