{"resourceType":"Bundle","id":"tests-e2e5ba36-0d4d-425e-9e9a-6c8a64155fc7-bundle","type":"transaction","entry":[{"fullUrl":"https://madie.cms.gov/Patient/e2e5ba36-0d4d-425e-9e9a-6c8a64155fc7","resource":{"resourceType":"Patient","id":"e2e5ba36-0d4d-425e-9e9a-6c8a64155fc7","meta":{"profile":["http://hl7.org/fhir/us/qicore/StructureDefinition/qicore-patient"]},"text":{"status":"generated","div":"<div xmlns=\"http://www.w3.org/1999/xhtml\"><div class=\"hapiHeaderText\">MA_OralXaKneeEncStartTime <b>NUMERPASS </b></div><table class=\"hapiPropertyTable\"><tbody><tr><td>Date of birth</td><td><span>02 January 1974</span></td></tr></tbody></table></div>"},"extension":[{"url":"http://hl7.org/fhir/us/core/StructureDefinition/us-core-race","extension":[{"url":"ombCategory","valueCoding":{"system":"urn:oid:2.16.840.1.113883.6.238","code":"1002-5","display":"American Indian or Alaska Native","userSelected":true}},{"url":"text","valueString":"American Indian or Alaska Native"}]},{"url":"http://hl7.org/fhir/us/core/StructureDefinition/us-core-ethnicity","extension":[{"url":"ombCategory","valueCoding":{"system":"urn:oid:2.16.840.1.113883.6.238","code":"2135-2","display":"Hispanic or Latino","userSelected":true}},{"url":"text","valueString":"Hispanic or Latino"}]}],"identifier":[{"type":{"coding":[{"system":"http://terminology.hl7.org/CodeSystem/v2-0203","code":"MR"}]},"system":"https://bonnie-fhir.healthit.gov/","value":"612e6afb02c62a011f2ebfd5"}],"active":true,"name":[{"use":"usual","family":"NUMERPass","given":["MA_OralXaKneeOnEncStartTime"]}],"gender":"female","birthDate":"1975-01-02"},"request":{"method":"PUT","url":"Patient/e2e5ba36-0d4d-425e-9e9a-6c8a64155fc7"}},{"fullUrl":"https://madie.cms.gov/Encounter/69d33365-cec0-42ff-a349-b17671769963","resource":{"resourceType":"Encounter","id":"69d33365-cec0-42ff-a349-b17671769963","meta":{"profile":["http://hl7.org/fhir/us/qicore/StructureDefinition/qicore-encounter"]},"status":"finished","class":{"system":"http://terminology.hl7.org/CodeSystem/v3-ActCode","code":"IMP","display":"inpatient encounter"},"type":[{"coding":[{"system":"http://snomed.info/sct","code":"183452005"}]}],"subject":{"reference":"Patient/e2e5ba36-0d4d-425e-9e9a-6c8a64155fc7"},"period":{"start":"2026-11-01T08:00:00+00:00","end":"2026-11-26T08:15:00+00:00"},"length":{"value":25,"unit":"day"}},"request":{"method":"PUT","url":"Encounter/69d33365-cec0-42ff-a349-b17671769963"}},{"fullUrl":"https://madie.cms.gov/Coverage/4c1a53a5-3c66-4b15-b94c-0cced99b05e7","resource":{"resourceType":"Coverage","id":"4c1a53a5-3c66-4b15-b94c-0cced99b05e7","status":"active","beneficiary":{"reference":"Patient/e2e5ba36-0d4d-425e-9e9a-6c8a64155fc7"},"period":{"start":"1975-01-02T08:00:00+00:00"},"payor":[{"reference":"Organization/18ca435c-cae6-4c34-8033-af717477f9fc"}]},"request":{"method":"PUT","url":"Coverage/4c1a53a5-3c66-4b15-b94c-0cced99b05e7"}},{"fullUrl":"https://madie.cms.gov/MedicationAdministration/d68d4d2e-ccfa-4a49-b68c-1893b7d23c6b","resource":{"resourceType":"MedicationAdministration","id":"d68d4d2e-ccfa-4a49-b68c-1893b7d23c6b","meta":{"profile":["http://hl7.org/fhir/us/qicore/StructureDefinition/qicore-medicationadministration"]},"status":"completed","medicationCodeableConcept":{"coding":[{"system":"http://www.nlm.nih.gov/research/umls/rxnorm","code":"1599555"}]},"subject":{"reference":"Patient/e2e5ba36-0d4d-425e-9e9a-6c8a64155fc7"},"effectivePeriod":{"start":"2026-11-01T08:00:00+00:00","end":"2026-11-01T08:00:00+00:00"}},"request":{"method":"PUT","url":"MedicationAdministration/d68d4d2e-ccfa-4a49-b68c-1893b7d23c6b"}},{"fullUrl":"https://madie.cms.gov/Procedure/eaa4a1b4-8b1e-469d-9ba7-6737c8e88363","resource":{"resourceType":"Procedure","id":"eaa4a1b4-8b1e-469d-9ba7-6737c8e88363","meta":{"profile":["http://hl7.org/fhir/us/qicore/StructureDefinition/qicore-procedure"]},"extension":[{"url":"http://hl7.org/fhir/us/qicore/StructureDefinition/qicore-recorded","valueDateTime":"2013-11-01T09:35:00-04:00"}],"status":"completed","code":{"coding":[{"system":"http://snomed.info/sct","code":"179411001"}]},"subject":{"reference":"Patient/e2e5ba36-0d4d-425e-9e9a-6c8a64155fc7"},"performedPeriod":{"start":"2026-11-01T08:00:00+00:00","end":"2026-11-01T10:15:00+00:00"}},"request":{"method":"PUT","url":"Procedure/eaa4a1b4-8b1e-469d-9ba7-6737c8e88363"}},{"fullUrl":"https://madie.cms.gov/Organization/5861f915-afac-409c-a6ff-d5ca1e9a22c6","resource":{"resourceType":"Organization","id":"18ca435c-cae6-4c34-8033-af717477f9fc","meta":{"profile":["http://hl7.org/fhir/us/qicore/StructureDefinition/qicore-organization"]},"identifier":[{"use":"temp","system":"urn:oid:2.16.840.1.113883.4.4","value":"21-3259825"}],"active":true,"type":[{"coding":[{"system":"http://terminology.hl7.org/CodeSystem/organization-type","code":"pay","display":"Payer"}]}],"name":"Blue Cross Blue Shield of Texas","telecom":[{"system":"phone","value":"(+1) 972-766-6900"}],"address":[{"use":"billing","type":"postal","line":["P.O. Box 660044"],"city":"Dallas","state":"TX","postalCode":"75266-0044","country":"USA"}]},"request":{"method":"PUT","url":"Organization/18ca435c-cae6-4c34-8033-af717477f9fc"}},{"fullUrl":"https://madie.cms.gov/Practitioner/dfecbb30-552a-410f-98c4-38a732fdc3d3","resource":{"resourceType":"Practitioner","id":"dfecbb30-552a-410f-98c4-38a732fdc3d3","identifier":[{"system":"http://hl7.org/fhir/sid/us-npi","value":"123456"}],"name":[{"family":"Evil","prefix":["Dr"]}]},"request":{"method":"PUT","url":"Practitioner/dfecbb30-552a-410f-98c4-38a732fdc3d3"}},{"fullUrl":"https://madie.cms.gov/MeasureReport/3f3fe9a1-a0b1-44b3-ae54-e1ad5e37d1c5","resource":{"resourceType":"MeasureReport","id":"3f3fe9a1-a0b1-44b3-ae54-e1ad5e37d1c5","meta":{"profile":["http://hl7.org/fhir/us/cqfmeasures/StructureDefinition/test-case-cqfm"]},"contained":[{"resourceType":"Parameters","id":"16d24167-42fb-43de-8b22-a9c9a4fa9133-parameters","parameter":[{"name":"subject","valueString":"e2e5ba36-0d4d-425e-9e9a-6c8a64155fc7"}]}],"extension":[{"url":"http://hl7.org/fhir/us/cqfmeasures/StructureDefinition/cqfm-inputParameters","valueReference":{"reference":"#16d24167-42fb-43de-8b22-a9c9a4fa9133-parameters"}},{"url":"http://hl7.org/fhir/us/cqfmeasures/StructureDefinition/cqfm-testCaseDescription","valueMarkdown":"oral factor Xa administered concurrent with start of IP encounter, Hip replacement concurrent with Start of IP encounter\n"}],"modifierExtension":[{"url":"http://hl7.org/fhir/us/cqfmeasures/StructureDefinition/cqfm-isTestCase","valueBoolean":true}],"status":"complete","type":"individual","measure":"https://madie.cms.gov/Measure/CMS108VTEProphylaxisFHIR","period":{"start":"2026-01-01","end":"2026-12-31"},"group":[{"population":[{"code":{"coding":[{"system":"http://terminology.hl7.org/CodeSystem/measure-population","code":"initial-population","display":"Initial Population"}]},"count":1},{"code":{"coding":[{"system":"http://terminology.hl7.org/CodeSystem/measure-population","code":"denominator","display":"Denominator"}]},"count":1},{"code":{"coding":[{"system":"http://terminology.hl7.org/CodeSystem/measure-population","code":"denominator-exclusion","display":"Denominator Exclusion"}]},"count":0},{"code":{"coding":[{"system":"http://terminology.hl7.org/CodeSystem/measure-population","code":"numerator","display":"Numerator"}]},"count":1}]}]},"request":{"method":"PUT","url":"MeasureReport/3f3fe9a1-a0b1-44b3-ae54-e1ad5e37d1c5"}}]}