{"resourceType":"Bundle","id":"tests-5e4231e6-dc8e-423e-9107-003da9d26548-bundle","type":"transaction","entry":[{"fullUrl":"https://madie.cms.gov/Patient/5e4231e6-dc8e-423e-9107-003da9d26548","resource":{"resourceType":"Patient","id":"5e4231e6-dc8e-423e-9107-003da9d26548","meta":{"profile":["http://hl7.org/fhir/us/qicore/StructureDefinition/qicore-patient"]},"text":{"status":"generated","div":"<div xmlns=\"http://www.w3.org/1999/xhtml\"><div class=\"hapiHeaderText\">MedReason_MA_LMWH_DO_GCS_IPEnc <b>NUMERPASS </b></div><table class=\"hapiPropertyTable\"><tbody><tr><td>Identifier</td><td>57c53fc7391e680566116a818dec99f8</td></tr><tr><td>Date of birth</td><td><span>02 January 1974</span></td></tr></tbody></table></div>"},"extension":[{"url":"http://hl7.org/fhir/us/core/StructureDefinition/us-core-race","extension":[{"url":"ombCategory","valueCoding":{"system":"urn:oid:2.16.840.1.113883.6.238","code":"1002-5","display":"American Indian or Alaska Native","userSelected":true}},{"url":"text","valueString":"American Indian or Alaska Native"}]},{"url":"http://hl7.org/fhir/us/core/StructureDefinition/us-core-ethnicity","extension":[{"url":"ombCategory","valueCoding":{"system":"urn:oid:2.16.840.1.113883.6.238","code":"2135-2","display":"Hispanic or Latino","userSelected":true}},{"url":"text","valueString":"Hispanic or Latino"}]}],"identifier":[{"type":{"coding":[{"system":"http://terminology.hl7.org/CodeSystem/v2-0203","code":"MR"}]},"system":"https://bonnie-fhir.healthit.gov/","value":"612e6a8802c62a011f2ea423"}],"active":true,"name":[{"use":"usual","family":"NUMERPass","given":["MedReason_MA_LMWH_DO_GCS_IPEnc"]}],"gender":"male","birthDate":"1975-01-02"},"request":{"method":"PUT","url":"Patient/5e4231e6-dc8e-423e-9107-003da9d26548"}},{"fullUrl":"https://madie.cms.gov/Encounter/963fd371-e08a-496b-9397-05297caac041","resource":{"resourceType":"Encounter","id":"963fd371-e08a-496b-9397-05297caac041","meta":{"profile":["http://hl7.org/fhir/us/qicore/StructureDefinition/qicore-encounter"]},"status":"finished","class":{"system":"http://terminology.hl7.org/CodeSystem/v3-ActCode","code":"IMP","display":"inpatient encounter"},"type":[{"coding":[{"system":"http://snomed.info/sct","code":"8715000"}]}],"subject":{"reference":"Patient/5e4231e6-dc8e-423e-9107-003da9d26548"},"period":{"start":"2026-11-01T08:00:00+00:00","end":"2026-11-26T08:15:00+00:00"},"length":{"value":25.0,"unit":"days"}},"request":{"method":"PUT","url":"Encounter/963fd371-e08a-496b-9397-05297caac041"}},{"fullUrl":"https://madie.cms.gov/Coverage/85f9f4ca-ed2c-4deb-996f-6c0e94b01860","resource":{"resourceType":"Coverage","id":"85f9f4ca-ed2c-4deb-996f-6c0e94b01860","status":"active","beneficiary":{"reference":"Patient/5e4231e6-dc8e-423e-9107-003da9d26548"},"period":{"start":"1975-01-02T08:00:00+00:00"},"payor":[{"reference":"Organization/db141f66-a1cc-407b-9e95-adac27adee14"}]},"request":{"method":"PUT","url":"Coverage/85f9f4ca-ed2c-4deb-996f-6c0e94b01860"}},{"fullUrl":"https://madie.cms.gov/MedicationAdministration/4ac19885-eef1-46c1-a37f-5b43f258f506","resource":{"resourceType":"MedicationAdministration","id":"4ac19885-eef1-46c1-a37f-5b43f258f506","meta":{"profile":["http://hl7.org/fhir/us/qicore/StructureDefinition/qicore-mednotadministered"]},"extension":[{"url":"http://hl7.org/fhir/us/qicore/StructureDefinition/qicore-recorded","valueDateTime":"2026-11-02T09:00:00+00:00"}],"status":"not-done","statusReason":[{"coding":[{"system":"http://snomed.info/sct","code":"183932001","display":"Procedure contraindicated (situation)"}]}],"medicationCodeableConcept":{"coding":[{"system":"http://www.nlm.nih.gov/research/umls/rxnorm","code":"854228"}]},"subject":{"reference":"Patient/5e4231e6-dc8e-423e-9107-003da9d26548"},"effectivePeriod":{"start":"2026-11-02T09:00:00+00:00"}},"request":{"method":"PUT","url":"MedicationAdministration/4ac19885-eef1-46c1-a37f-5b43f258f506"}},{"fullUrl":"https://madie.cms.gov/ServiceRequest/5f9e95a6-de70-48da-b3fc-3376e3c0ee90","resource":{"resourceType":"ServiceRequest","id":"5f9e95a6-de70-48da-b3fc-3376e3c0ee90","meta":{"profile":["http://hl7.org/fhir/us/qicore/StructureDefinition/qicore-servicenotrequested"]},"extension":[{"url":"http://hl7.org/fhir/us/qicore/StructureDefinition/qicore-doNotPerformReason","valueCodeableConcept":{"coding":[{"system":"http://snomed.info/sct","code":"183932001","display":"Procedure contraindicated (situation)"}]}}],"status":"completed","intent":"order","doNotPerform":true,"code":{"coding":[{"system":"http://snomed.info/sct","version":"2025-03","code":"348681001","display":"Graduated compression elastic hosiery (physical object)","userSelected":true}]},"subject":{"reference":"Patient/5e4231e6-dc8e-423e-9107-003da9d26548"},"authoredOn":"2026-11-02T09:00:00+00:00","reasonCode":[{"coding":[{"system":"http://snomed.info/sct","code":"183932001","display":"Procedure contraindicated (situation)","userSelected":true}]}]},"request":{"method":"PUT","url":"ServiceRequest/5f9e95a6-de70-48da-b3fc-3376e3c0ee90"}},{"fullUrl":"https://madie.cms.gov/Organization/ff9c237f-0e75-46e9-b46a-e25d56de5ee0","resource":{"resourceType":"Organization","id":"db141f66-a1cc-407b-9e95-adac27adee14","meta":{"profile":["http://hl7.org/fhir/us/qicore/StructureDefinition/qicore-organization"]},"identifier":[{"use":"temp","system":"urn:oid:2.16.840.1.113883.4.4","value":"21-3259825"}],"active":true,"type":[{"coding":[{"system":"http://terminology.hl7.org/CodeSystem/organization-type","code":"pay","display":"Payer"}]}],"name":"Blue Cross Blue Shield of Texas","telecom":[{"system":"phone","value":"(+1) 972-766-6900"}],"address":[{"use":"billing","type":"postal","line":["P.O. Box 660044"],"city":"Dallas","state":"TX","postalCode":"75266-0044","country":"USA"}]},"request":{"method":"PUT","url":"Organization/db141f66-a1cc-407b-9e95-adac27adee14"}},{"fullUrl":"https://madie.cms.gov/Practitioner/35494dc2-a1b5-4728-bcca-8a66c2c3cef9","resource":{"resourceType":"Practitioner","id":"35494dc2-a1b5-4728-bcca-8a66c2c3cef9","identifier":[{"system":"http://hl7.org/fhir/sid/us-npi","value":"123456"}],"name":[{"family":"Evil","prefix":["Dr"]}]},"request":{"method":"PUT","url":"Practitioner/35494dc2-a1b5-4728-bcca-8a66c2c3cef9"}},{"fullUrl":"https://madie.cms.gov/MeasureReport/3f697be4-e0ba-41de-8c05-b73badf89b62","resource":{"resourceType":"MeasureReport","id":"3f697be4-e0ba-41de-8c05-b73badf89b62","meta":{"profile":["http://hl7.org/fhir/us/cqfmeasures/StructureDefinition/test-case-cqfm"]},"contained":[{"resourceType":"Parameters","id":"c5124cd3-073f-4190-ae36-2a232668a8d2-parameters","parameter":[{"name":"subject","valueString":"5e4231e6-dc8e-423e-9107-003da9d26548"}]}],"extension":[{"url":"http://hl7.org/fhir/us/cqfmeasures/StructureDefinition/cqfm-inputParameters","valueReference":{"reference":"#c5124cd3-073f-4190-ae36-2a232668a8d2-parameters"}},{"url":"http://hl7.org/fhir/us/cqfmeasures/StructureDefinition/cqfm-testCaseDescription","valueMarkdown":"GCS not ordered and LMWH not adm due to medical reason <= 1 day after start of IP encounter\n"}],"modifierExtension":[{"url":"http://hl7.org/fhir/us/cqfmeasures/StructureDefinition/cqfm-isTestCase","valueBoolean":true}],"status":"complete","type":"individual","measure":"https://madie.cms.gov/Measure/CMS108VTEProphylaxisFHIR","period":{"start":"2026-01-01","end":"2026-12-31"},"group":[{"population":[{"code":{"coding":[{"system":"http://terminology.hl7.org/CodeSystem/measure-population","code":"initial-population","display":"Initial Population"}]},"count":1},{"code":{"coding":[{"system":"http://terminology.hl7.org/CodeSystem/measure-population","code":"denominator","display":"Denominator"}]},"count":1},{"code":{"coding":[{"system":"http://terminology.hl7.org/CodeSystem/measure-population","code":"denominator-exclusion","display":"Denominator Exclusion"}]},"count":0},{"code":{"coding":[{"system":"http://terminology.hl7.org/CodeSystem/measure-population","code":"numerator","display":"Numerator"}]},"count":1}]}]},"request":{"method":"PUT","url":"MeasureReport/3f697be4-e0ba-41de-8c05-b73badf89b62"}}]}