{"resourceType":"Bundle","id":"tests-541ccffb-c1be-4c94-ab24-168d52e3a36b-bundle","type":"transaction","entry":[{"fullUrl":"https://madie.cms.gov/Patient/541ccffb-c1be-4c94-ab24-168d52e3a36b","resource":{"resourceType":"Patient","id":"541ccffb-c1be-4c94-ab24-168d52e3a36b","meta":{"profile":["http://hl7.org/fhir/us/qicore/StructureDefinition/qicore-patient"]},"text":{"status":"generated","div":"<div xmlns=\"http://www.w3.org/1999/xhtml\"><div class=\"hapiHeaderText\">MedReason_MA_Rix_DA_VFP_DuringOBS <b>NUMERPASS </b></div><table class=\"hapiPropertyTable\"><tbody><tr><td>Identifier</td><td>d5661b6a7ac7a6b9f13847d23af8475a</td></tr><tr><td>Date of birth</td><td><span>02 January 1974</span></td></tr></tbody></table></div>"},"extension":[{"url":"http://hl7.org/fhir/us/core/StructureDefinition/us-core-race","extension":[{"url":"ombCategory","valueCoding":{"system":"urn:oid:2.16.840.1.113883.6.238","code":"1002-5","display":"American Indian or Alaska Native","userSelected":true}},{"url":"text","valueString":"American Indian or Alaska Native"}]},{"url":"http://hl7.org/fhir/us/core/StructureDefinition/us-core-ethnicity","extension":[{"url":"ombCategory","valueCoding":{"system":"urn:oid:2.16.840.1.113883.6.238","code":"2135-2","display":"Hispanic or Latino","userSelected":true}},{"url":"text","valueString":"Hispanic or Latino"}]}],"identifier":[{"type":{"coding":[{"system":"http://terminology.hl7.org/CodeSystem/v2-0203","code":"MR"}]},"system":"https://bonnie-fhir.healthit.gov/","value":"612e6b8102c62a011f2ee0a5"}],"active":true,"name":[{"use":"usual","family":"NUMERPass","given":["MedReason_MA_Rix_DA_VFP_DuringOBS"]}],"gender":"male","birthDate":"1975-01-02"},"request":{"method":"PUT","url":"Patient/541ccffb-c1be-4c94-ab24-168d52e3a36b"}},{"fullUrl":"https://madie.cms.gov/Encounter/da51fc99-e7fb-413c-bd93-2d45476b8b19","resource":{"resourceType":"Encounter","id":"da51fc99-e7fb-413c-bd93-2d45476b8b19","meta":{"profile":["http://hl7.org/fhir/us/qicore/StructureDefinition/qicore-encounter"]},"status":"finished","class":{"system":"http://terminology.hl7.org/CodeSystem/v3-ActCode","code":"OBSENC","display":"observation encounter"},"type":[{"coding":[{"system":"http://snomed.info/sct","code":"448951000124107"}]}],"subject":{"reference":"Patient/541ccffb-c1be-4c94-ab24-168d52e3a36b"},"period":{"start":"2026-10-31T05:00:00+00:00","end":"2026-11-01T08:00:00+00:00"},"length":{"value":1.0,"unit":"days"}},"request":{"method":"PUT","url":"Encounter/da51fc99-e7fb-413c-bd93-2d45476b8b19"}},{"fullUrl":"https://madie.cms.gov/Encounter/36588e42-8e57-4ec5-b7be-689c2e2b14d6","resource":{"resourceType":"Encounter","id":"36588e42-8e57-4ec5-b7be-689c2e2b14d6","meta":{"profile":["http://hl7.org/fhir/us/qicore/StructureDefinition/qicore-encounter"]},"status":"finished","class":{"system":"http://terminology.hl7.org/CodeSystem/v3-ActCode","code":"IMP","display":"inpatient encounter"},"type":[{"coding":[{"system":"http://snomed.info/sct","code":"8715000"}]}],"subject":{"reference":"Patient/541ccffb-c1be-4c94-ab24-168d52e3a36b"},"period":{"start":"2026-11-01T08:00:00+00:00","end":"2026-11-26T08:15:00+00:00"},"length":{"value":25.0,"unit":"days"}},"request":{"method":"PUT","url":"Encounter/36588e42-8e57-4ec5-b7be-689c2e2b14d6"}},{"fullUrl":"https://madie.cms.gov/Coverage/64f1e2df-e311-482c-ad27-a1840e7c51a6","resource":{"resourceType":"Coverage","id":"64f1e2df-e311-482c-ad27-a1840e7c51a6","status":"active","beneficiary":{"reference":"Patient/541ccffb-c1be-4c94-ab24-168d52e3a36b"},"period":{"start":"1975-01-02T08:00:00+00:00"},"payor":[{"reference":"Organization/db141f66-a1cc-407b-9e95-adac27adee14"}]},"request":{"method":"PUT","url":"Coverage/64f1e2df-e311-482c-ad27-a1840e7c51a6"}},{"fullUrl":"https://madie.cms.gov/Procedure/8186c8df-bde8-4671-9ee5-f7beb2da62b0","resource":{"resourceType":"Procedure","id":"8186c8df-bde8-4671-9ee5-f7beb2da62b0","meta":{"profile":["http://hl7.org/fhir/us/qicore/StructureDefinition/qicore-procedurenotdone"]},"extension":[{"url":"http://hl7.org/fhir/us/qicore/StructureDefinition/qicore-recorded","valueDateTime":"2026-10-31T07:35:00-04:00"}],"status":"not-done","statusReason":{"coding":[{"system":"http://snomed.info/sct","code":"183932001","display":"Procedure contraindicated (situation)","userSelected":true}]},"code":{"coding":[{"system":"http://snomed.info/sct","code":"424831005","display":"Application of foot pump (procedure)","userSelected":true}]},"subject":{"reference":"Patient/541ccffb-c1be-4c94-ab24-168d52e3a36b"},"_performedDateTime":{"extension":[{"url":"http://hl7.org/fhir/StructureDefinition/data-absent-reason","valueCode":"not-performed"}]}},"request":{"method":"PUT","url":"Procedure/8186c8df-bde8-4671-9ee5-f7beb2da62b0"}},{"fullUrl":"https://madie.cms.gov/MedicationAdministration/298ed014-e098-44b4-9d3e-2c1e054a32eb","resource":{"resourceType":"MedicationAdministration","id":"298ed014-e098-44b4-9d3e-2c1e054a32eb","meta":{"profile":["http://hl7.org/fhir/us/qicore/StructureDefinition/qicore-mednotadministered"]},"extension":[{"url":"http://hl7.org/fhir/us/qicore/StructureDefinition/qicore-recorded","valueDateTime":"2026-10-31T07:00:00+00:00"}],"status":"not-done","statusReason":[{"coding":[{"system":"http://snomed.info/sct","code":"183932001","display":"Procedure contraindicated (situation)","userSelected":true}]}],"medicationCodeableConcept":{"coding":[{"system":"http://www.nlm.nih.gov/research/umls/rxnorm","code":"2588062","display":"rivaroxaban 1 MG/ML Oral Suspension"}]},"subject":{"reference":"Patient/541ccffb-c1be-4c94-ab24-168d52e3a36b"},"effectivePeriod":{"start":"2026-10-31T07:00:00+00:00"}},"request":{"method":"PUT","url":"MedicationAdministration/298ed014-e098-44b4-9d3e-2c1e054a32eb"}},{"fullUrl":"https://madie.cms.gov/Organization/df19e1ca-0356-446a-803c-6ef953f7e14a","resource":{"resourceType":"Organization","id":"db141f66-a1cc-407b-9e95-adac27adee14","meta":{"profile":["http://hl7.org/fhir/us/qicore/StructureDefinition/qicore-organization"]},"identifier":[{"use":"temp","system":"urn:oid:2.16.840.1.113883.4.4","value":"21-3259825"}],"active":true,"type":[{"coding":[{"system":"http://terminology.hl7.org/CodeSystem/organization-type","code":"pay","display":"Payer"}]}],"name":"Blue Cross Blue Shield of Texas","telecom":[{"system":"phone","value":"(+1) 972-766-6900"}],"address":[{"use":"billing","type":"postal","line":["P.O. Box 660044"],"city":"Dallas","state":"TX","postalCode":"75266-0044","country":"USA"}]},"request":{"method":"PUT","url":"Organization/db141f66-a1cc-407b-9e95-adac27adee14"}},{"fullUrl":"https://madie.cms.gov/Practitioner/76d23551-378b-4d2c-9987-697edd399059","resource":{"resourceType":"Practitioner","id":"76d23551-378b-4d2c-9987-697edd399059","identifier":[{"system":"http://hl7.org/fhir/sid/us-npi","value":"123456"}],"name":[{"family":"Evil","prefix":["Dr"]}]},"request":{"method":"PUT","url":"Practitioner/76d23551-378b-4d2c-9987-697edd399059"}},{"fullUrl":"https://madie.cms.gov/MeasureReport/727940dd-4df7-4a7c-8359-ac2fdb537ddd","resource":{"resourceType":"MeasureReport","id":"727940dd-4df7-4a7c-8359-ac2fdb537ddd","meta":{"profile":["http://hl7.org/fhir/us/cqfmeasures/StructureDefinition/test-case-cqfm"]},"contained":[{"resourceType":"Parameters","id":"f6cc34e3-9649-47c6-8216-58da53e80bfc-parameters","parameter":[{"name":"subject","valueString":"541ccffb-c1be-4c94-ab24-168d52e3a36b"}]}],"extension":[{"url":"http://hl7.org/fhir/us/cqfmeasures/StructureDefinition/cqfm-inputParameters","valueReference":{"reference":"#f6cc34e3-9649-47c6-8216-58da53e80bfc-parameters"}},{"url":"http://hl7.org/fhir/us/cqfmeasures/StructureDefinition/cqfm-testCaseDescription","valueMarkdown":"medical reasons for not receiving VFP devices and Rivaroxaban in OBS\n"}],"modifierExtension":[{"url":"http://hl7.org/fhir/us/cqfmeasures/StructureDefinition/cqfm-isTestCase","valueBoolean":true}],"status":"complete","type":"individual","measure":"https://madie.cms.gov/Measure/CMS108VTEProphylaxisFHIR","period":{"start":"2026-01-01","end":"2026-12-31"},"group":[{"population":[{"code":{"coding":[{"system":"http://terminology.hl7.org/CodeSystem/measure-population","code":"initial-population","display":"Initial Population"}]},"count":1},{"code":{"coding":[{"system":"http://terminology.hl7.org/CodeSystem/measure-population","code":"denominator","display":"Denominator"}]},"count":1},{"code":{"coding":[{"system":"http://terminology.hl7.org/CodeSystem/measure-population","code":"denominator-exclusion","display":"Denominator Exclusion"}]},"count":0},{"code":{"coding":[{"system":"http://terminology.hl7.org/CodeSystem/measure-population","code":"numerator","display":"Numerator"}]},"count":1}]}]},"request":{"method":"PUT","url":"MeasureReport/727940dd-4df7-4a7c-8359-ac2fdb537ddd"}}]}