{"resourceType":"Bundle","id":"tests-265998f3-4ef6-4345-8ae1-fb6ab204318e-bundle","type":"transaction","entry":[{"fullUrl":"https://madie.cms.gov/Patient/265998f3-4ef6-4345-8ae1-fb6ab204318e","resource":{"resourceType":"Patient","id":"265998f3-4ef6-4345-8ae1-fb6ab204318e","meta":{"profile":["http://hl7.org/fhir/us/qicore/StructureDefinition/qicore-patient"]},"text":{"status":"generated","div":"<div xmlns=\"http://www.w3.org/1999/xhtml\"><div class=\"hapiHeaderText\">MAOralXaApixabanNoSurg<b>NUMERFAIL </b></div><table class=\"hapiPropertyTable\"><tbody><tr><td>Identifier</td><td>b81b91feb2f1861f7a98223048a9e521</td></tr><tr><td>Date of birth</td><td><span>02 January 1974</span></td></tr></tbody></table></div>"},"extension":[{"url":"http://hl7.org/fhir/us/core/StructureDefinition/us-core-race","extension":[{"url":"ombCategory","valueCoding":{"system":"urn:oid:2.16.840.1.113883.6.238","code":"1002-5","display":"American Indian or Alaska Native","userSelected":true}},{"url":"text","valueString":"American Indian or Alaska Native"}]},{"url":"http://hl7.org/fhir/us/core/StructureDefinition/us-core-ethnicity","extension":[{"url":"ombCategory","valueCoding":{"system":"urn:oid:2.16.840.1.113883.6.238","code":"2135-2","display":"Hispanic or Latino","userSelected":true}},{"url":"text","valueString":"Hispanic or Latino"}]}],"identifier":[{"type":{"coding":[{"system":"http://terminology.hl7.org/CodeSystem/v2-0203","code":"MR"}]},"system":"https://bonnie-fhir.healthit.gov/","value":"612e6b5402c62a011f2ed56f"}],"active":true,"name":[{"use":"usual","family":"NUMERFail","given":["MAOralXaApixabanNoSurg"]}],"gender":"male","birthDate":"1975-01-02"},"request":{"method":"PUT","url":"Patient/265998f3-4ef6-4345-8ae1-fb6ab204318e"}},{"fullUrl":"https://madie.cms.gov/Encounter/5d2bf4d7-66a2-4094-8c43-dbabddf67638","resource":{"resourceType":"Encounter","id":"5d2bf4d7-66a2-4094-8c43-dbabddf67638","meta":{"profile":["http://hl7.org/fhir/us/qicore/StructureDefinition/qicore-encounter"]},"status":"finished","class":{"system":"http://terminology.hl7.org/CodeSystem/v3-ActCode","code":"IMP","display":"inpatient encounter"},"type":[{"coding":[{"system":"http://snomed.info/sct","code":"8715000"}]}],"subject":{"reference":"Patient/265998f3-4ef6-4345-8ae1-fb6ab204318e"},"period":{"start":"2026-11-01T08:00:00+00:00","end":"2026-11-26T08:15:00+00:00"},"length":{"value":25.0,"unit":"days"}},"request":{"method":"PUT","url":"Encounter/5d2bf4d7-66a2-4094-8c43-dbabddf67638"}},{"fullUrl":"https://madie.cms.gov/Coverage/8aaac32a-9e78-4c89-a15b-f28f3df15680","resource":{"resourceType":"Coverage","id":"8aaac32a-9e78-4c89-a15b-f28f3df15680","status":"active","beneficiary":{"reference":"Patient/265998f3-4ef6-4345-8ae1-fb6ab204318e"},"period":{"start":"1975-01-02T08:00:00+00:00"},"payor":[{"reference":"Organization/607fdef9-3983-4cef-ab1a-95434d29b463"}]},"request":{"method":"PUT","url":"Coverage/8aaac32a-9e78-4c89-a15b-f28f3df15680"}},{"fullUrl":"https://madie.cms.gov/MedicationAdministration/56233d5b-47cd-43dc-a9cc-4e57ebc17508","resource":{"resourceType":"MedicationAdministration","id":"56233d5b-47cd-43dc-a9cc-4e57ebc17508","meta":{"profile":["http://hl7.org/fhir/us/qicore/StructureDefinition/qicore-medicationadministration"]},"status":"completed","medicationCodeableConcept":{"coding":[{"system":"http://www.nlm.nih.gov/research/umls/rxnorm","code":"1364435"}]},"subject":{"reference":"Patient/265998f3-4ef6-4345-8ae1-fb6ab204318e"},"effectivePeriod":{"start":"2026-11-01T09:00:00+00:00"}},"request":{"method":"PUT","url":"MedicationAdministration/56233d5b-47cd-43dc-a9cc-4e57ebc17508"}},{"fullUrl":"https://madie.cms.gov/Organization/ebf34db5-f730-4661-8474-a728ebc6825e","resource":{"resourceType":"Organization","id":"607fdef9-3983-4cef-ab1a-95434d29b463","meta":{"profile":["http://hl7.org/fhir/us/qicore/StructureDefinition/qicore-organization"]},"identifier":[{"use":"temp","system":"urn:oid:2.16.840.1.113883.4.4","value":"21-3259825"}],"active":true,"type":[{"coding":[{"system":"http://terminology.hl7.org/CodeSystem/organization-type","code":"pay","display":"Payer"}]}],"name":"Blue Cross Blue Shield of Texas","telecom":[{"system":"phone","value":"(+1) 972-766-6900"}],"address":[{"use":"billing","type":"postal","line":["P.O. Box 660044"],"city":"Dallas","state":"TX","postalCode":"75266-0044","country":"USA"}]},"request":{"method":"PUT","url":"Organization/607fdef9-3983-4cef-ab1a-95434d29b463"}},{"fullUrl":"https://madie.cms.gov/Practitioner/82ddf5c0-a2fa-4bf0-bd68-07f7cd95176c","resource":{"resourceType":"Practitioner","id":"82ddf5c0-a2fa-4bf0-bd68-07f7cd95176c","identifier":[{"system":"http://hl7.org/fhir/sid/us-npi","value":"123456"}],"name":[{"family":"Evil","prefix":["Dr"]}]},"request":{"method":"PUT","url":"Practitioner/82ddf5c0-a2fa-4bf0-bd68-07f7cd95176c"}},{"fullUrl":"https://madie.cms.gov/MeasureReport/324071ed-65fd-4fc9-bbad-1b9cbadbb8dd","resource":{"resourceType":"MeasureReport","id":"324071ed-65fd-4fc9-bbad-1b9cbadbb8dd","meta":{"profile":["http://hl7.org/fhir/us/cqfmeasures/StructureDefinition/test-case-cqfm"]},"contained":[{"resourceType":"Parameters","id":"3c455100-4144-49ec-973c-551d0b4ee5a8-parameters","parameter":[{"name":"subject","valueString":"265998f3-4ef6-4345-8ae1-fb6ab204318e"}]}],"extension":[{"url":"http://hl7.org/fhir/us/cqfmeasures/StructureDefinition/cqfm-inputParameters","valueReference":{"reference":"#3c455100-4144-49ec-973c-551d0b4ee5a8-parameters"}},{"url":"http://hl7.org/fhir/us/cqfmeasures/StructureDefinition/cqfm-testCaseDescription","valueMarkdown":">18, LOS<120 day. received Oral FactorXa (apixaban)but does not have a paired diagnosis or procedure required to meet the numerator logic\n"}],"modifierExtension":[{"url":"http://hl7.org/fhir/us/cqfmeasures/StructureDefinition/cqfm-isTestCase","valueBoolean":true}],"status":"complete","type":"individual","measure":"https://madie.cms.gov/Measure/CMS108VTEProphylaxisFHIR","period":{"start":"2026-01-01","end":"2026-12-31"},"group":[{"population":[{"code":{"coding":[{"system":"http://terminology.hl7.org/CodeSystem/measure-population","code":"initial-population","display":"Initial Population"}]},"count":1},{"code":{"coding":[{"system":"http://terminology.hl7.org/CodeSystem/measure-population","code":"denominator","display":"Denominator"}]},"count":1},{"code":{"coding":[{"system":"http://terminology.hl7.org/CodeSystem/measure-population","code":"denominator-exclusion","display":"Denominator Exclusion"}]},"count":0},{"code":{"coding":[{"system":"http://terminology.hl7.org/CodeSystem/measure-population","code":"numerator","display":"Numerator"}]},"count":0}]}]},"request":{"method":"PUT","url":"MeasureReport/324071ed-65fd-4fc9-bbad-1b9cbadbb8dd"}}]}