{"resourceType":"Bundle","id":"tests-3c35a3b2-736b-43e8-8514-43f5caa382ac-bundle","type":"transaction","entry":[{"fullUrl":"https://madie.cms.gov/Patient/3c35a3b2-736b-43e8-8514-43f5caa382ac","resource":{"resourceType":"Patient","id":"3c35a3b2-736b-43e8-8514-43f5caa382ac","meta":{"profile":["http://hl7.org/fhir/us/qicore/StructureDefinition/qicore-patient"]},"text":{"status":"generated","div":"<div xmlns=\"http://www.w3.org/1999/xhtml\"><div class=\"hapiHeaderText\">SCIP_Neuro_Rank2 <b>DENEXFAIL </b></div><table class=\"hapiPropertyTable\"><tbody><tr><td>Identifier</td><td>66c70c125db369967b4b164e75338304</td></tr><tr><td>Date of birth</td><td><span>01 September 2000</span></td></tr></tbody></table></div>"},"extension":[{"url":"http://hl7.org/fhir/us/core/StructureDefinition/us-core-race","extension":[{"url":"ombCategory","valueCoding":{"system":"urn:oid:2.16.840.1.113883.6.238","code":"1002-5","display":"American Indian or Alaska Native","userSelected":true}},{"url":"text","valueString":"American Indian or Alaska Native"}]},{"url":"http://hl7.org/fhir/us/core/StructureDefinition/us-core-ethnicity","extension":[{"url":"ombCategory","valueCoding":{"system":"urn:oid:2.16.840.1.113883.6.238","code":"2135-2","display":"Hispanic or Latino","userSelected":true}},{"url":"text","valueString":"Hispanic or Latino"}]}],"identifier":[{"type":{"coding":[{"system":"http://terminology.hl7.org/CodeSystem/v2-0203","code":"MR"}]},"system":"https://bonnie-fhir.healthit.gov/","value":"612e6b0d02c62a011f2ec3b3"}],"active":true,"name":[{"use":"usual","family":"DENEXFail ","given":["SCIP_Neuro_Rank2"]}],"gender":"male","birthDate":"2001-09-01"},"request":{"method":"PUT","url":"Patient/3c35a3b2-736b-43e8-8514-43f5caa382ac"}},{"fullUrl":"https://madie.cms.gov/Encounter/d4c9d045-dbb9-4d0b-b558-87bd631b382c","resource":{"resourceType":"Encounter","id":"d4c9d045-dbb9-4d0b-b558-87bd631b382c","meta":{"profile":["http://hl7.org/fhir/us/qicore/StructureDefinition/qicore-encounter"]},"extension":[{"url":"http://hl7.org/fhir/us/qicore/StructureDefinition/qicore-encounter-procedure","extension":[{"url":"type","valueCodeableConcept":{"coding":[{"system":"http://www.cms.gov/Medicare/Coding/ICD10","code":"0W910ZZ","display":"Drainage of Cranial Cavity, Open Approach"}]}},{"url":"rank","valuePositiveInt":2},{"url":"procedure","valueReference":{"reference":"Procedure/8c63a82f-f312-4e55-944e-7b96f0cba7a8"}}]}],"status":"finished","class":{"system":"http://terminology.hl7.org/CodeSystem/v3-ActCode","code":"IMP","display":"inpatient encounter"},"type":[{"coding":[{"system":"http://snomed.info/sct","code":"183452005"}]}],"subject":{"reference":"Patient/3c35a3b2-736b-43e8-8514-43f5caa382ac"},"period":{"start":"2026-09-02T06:00:00+00:00","end":"2026-12-31T10:00:00+00:00"},"length":{"value":120.0,"unit":"days"}},"request":{"method":"PUT","url":"Encounter/d4c9d045-dbb9-4d0b-b558-87bd631b382c"}},{"fullUrl":"https://madie.cms.gov/Coverage/1557c5ba-0482-426b-924c-7b314f1b5fae","resource":{"resourceType":"Coverage","id":"1557c5ba-0482-426b-924c-7b314f1b5fae","status":"active","beneficiary":{"reference":"Patient/3c35a3b2-736b-43e8-8514-43f5caa382ac"},"period":{"start":"2001-09-01T08:00:00+00:00"},"payor":[{"reference":"Organization/607fdef9-3983-4cef-ab1a-95434d29b463"}]},"request":{"method":"PUT","url":"Coverage/1557c5ba-0482-426b-924c-7b314f1b5fae"}},{"fullUrl":"https://madie.cms.gov/Procedure/8c63a82f-f312-4e55-944e-7b96f0cba7a8","resource":{"resourceType":"Procedure","id":"8c63a82f-f312-4e55-944e-7b96f0cba7a8","meta":{"profile":["http://hl7.org/fhir/us/qicore/StructureDefinition/qicore-procedure"]},"extension":[{"url":"http://hl7.org/fhir/us/qicore/StructureDefinition/qicore-recorded","valueDateTime":"2013-12-04T09:35:00-04:00"}],"status":"completed","code":{"coding":[{"system":"http://www.cms.gov/Medicare/Coding/ICD10","code":"0W910ZZ","display":"Drainage of Cranial Cavity, Open Approach"}]},"subject":{"reference":"Patient/3c35a3b2-736b-43e8-8514-43f5caa382ac"},"performedPeriod":{"start":"2026-09-02T20:00:00+00:00","end":"2026-09-02T23:10:00+00:00"}},"request":{"method":"PUT","url":"Procedure/8c63a82f-f312-4e55-944e-7b96f0cba7a8"}},{"fullUrl":"https://madie.cms.gov/Organization/4b8b727b-db2e-46a0-bad0-b4b3f6f68d10","resource":{"resourceType":"Organization","id":"607fdef9-3983-4cef-ab1a-95434d29b463","meta":{"profile":["http://hl7.org/fhir/us/qicore/StructureDefinition/qicore-organization"]},"identifier":[{"use":"temp","system":"urn:oid:2.16.840.1.113883.4.4","value":"21-3259825"}],"active":true,"type":[{"coding":[{"system":"http://terminology.hl7.org/CodeSystem/organization-type","code":"pay","display":"Payer"}]}],"name":"Blue Cross Blue Shield of Texas","telecom":[{"system":"phone","value":"(+1) 972-766-6900"}],"address":[{"use":"billing","type":"postal","line":["P.O. Box 660044"],"city":"Dallas","state":"TX","postalCode":"75266-0044","country":"USA"}]},"request":{"method":"PUT","url":"Organization/607fdef9-3983-4cef-ab1a-95434d29b463"}},{"fullUrl":"https://madie.cms.gov/Practitioner/0de55e7a-11f2-4fce-affd-1d8463fbb676","resource":{"resourceType":"Practitioner","id":"0de55e7a-11f2-4fce-affd-1d8463fbb676","identifier":[{"system":"http://hl7.org/fhir/sid/us-npi","value":"123456"}],"name":[{"family":"Evil","prefix":["Dr"]}]},"request":{"method":"PUT","url":"Practitioner/0de55e7a-11f2-4fce-affd-1d8463fbb676"}},{"fullUrl":"https://madie.cms.gov/MeasureReport/e086931a-ac08-4039-b283-c742e8b1081d","resource":{"resourceType":"MeasureReport","id":"e086931a-ac08-4039-b283-c742e8b1081d","meta":{"profile":["http://hl7.org/fhir/us/cqfmeasures/StructureDefinition/test-case-cqfm"]},"contained":[{"resourceType":"Parameters","id":"c13dac84-666f-472f-bf31-cc775d06aa82-parameters","parameter":[{"name":"subject","valueString":"3c35a3b2-736b-43e8-8514-43f5caa382ac"}]}],"extension":[{"url":"http://hl7.org/fhir/us/cqfmeasures/StructureDefinition/cqfm-inputParameters","valueReference":{"reference":"#c13dac84-666f-472f-bf31-cc775d06aa82-parameters"}},{"url":"http://hl7.org/fhir/us/cqfmeasures/StructureDefinition/cqfm-testCaseDescription","valueMarkdown":"Patient had SCIP -Neuro during Encounter with Rank is 2 (No rank is not allowed due to QIcroe)\n"}],"modifierExtension":[{"url":"http://hl7.org/fhir/us/cqfmeasures/StructureDefinition/cqfm-isTestCase","valueBoolean":true}],"status":"complete","type":"individual","measure":"https://madie.cms.gov/Measure/CMS108VTEProphylaxisFHIR","period":{"start":"2026-01-01","end":"2026-12-31"},"group":[{"population":[{"code":{"coding":[{"system":"http://terminology.hl7.org/CodeSystem/measure-population","code":"initial-population","display":"Initial Population"}]},"count":1},{"code":{"coding":[{"system":"http://terminology.hl7.org/CodeSystem/measure-population","code":"denominator","display":"Denominator"}]},"count":1},{"code":{"coding":[{"system":"http://terminology.hl7.org/CodeSystem/measure-population","code":"denominator-exclusion","display":"Denominator Exclusion"}]},"count":0},{"code":{"coding":[{"system":"http://terminology.hl7.org/CodeSystem/measure-population","code":"numerator","display":"Numerator"}]},"count":0}]}]},"request":{"method":"PUT","url":"MeasureReport/e086931a-ac08-4039-b283-c742e8b1081d"}}]}