{"resourceType":"Bundle","id":"tests-9b6d2fc2-6e25-4c0a-b4cb-3ca7f85be9b4-bundle","type":"transaction","entry":[{"fullUrl":"https://madie.cms.gov/Patient/9b6d2fc2-6e25-4c0a-b4cb-3ca7f85be9b4","resource":{"resourceType":"Patient","id":"9b6d2fc2-6e25-4c0a-b4cb-3ca7f85be9b4","meta":{"profile":["http://hl7.org/fhir/us/qicore/StructureDefinition/qicore-patient"]},"text":{"status":"generated","div":"<div xmlns=\"http://www.w3.org/1999/xhtml\"><div class=\"hapiHeaderText\">CMPerfDrgObsGT1HrBFAdmCMODayBFAdm <b>DENEXFAIL </b></div><table class=\"hapiPropertyTable\"><tbody><tr><td>Identifier</td><td>d874f5a6c52d811bf5e5d1093e0795b3dc8691e8a7d30647cbc3be67b679e144</td></tr><tr><td>Date of birth</td><td><span>02 January 1974</span></td></tr></tbody></table></div>"},"extension":[{"url":"http://hl7.org/fhir/us/core/StructureDefinition/us-core-race","extension":[{"url":"ombCategory","valueCoding":{"system":"urn:oid:2.16.840.1.113883.6.238","code":"1002-5","display":"American Indian or Alaska Native","userSelected":true}},{"url":"text","valueString":"American Indian or Alaska Native"}]},{"url":"http://hl7.org/fhir/us/core/StructureDefinition/us-core-ethnicity","extension":[{"url":"ombCategory","valueCoding":{"system":"urn:oid:2.16.840.1.113883.6.238","code":"2135-2","display":"Hispanic or Latino","userSelected":true}},{"url":"text","valueString":"Hispanic or Latino"}]}],"identifier":[{"type":{"coding":[{"system":"http://terminology.hl7.org/CodeSystem/v2-0203","code":"MR"}]},"system":"https://bonnie-fhir.healthit.gov/","value":"612e6ae802c62a011f2ebb43"}],"active":true,"name":[{"use":"usual","family":"DENEXFail","given":["CMPerfDrgObsGT1HrBFAdmCMODayBFAdm"]}],"gender":"male","birthDate":"1975-01-02"},"request":{"method":"PUT","url":"Patient/9b6d2fc2-6e25-4c0a-b4cb-3ca7f85be9b4"}},{"fullUrl":"https://madie.cms.gov/Encounter/d66807ac-9791-4bed-92e3-1e98da2c54b6","resource":{"resourceType":"Encounter","id":"d66807ac-9791-4bed-92e3-1e98da2c54b6","meta":{"profile":["http://hl7.org/fhir/us/qicore/StructureDefinition/qicore-encounter"]},"status":"finished","class":{"system":"http://terminology.hl7.org/CodeSystem/v3-ActCode","code":"EMER","display":"emergency"},"type":[{"coding":[{"system":"http://snomed.info/sct","code":"4525004"}]}],"subject":{"reference":"Patient/9b6d2fc2-6e25-4c0a-b4cb-3ca7f85be9b4"},"period":{"start":"2026-10-31T04:00:00+00:00","end":"2026-11-01T05:15:00+00:00"},"length":{"value":1.0,"unit":"days"}},"request":{"method":"PUT","url":"Encounter/d66807ac-9791-4bed-92e3-1e98da2c54b6"}},{"fullUrl":"https://madie.cms.gov/Encounter/1f29db9e-d03c-4e3e-90e7-91bf8f345bc1","resource":{"resourceType":"Encounter","id":"1f29db9e-d03c-4e3e-90e7-91bf8f345bc1","meta":{"profile":["http://hl7.org/fhir/us/qicore/StructureDefinition/qicore-encounter"]},"status":"finished","class":{"system":"http://terminology.hl7.org/CodeSystem/v3-ActCode","code":"IMP","display":"inpatient encounter"},"type":[{"coding":[{"system":"http://snomed.info/sct","code":"8715000"}]}],"subject":{"reference":"Patient/9b6d2fc2-6e25-4c0a-b4cb-3ca7f85be9b4"},"period":{"start":"2026-11-01T08:00:00+00:00","end":"2026-11-26T08:15:00+00:00"},"length":{"value":25.0,"unit":"days"}},"request":{"method":"PUT","url":"Encounter/1f29db9e-d03c-4e3e-90e7-91bf8f345bc1"}},{"fullUrl":"https://madie.cms.gov/Encounter/468dbb64-5799-4e1f-a043-68f23d415e12","resource":{"resourceType":"Encounter","id":"468dbb64-5799-4e1f-a043-68f23d415e12","meta":{"profile":["http://hl7.org/fhir/us/qicore/StructureDefinition/qicore-encounter"]},"status":"finished","class":{"system":"http://terminology.hl7.org/CodeSystem/v3-ActCode","code":"OBSENC","display":"observation encounter"},"type":[{"coding":[{"system":"http://snomed.info/sct","code":"448951000124107"}]}],"subject":{"reference":"Patient/9b6d2fc2-6e25-4c0a-b4cb-3ca7f85be9b4"},"period":{"start":"2026-11-01T05:20:00+00:00","end":"2026-11-01T06:30:00+00:00"}},"request":{"method":"PUT","url":"Encounter/468dbb64-5799-4e1f-a043-68f23d415e12"}},{"fullUrl":"https://madie.cms.gov/Procedure/dae3b7b9-9268-4a20-a110-5555b34ed4c9","resource":{"resourceType":"Procedure","id":"dae3b7b9-9268-4a20-a110-5555b34ed4c9","meta":{"profile":["http://hl7.org/fhir/us/qicore/StructureDefinition/qicore-procedure"]},"extension":[{"url":"http://hl7.org/fhir/us/qicore/StructureDefinition/qicore-recorded","valueDateTime":"2013-12-04T09:35:00-04:00"}],"status":"in-progress","code":{"coding":[{"system":"http://snomed.info/sct","code":"133918004"}]},"subject":{"reference":"Patient/9b6d2fc2-6e25-4c0a-b4cb-3ca7f85be9b4"},"performedPeriod":{"start":"2026-10-31T06:00:00+00:00"}},"request":{"method":"PUT","url":"Procedure/dae3b7b9-9268-4a20-a110-5555b34ed4c9"}},{"fullUrl":"https://madie.cms.gov/Coverage/eddadd54-177c-4946-9fc3-f411876a3a51","resource":{"resourceType":"Coverage","id":"eddadd54-177c-4946-9fc3-f411876a3a51","status":"active","beneficiary":{"reference":"Patient/9b6d2fc2-6e25-4c0a-b4cb-3ca7f85be9b4"},"period":{"start":"1975-01-02T08:00:00+00:00"},"payor":[{"reference":"Organization/607fdef9-3983-4cef-ab1a-95434d29b463"}]},"request":{"method":"PUT","url":"Coverage/eddadd54-177c-4946-9fc3-f411876a3a51"}},{"fullUrl":"https://madie.cms.gov/Organization/60ac98b4-0782-4d25-a905-39dc8decb673","resource":{"resourceType":"Organization","id":"607fdef9-3983-4cef-ab1a-95434d29b463","meta":{"profile":["http://hl7.org/fhir/us/qicore/StructureDefinition/qicore-organization"]},"identifier":[{"use":"temp","system":"urn:oid:2.16.840.1.113883.4.4","value":"21-3259825"}],"active":true,"type":[{"coding":[{"system":"http://terminology.hl7.org/CodeSystem/organization-type","code":"pay","display":"Payer"}]}],"name":"Blue Cross Blue Shield of Texas","telecom":[{"system":"phone","value":"(+1) 972-766-6900"}],"address":[{"use":"billing","type":"postal","line":["P.O. Box 660044"],"city":"Dallas","state":"TX","postalCode":"75266-0044","country":"USA"}]},"request":{"method":"PUT","url":"Organization/607fdef9-3983-4cef-ab1a-95434d29b463"}},{"fullUrl":"https://madie.cms.gov/Practitioner/4d64cd8d-f89f-40f7-abf3-2858f5aecdef","resource":{"resourceType":"Practitioner","id":"4d64cd8d-f89f-40f7-abf3-2858f5aecdef","identifier":[{"system":"http://hl7.org/fhir/sid/us-npi","value":"123456"}],"name":[{"family":"Evil","prefix":["Dr"]}]},"request":{"method":"PUT","url":"Practitioner/4d64cd8d-f89f-40f7-abf3-2858f5aecdef"}},{"fullUrl":"https://madie.cms.gov/MeasureReport/c95fbe9a-c288-4493-aa34-56a4b130b18d","resource":{"resourceType":"MeasureReport","id":"c95fbe9a-c288-4493-aa34-56a4b130b18d","meta":{"profile":["http://hl7.org/fhir/us/cqfmeasures/StructureDefinition/test-case-cqfm"]},"contained":[{"resourceType":"Parameters","id":"72ab49d2-c9f5-4bc5-8221-34d39e2391a5-parameters","parameter":[{"name":"subject","valueString":"9b6d2fc2-6e25-4c0a-b4cb-3ca7f85be9b4"}]}],"extension":[{"url":"http://hl7.org/fhir/us/cqfmeasures/StructureDefinition/cqfm-inputParameters","valueReference":{"reference":"#72ab49d2-c9f5-4bc5-8221-34d39e2391a5-parameters"}},{"url":"http://hl7.org/fhir/us/cqfmeasures/StructureDefinition/cqfm-testCaseDescription","valueMarkdown":"comfort measures performed in Observation, and Obs > 1hr prior to Adm. This case fails because CMO is 1 day before Adm.\n"}],"modifierExtension":[{"url":"http://hl7.org/fhir/us/cqfmeasures/StructureDefinition/cqfm-isTestCase","valueBoolean":true}],"status":"complete","type":"individual","measure":"https://madie.cms.gov/Measure/CMS108VTEProphylaxisFHIR","period":{"start":"2026-01-01","end":"2026-12-31"},"group":[{"population":[{"code":{"coding":[{"system":"http://terminology.hl7.org/CodeSystem/measure-population","code":"initial-population","display":"Initial Population"}]},"count":1},{"code":{"coding":[{"system":"http://terminology.hl7.org/CodeSystem/measure-population","code":"denominator","display":"Denominator"}]},"count":1},{"code":{"coding":[{"system":"http://terminology.hl7.org/CodeSystem/measure-population","code":"denominator-exclusion","display":"Denominator Exclusion"}]},"count":0},{"code":{"coding":[{"system":"http://terminology.hl7.org/CodeSystem/measure-population","code":"numerator","display":"Numerator"}]},"count":0}]}]},"request":{"method":"PUT","url":"MeasureReport/c95fbe9a-c288-4493-aa34-56a4b130b18d"}}]}