{"resourceType":"Bundle","id":"tests-4367cc89-c597-45b8-99b9-ccf6c84f2929-bundle","type":"transaction","entry":[{"fullUrl":"https://madie.cms.gov/Patient/4367cc89-c597-45b8-99b9-ccf6c84f2929","resource":{"resourceType":"Patient","id":"4367cc89-c597-45b8-99b9-ccf6c84f2929","meta":{"profile":["http://hl7.org/fhir/us/qicore/StructureDefinition/qicore-patient"]},"text":{"status":"generated","div":"<div xmlns=\"http://www.w3.org/1999/xhtml\"><div class=\"hapiHeaderText\">MA_Warfarin_DayOfAnes <b>NUMERPASS </b></div><table class=\"hapiPropertyTable\"><tbody><tr><td>Identifier</td><td>8a73949853d1489520b4f85cece6c975</td></tr><tr><td>Date of birth</td><td><span>02 January 1974</span></td></tr></tbody></table></div>"},"extension":[{"url":"http://hl7.org/fhir/us/core/StructureDefinition/us-core-race","extension":[{"url":"ombCategory","valueCoding":{"system":"urn:oid:2.16.840.1.113883.6.238","code":"1002-5","display":"American Indian or Alaska Native","userSelected":true}},{"url":"text","valueString":"American Indian or Alaska Native"}]},{"url":"http://hl7.org/fhir/us/core/StructureDefinition/us-core-ethnicity","extension":[{"url":"ombCategory","valueCoding":{"system":"urn:oid:2.16.840.1.113883.6.238","code":"2135-2","display":"Hispanic or Latino","userSelected":true}},{"url":"text","valueString":"Hispanic or Latino"}]}],"identifier":[{"type":{"coding":[{"system":"http://terminology.hl7.org/CodeSystem/v2-0203","code":"MR"}]},"system":"https://bonnie-fhir.healthit.gov/","value":"612e6a5e02c62a011f2e9d40"}],"active":true,"name":[{"use":"usual","family":"NUMERPass","given":["MA_Warfarin_DayOfAnes"]}],"gender":"male","birthDate":"1975-01-02"},"request":{"method":"PUT","url":"Patient/4367cc89-c597-45b8-99b9-ccf6c84f2929"}},{"fullUrl":"https://madie.cms.gov/Encounter/0d8db6e1-a6f3-4a9f-a936-5e99888fa4c1","resource":{"resourceType":"Encounter","id":"0d8db6e1-a6f3-4a9f-a936-5e99888fa4c1","meta":{"profile":["http://hl7.org/fhir/us/qicore/StructureDefinition/qicore-encounter"]},"status":"finished","class":{"system":"http://terminology.hl7.org/CodeSystem/v3-ActCode","code":"IMP","display":"inpatient encounter"},"type":[{"coding":[{"system":"http://snomed.info/sct","code":"8715000"}]}],"subject":{"reference":"Patient/4367cc89-c597-45b8-99b9-ccf6c84f2929"},"period":{"start":"2026-11-01T08:00:00+00:00","end":"2026-11-26T08:15:00+00:00"},"length":{"value":25.0,"unit":"days"}},"request":{"method":"PUT","url":"Encounter/0d8db6e1-a6f3-4a9f-a936-5e99888fa4c1"}},{"fullUrl":"https://madie.cms.gov/Coverage/3bf1d375-84cc-4d20-9a2e-fe48b002c1d0","resource":{"resourceType":"Coverage","id":"3bf1d375-84cc-4d20-9a2e-fe48b002c1d0","status":"active","beneficiary":{"reference":"Patient/4367cc89-c597-45b8-99b9-ccf6c84f2929"},"period":{"start":"1975-01-02T08:00:00+00:00"},"payor":[{"reference":"Organization/607fdef9-3983-4cef-ab1a-95434d29b463"}]},"request":{"method":"PUT","url":"Coverage/3bf1d375-84cc-4d20-9a2e-fe48b002c1d0"}},{"fullUrl":"https://madie.cms.gov/MedicationAdministration/cd3576f3-8b49-40ae-8bcd-bc4f26acdbbf","resource":{"resourceType":"MedicationAdministration","id":"cd3576f3-8b49-40ae-8bcd-bc4f26acdbbf","meta":{"profile":["http://hl7.org/fhir/us/qicore/StructureDefinition/qicore-medicationadministration"]},"status":"completed","medicationCodeableConcept":{"coding":[{"system":"http://www.nlm.nih.gov/research/umls/rxnorm","code":"855288"}]},"subject":{"reference":"Patient/4367cc89-c597-45b8-99b9-ccf6c84f2929"},"effectivePeriod":{"start":"2026-11-01T10:00:00+00:00","end":"2026-12-02T08:15:00+00:00"}},"request":{"method":"PUT","url":"MedicationAdministration/cd3576f3-8b49-40ae-8bcd-bc4f26acdbbf"}},{"fullUrl":"https://madie.cms.gov/Procedure/a6be641d-059c-4f56-a695-cd3f80d0c32f","resource":{"resourceType":"Procedure","id":"a6be641d-059c-4f56-a695-cd3f80d0c32f","meta":{"profile":["http://hl7.org/fhir/us/qicore/StructureDefinition/qicore-procedure"]},"extension":[{"url":"http://hl7.org/fhir/us/qicore/StructureDefinition/qicore-recorded","valueDateTime":"2013-11-01T09:35:00-04:00"}],"status":"completed","code":{"coding":[{"system":"http://www.icd10data.com/icd10pcs","code":"3E030FZ"},{"system":"http://snomed.info/sct","code":"18946005"}]},"subject":{"reference":"Patient/4367cc89-c597-45b8-99b9-ccf6c84f2929"},"performedPeriod":{"start":"2026-11-01T09:00:00+00:00","end":"2026-11-01T09:15:00+00:00"}},"request":{"method":"PUT","url":"Procedure/a6be641d-059c-4f56-a695-cd3f80d0c32f"}},{"fullUrl":"https://madie.cms.gov/Organization/6f6865de-b79a-4ff4-add9-0ca525c7ff6e","resource":{"resourceType":"Organization","id":"607fdef9-3983-4cef-ab1a-95434d29b463","meta":{"profile":["http://hl7.org/fhir/us/qicore/StructureDefinition/qicore-organization"]},"identifier":[{"use":"temp","system":"urn:oid:2.16.840.1.113883.4.4","value":"21-3259825"}],"active":true,"type":[{"coding":[{"system":"http://terminology.hl7.org/CodeSystem/organization-type","code":"pay","display":"Payer"}]}],"name":"Blue Cross Blue Shield of Texas","telecom":[{"system":"phone","value":"(+1) 972-766-6900"}],"address":[{"use":"billing","type":"postal","line":["P.O. Box 660044"],"city":"Dallas","state":"TX","postalCode":"75266-0044","country":"USA"}]},"request":{"method":"PUT","url":"Organization/607fdef9-3983-4cef-ab1a-95434d29b463"}},{"fullUrl":"https://madie.cms.gov/Practitioner/8ec02521-80ca-4546-8d9c-0b94bac1b0dc","resource":{"resourceType":"Practitioner","id":"8ec02521-80ca-4546-8d9c-0b94bac1b0dc","identifier":[{"system":"http://hl7.org/fhir/sid/us-npi","value":"123456"}],"name":[{"family":"Evil","prefix":["Dr"]}]},"request":{"method":"PUT","url":"Practitioner/8ec02521-80ca-4546-8d9c-0b94bac1b0dc"}},{"fullUrl":"https://madie.cms.gov/MeasureReport/e8369044-7784-47d2-9622-486c5a629613","resource":{"resourceType":"MeasureReport","id":"e8369044-7784-47d2-9622-486c5a629613","meta":{"profile":["http://hl7.org/fhir/us/cqfmeasures/StructureDefinition/test-case-cqfm"]},"contained":[{"resourceType":"Parameters","id":"88c3ae6b-95a2-4471-9b62-a7c952ee50c8-parameters","parameter":[{"name":"subject","valueString":"4367cc89-c597-45b8-99b9-ccf6c84f2929"}]}],"extension":[{"url":"http://hl7.org/fhir/us/cqfmeasures/StructureDefinition/cqfm-inputParameters","valueReference":{"reference":"#88c3ae6b-95a2-4471-9b62-a7c952ee50c8-parameters"}},{"url":"http://hl7.org/fhir/us/cqfmeasures/StructureDefinition/cqfm-testCaseDescription","valueMarkdown":"warfarin given = 0 day after end of anesthesia\n"}],"modifierExtension":[{"url":"http://hl7.org/fhir/us/cqfmeasures/StructureDefinition/cqfm-isTestCase","valueBoolean":true}],"status":"complete","type":"individual","measure":"https://madie.cms.gov/Measure/CMS108VTEProphylaxisFHIR","period":{"start":"2026-01-01","end":"2026-12-31"},"group":[{"population":[{"code":{"coding":[{"system":"http://terminology.hl7.org/CodeSystem/measure-population","code":"initial-population","display":"Initial Population"}]},"count":1},{"code":{"coding":[{"system":"http://terminology.hl7.org/CodeSystem/measure-population","code":"denominator","display":"Denominator"}]},"count":1},{"code":{"coding":[{"system":"http://terminology.hl7.org/CodeSystem/measure-population","code":"denominator-exclusion","display":"Denominator Exclusion"}]},"count":0},{"code":{"coding":[{"system":"http://terminology.hl7.org/CodeSystem/measure-population","code":"numerator","display":"Numerator"}]},"count":1}]}]},"request":{"method":"PUT","url":"MeasureReport/e8369044-7784-47d2-9622-486c5a629613"}}]}