{"resourceType":"Bundle","id":"tests-d8c5ec26-7d98-4461-899e-edfcfed7b058-bundle","type":"transaction","entry":[{"fullUrl":"https://madie.cms.gov/Patient/d8c5ec26-7d98-4461-899e-edfcfed7b058","resource":{"resourceType":"Patient","id":"d8c5ec26-7d98-4461-899e-edfcfed7b058","meta":{"profile":["http://hl7.org/fhir/us/qicore/StructureDefinition/qicore-patient"]},"text":{"status":"generated","div":"<div xmlns=\"http://www.w3.org/1999/xhtml\"><div class=\"hapiHeaderText\">MedReason_MO_LDUHep_DO_VFP_IPEnc <b>NUMERPASS </b></div><table class=\"hapiPropertyTable\"><tbody><tr><td>Identifier</td><td>cdd1ec13b77c1be95c04b9f3b51d6649</td></tr><tr><td>Date of birth</td><td><span>02 January 1974</span></td></tr></tbody></table></div>"},"extension":[{"url":"http://hl7.org/fhir/us/core/StructureDefinition/us-core-race","extension":[{"url":"ombCategory","valueCoding":{"system":"urn:oid:2.16.840.1.113883.6.238","code":"1002-5","display":"American Indian or Alaska Native","userSelected":true}},{"url":"text","valueString":"American Indian or Alaska Native"}]},{"url":"http://hl7.org/fhir/us/core/StructureDefinition/us-core-ethnicity","extension":[{"url":"ombCategory","valueCoding":{"system":"urn:oid:2.16.840.1.113883.6.238","code":"2135-2","display":"Hispanic or Latino","userSelected":true}},{"url":"text","valueString":"Hispanic or Latino"}]}],"identifier":[{"type":{"coding":[{"system":"http://terminology.hl7.org/CodeSystem/v2-0203","code":"MR"}]},"system":"https://bonnie-fhir.healthit.gov/","value":"612e6a8402c62a011f2ea3c7"}],"active":true,"name":[{"use":"usual","family":"NUMERPass","given":["MedReason_MO_LDUHep_DO_VFP_IPEnc"]}],"gender":"male","birthDate":"1975-01-02"},"request":{"method":"PUT","url":"Patient/d8c5ec26-7d98-4461-899e-edfcfed7b058"}},{"fullUrl":"https://madie.cms.gov/Encounter/8c3e96c4-cc49-4988-92af-38480adee5c3","resource":{"resourceType":"Encounter","id":"8c3e96c4-cc49-4988-92af-38480adee5c3","meta":{"profile":["http://hl7.org/fhir/us/qicore/StructureDefinition/qicore-encounter"]},"status":"finished","class":{"system":"http://terminology.hl7.org/CodeSystem/v3-ActCode","code":"IMP","display":"inpatient encounter"},"type":[{"coding":[{"system":"http://snomed.info/sct","code":"8715000"}]}],"subject":{"reference":"Patient/d8c5ec26-7d98-4461-899e-edfcfed7b058"},"period":{"start":"2026-11-01T08:00:00+00:00","end":"2026-11-26T08:15:00+00:00"},"length":{"value":25.0,"unit":"days"}},"request":{"method":"PUT","url":"Encounter/8c3e96c4-cc49-4988-92af-38480adee5c3"}},{"fullUrl":"https://madie.cms.gov/Coverage/b14fa09c-f198-418c-8ceb-b9b6d8b8b85b","resource":{"resourceType":"Coverage","id":"b14fa09c-f198-418c-8ceb-b9b6d8b8b85b","status":"active","beneficiary":{"reference":"Patient/d8c5ec26-7d98-4461-899e-edfcfed7b058"},"period":{"start":"1975-01-02T08:00:00+00:00"},"payor":[{"reference":"Organization/3e899f33-84eb-4634-a770-a5a0bd7a80e7"}]},"request":{"method":"PUT","url":"Coverage/b14fa09c-f198-418c-8ceb-b9b6d8b8b85b"}},{"fullUrl":"https://madie.cms.gov/MedicationRequest/e6350d03-8bfa-455e-a395-abf5914f0610","resource":{"resourceType":"MedicationRequest","id":"e6350d03-8bfa-455e-a395-abf5914f0610","meta":{"profile":["http://hl7.org/fhir/us/qicore/StructureDefinition/qicore-mednotrequested"]},"status":"completed","intent":"order","category":[{"coding":[{"system":"http://terminology.hl7.org/CodeSystem/medicationrequest-category","code":"community"}]}],"doNotPerform":true,"medicationCodeableConcept":{"coding":[{"system":"http://www.nlm.nih.gov/research/umls/rxnorm","code":"1361574"}]},"subject":{"reference":"Patient/d8c5ec26-7d98-4461-899e-edfcfed7b058"},"authoredOn":"2026-11-01T09:00:00+00:00","requester":{"reference":"Practitioner/123456"},"reasonCode":[{"coding":[{"system":"http://snomed.info/sct","code":"183932001","display":"Procedure contraindicated (situation)","userSelected":true}]}],"dosageInstruction":[{"timing":{"repeat":{"boundsPeriod":{"start":"2026-11-01T09:00:00+00:00"}}}}]},"request":{"method":"PUT","url":"MedicationRequest/e6350d03-8bfa-455e-a395-abf5914f0610"}},{"fullUrl":"https://madie.cms.gov/ServiceRequest/e9ea5254-fc37-4d4e-b85f-d7b1760db3b4","resource":{"resourceType":"ServiceRequest","id":"e9ea5254-fc37-4d4e-b85f-d7b1760db3b4","meta":{"profile":["http://hl7.org/fhir/us/qicore/StructureDefinition/qicore-servicenotrequested"]},"extension":[{"url":"http://hl7.org/fhir/us/qicore/StructureDefinition/qicore-doNotPerformReason","valueCodeableConcept":{"coding":[{"system":"http://snomed.info/sct","code":"183932001","display":"Procedure contraindicated (situation)"}]}}],"status":"completed","intent":"order","doNotPerform":true,"code":{"coding":[{"system":"http://snomed.info/sct","version":"2025-03","code":"442023007","display":"Venous foot pump, device (physical object)","userSelected":true}]},"subject":{"reference":"Patient/d8c5ec26-7d98-4461-899e-edfcfed7b058"},"authoredOn":"2026-11-01T09:00:00+00:00"},"request":{"method":"PUT","url":"ServiceRequest/e9ea5254-fc37-4d4e-b85f-d7b1760db3b4"}},{"fullUrl":"https://madie.cms.gov/Organization/a9dcbb02-966c-4a97-b07f-61c6f1aedddf","resource":{"resourceType":"Organization","id":"3e899f33-84eb-4634-a770-a5a0bd7a80e7","meta":{"profile":["http://hl7.org/fhir/us/qicore/StructureDefinition/qicore-organization"]},"identifier":[{"use":"temp","system":"urn:oid:2.16.840.1.113883.4.4","value":"21-3259825"}],"active":true,"type":[{"coding":[{"system":"http://terminology.hl7.org/CodeSystem/organization-type","code":"pay","display":"Payer"}]}],"name":"Blue Cross Blue Shield of Texas","telecom":[{"system":"phone","value":"(+1) 972-766-6900"}],"address":[{"use":"billing","type":"postal","line":["P.O. Box 660044"],"city":"Dallas","state":"TX","postalCode":"75266-0044","country":"USA"}]},"request":{"method":"PUT","url":"Organization/3e899f33-84eb-4634-a770-a5a0bd7a80e7"}},{"fullUrl":"https://madie.cms.gov/Practitioner/86833d6e-e545-49f0-b632-c6451b348d56","resource":{"resourceType":"Practitioner","id":"86833d6e-e545-49f0-b632-c6451b348d56","identifier":[{"system":"http://hl7.org/fhir/sid/us-npi","value":"123456"}],"name":[{"family":"Evil","prefix":["Dr"]}]},"request":{"method":"PUT","url":"Practitioner/86833d6e-e545-49f0-b632-c6451b348d56"}},{"fullUrl":"https://madie.cms.gov/MeasureReport/44d7b762-24a8-452f-8565-c73aee3011c9","resource":{"resourceType":"MeasureReport","id":"44d7b762-24a8-452f-8565-c73aee3011c9","meta":{"profile":["http://hl7.org/fhir/us/cqfmeasures/StructureDefinition/test-case-cqfm"]},"contained":[{"resourceType":"Parameters","id":"c49cce31-9bef-4d29-b059-04878b05b5ae-parameters","parameter":[{"name":"subject","valueString":"d8c5ec26-7d98-4461-899e-edfcfed7b058"}]}],"extension":[{"url":"http://hl7.org/fhir/us/cqfmeasures/StructureDefinition/cqfm-inputParameters","valueReference":{"reference":"#c49cce31-9bef-4d29-b059-04878b05b5ae-parameters"}},{"url":"http://hl7.org/fhir/us/cqfmeasures/StructureDefinition/cqfm-testCaseDescription","valueMarkdown":"venous foot pump not ordered and low dose unfractionated heparin not ordered due to  medical reason <= 1 day after start of IP encounter\n"}],"modifierExtension":[{"url":"http://hl7.org/fhir/us/cqfmeasures/StructureDefinition/cqfm-isTestCase","valueBoolean":true}],"status":"complete","type":"individual","measure":"https://madie.cms.gov/Measure/CMS108VTEProphylaxisFHIR","period":{"start":"2026-01-01","end":"2026-12-31"},"group":[{"population":[{"code":{"coding":[{"system":"http://terminology.hl7.org/CodeSystem/measure-population","code":"initial-population","display":"Initial Population"}]},"count":1},{"code":{"coding":[{"system":"http://terminology.hl7.org/CodeSystem/measure-population","code":"denominator","display":"Denominator"}]},"count":1},{"code":{"coding":[{"system":"http://terminology.hl7.org/CodeSystem/measure-population","code":"denominator-exclusion","display":"Denominator Exclusion"}]},"count":0},{"code":{"coding":[{"system":"http://terminology.hl7.org/CodeSystem/measure-population","code":"numerator","display":"Numerator"}]},"count":1}]}]},"request":{"method":"PUT","url":"MeasureReport/44d7b762-24a8-452f-8565-c73aee3011c9"}}]}