{"resourceType":"Bundle","id":"tests-90914261-db25-4012-b8c8-f75aab8ec6c9-bundle","type":"transaction","entry":[{"fullUrl":"https://madie.cms.gov/Patient/90914261-db25-4012-b8c8-f75aab8ec6c9","resource":{"resourceType":"Patient","id":"90914261-db25-4012-b8c8-f75aab8ec6c9","meta":{"profile":["http://hl7.org/fhir/us/qicore/StructureDefinition/qicore-patient"]},"text":{"status":"generated","div":"<div xmlns=\"http://www.w3.org/1999/xhtml\"><div class=\"hapiHeaderText\">Age18DayAfterEncStart <b>IPPFAIL </b></div><table class=\"hapiPropertyTable\"><tbody><tr><td>Identifier</td><td>6b2b5cdc09eff49c605f5750bbfe2765</td></tr><tr><td>Date of birth</td><td><span>03 September 2003</span></td></tr></tbody></table></div>"},"extension":[{"url":"http://hl7.org/fhir/us/core/StructureDefinition/us-core-race","extension":[{"url":"ombCategory","valueCoding":{"system":"urn:oid:2.16.840.1.113883.6.238","code":"1002-5","display":"American Indian or Alaska Native","userSelected":true}},{"url":"text","valueString":"American Indian or Alaska Native"}]},{"url":"http://hl7.org/fhir/us/core/StructureDefinition/us-core-ethnicity","extension":[{"url":"ombCategory","valueCoding":{"system":"urn:oid:2.16.840.1.113883.6.238","code":"2135-2","display":"Hispanic or Latino","userSelected":true}},{"url":"text","valueString":"Hispanic or Latino"}]}],"identifier":[{"type":{"coding":[{"system":"http://terminology.hl7.org/CodeSystem/v2-0203","code":"MR"}]},"system":"https://bonnie-fhir.healthit.gov/","value":"612e6b6502c62a011f2ed9a4"}],"active":true,"name":[{"use":"usual","family":"IPPFail","given":["Age18DayAfterEncStart"]}],"gender":"unknown","birthDate":"2008-09-03"},"request":{"method":"PUT","url":"Patient/90914261-db25-4012-b8c8-f75aab8ec6c9"}},{"fullUrl":"https://madie.cms.gov/Encounter/6995d4de-feb9-4c59-87fe-592f86a0c612","resource":{"resourceType":"Encounter","id":"6995d4de-feb9-4c59-87fe-592f86a0c612","meta":{"profile":["http://hl7.org/fhir/us/qicore/StructureDefinition/qicore-encounter"]},"status":"finished","class":{"system":"http://terminology.hl7.org/CodeSystem/v3-ActCode","code":"IMP","display":"inpatient encounter"},"type":[{"coding":[{"system":"http://snomed.info/sct","code":"183452005"}]}],"subject":{"reference":"Patient/90914261-db25-4012-b8c8-f75aab8ec6c9"},"period":{"start":"2026-09-02T12:59:00+00:00","end":"2026-12-31T12:59:00+00:00"},"length":{"value":120,"unit":"days"}},"request":{"method":"PUT","url":"Encounter/6995d4de-feb9-4c59-87fe-592f86a0c612"}},{"fullUrl":"https://madie.cms.gov/Coverage/5d99010e-dc59-49be-a9e7-41e5908c1044","resource":{"resourceType":"Coverage","id":"5d99010e-dc59-49be-a9e7-41e5908c1044","status":"active","beneficiary":{"reference":"Patient/90914261-db25-4012-b8c8-f75aab8ec6c9"},"period":{"start":"2007-09-03T08:00:00+00:00"},"payor":[{"reference":"Organization/18ca435c-cae6-4c34-8033-af717477f9fc"}]},"request":{"method":"PUT","url":"Coverage/5d99010e-dc59-49be-a9e7-41e5908c1044"}},{"fullUrl":"https://madie.cms.gov/Organization/6659e4d8-7182-428b-a05a-3235bd800593","resource":{"resourceType":"Organization","id":"18ca435c-cae6-4c34-8033-af717477f9fc","meta":{"profile":["http://hl7.org/fhir/us/qicore/StructureDefinition/qicore-organization"]},"identifier":[{"use":"temp","system":"urn:oid:2.16.840.1.113883.4.4","value":"21-3259825"}],"active":true,"type":[{"coding":[{"system":"http://terminology.hl7.org/CodeSystem/organization-type","code":"pay","display":"Payer"}]}],"name":"Blue Cross Blue Shield of Texas","telecom":[{"system":"phone","value":"(+1) 972-766-6900"}],"address":[{"use":"billing","type":"postal","line":["P.O. Box 660044"],"city":"Dallas","state":"TX","postalCode":"75266-0044","country":"USA"}]},"request":{"method":"PUT","url":"Organization/18ca435c-cae6-4c34-8033-af717477f9fc"}},{"fullUrl":"https://madie.cms.gov/Practitioner/4c8651f5-35d6-44b6-b3b6-2cf144cbadcf","resource":{"resourceType":"Practitioner","id":"4c8651f5-35d6-44b6-b3b6-2cf144cbadcf","identifier":[{"system":"http://hl7.org/fhir/sid/us-npi","value":"123456"}],"name":[{"family":"Evil","prefix":["Dr"]}]},"request":{"method":"PUT","url":"Practitioner/4c8651f5-35d6-44b6-b3b6-2cf144cbadcf"}},{"fullUrl":"https://madie.cms.gov/MeasureReport/934ba83d-1718-4f83-8632-f98c4ab09344","resource":{"resourceType":"MeasureReport","id":"934ba83d-1718-4f83-8632-f98c4ab09344","meta":{"profile":["http://hl7.org/fhir/us/cqfmeasures/StructureDefinition/test-case-cqfm"]},"contained":[{"resourceType":"Parameters","id":"b39011da-adbb-409d-b1a7-5417b3b65da9-parameters","parameter":[{"name":"subject","valueString":"90914261-db25-4012-b8c8-f75aab8ec6c9"}]}],"extension":[{"url":"http://hl7.org/fhir/us/cqfmeasures/StructureDefinition/cqfm-inputParameters","valueReference":{"reference":"#b39011da-adbb-409d-b1a7-5417b3b65da9-parameters"}},{"url":"http://hl7.org/fhir/us/cqfmeasures/StructureDefinition/cqfm-testCaseDescription","valueMarkdown":"Patient turns 18 day after inpatient admission\n"}],"modifierExtension":[{"url":"http://hl7.org/fhir/us/cqfmeasures/StructureDefinition/cqfm-isTestCase","valueBoolean":true}],"status":"complete","type":"individual","measure":"https://madie.cms.gov/Measure/CMS108VTEProphylaxisFHIR","period":{"start":"2026-01-01","end":"2026-12-31"},"group":[{"population":[{"code":{"coding":[{"system":"http://terminology.hl7.org/CodeSystem/measure-population","code":"initial-population","display":"Initial Population"}]},"count":0},{"code":{"coding":[{"system":"http://terminology.hl7.org/CodeSystem/measure-population","code":"denominator","display":"Denominator"}]},"count":0},{"code":{"coding":[{"system":"http://terminology.hl7.org/CodeSystem/measure-population","code":"denominator-exclusion","display":"Denominator Exclusion"}]},"count":0},{"code":{"coding":[{"system":"http://terminology.hl7.org/CodeSystem/measure-population","code":"numerator","display":"Numerator"}]},"count":0}]}]},"request":{"method":"PUT","url":"MeasureReport/934ba83d-1718-4f83-8632-f98c4ab09344"}}]}