{"resourceType":"Bundle","id":"tests-d170a0a8-b5ad-4303-b6df-e304dd5f92ad-bundle","type":"transaction","entry":[{"fullUrl":"https://madie.cms.gov/Patient/d170a0a8-b5ad-4303-b6df-e304dd5f92ad","resource":{"resourceType":"Patient","id":"d170a0a8-b5ad-4303-b6df-e304dd5f92ad","meta":{"profile":["http://hl7.org/fhir/us/qicore/StructureDefinition/qicore-patient"]},"text":{"status":"generated","div":"<div xmlns=\"http://www.w3.org/1999/xhtml\"><div class=\"hapiHeaderText\">PrincDxIschStroke <b>DENEXPASS </b></div><table class=\"hapiPropertyTable\"><tbody><tr><td>Identifier</td><td>29c9716eb5f48b54d7b337bf497e0e5e</td></tr><tr><td>Date of birth</td><td><span>01 December 2003</span></td></tr></tbody></table></div>"},"extension":[{"url":"http://hl7.org/fhir/us/core/StructureDefinition/us-core-race","extension":[{"url":"ombCategory","valueCoding":{"system":"urn:oid:2.16.840.1.113883.6.238","code":"1002-5","display":"American Indian or Alaska Native","userSelected":true}},{"url":"text","valueString":"American Indian or Alaska Native"}]},{"url":"http://hl7.org/fhir/us/core/StructureDefinition/us-core-ethnicity","extension":[{"url":"ombCategory","valueCoding":{"system":"urn:oid:2.16.840.1.113883.6.238","code":"2135-2","display":"Hispanic or Latino","userSelected":true}},{"url":"text","valueString":"Hispanic or Latino"}]}],"identifier":[{"type":{"coding":[{"system":"http://terminology.hl7.org/CodeSystem/v2-0203","code":"MR"}]},"system":"https://bonnie-fhir.healthit.gov/","value":"612e6afd02c62a011f2ec06f"}],"active":true,"name":[{"use":"usual","family":"DENEXPass","given":["PrincDxIschStroke"]}],"gender":"male","birthDate":"2003-12-01"},"request":{"method":"PUT","url":"Patient/d170a0a8-b5ad-4303-b6df-e304dd5f92ad"}},{"fullUrl":"https://madie.cms.gov/Encounter/c40dfbef-fbfe-4564-8b8f-008c1320055f","resource":{"resourceType":"Encounter","id":"c40dfbef-fbfe-4564-8b8f-008c1320055f","meta":{"profile":["http://hl7.org/fhir/us/qicore/StructureDefinition/qicore-encounter"]},"status":"finished","class":{"system":"http://terminology.hl7.org/CodeSystem/v3-ActCode","code":"IMP","display":"inpatient encounter"},"type":[{"coding":[{"system":"http://snomed.info/sct","code":"183452005"}]}],"subject":{"reference":"Patient/d170a0a8-b5ad-4303-b6df-e304dd5f92ad"},"period":{"start":"2026-12-01T00:00:00+00:00","end":"2026-12-31T23:59:00+00:00"},"length":{"value":30,"unit":"days"},"diagnosis":[{"condition":{"reference":"Condition/0e36b639-2a00-4ffc-a8fd-0862af7e15d0"},"use":{"coding":[{"system":"http://terminology.hl7.org/CodeSystem/diagnosis-role","code":"billing"}]},"rank":1}]},"request":{"method":"PUT","url":"Encounter/c40dfbef-fbfe-4564-8b8f-008c1320055f"}},{"fullUrl":"https://madie.cms.gov/Coverage/ee4e4724-5216-4954-b0c6-6cd99a2dc335","resource":{"resourceType":"Coverage","id":"ee4e4724-5216-4954-b0c6-6cd99a2dc335","status":"active","beneficiary":{"reference":"Patient/d170a0a8-b5ad-4303-b6df-e304dd5f92ad"},"period":{"start":"2004-12-01T01:00:00+00:00"},"payor":[{"reference":"Organization/3e899f33-84eb-4634-a770-a5a0bd7a80e7"}]},"request":{"method":"PUT","url":"Coverage/ee4e4724-5216-4954-b0c6-6cd99a2dc335"}},{"fullUrl":"https://madie.cms.gov/Condition/0e36b639-2a00-4ffc-a8fd-0862af7e15d0","resource":{"resourceType":"Condition","id":"0e36b639-2a00-4ffc-a8fd-0862af7e15d0","meta":{"profile":["http://hl7.org/fhir/us/qicore/StructureDefinition/qicore-condition"]},"category":[{"coding":[{"system":"http://terminology.hl7.org/CodeSystem/condition-category","code":"encounter-diagnosis","display":"Encounter Diagnosis"}]}],"code":{"coding":[{"system":"http://snomed.info/sct","version":"2025-03","code":"111297002","display":"Nonparalytic stroke (disorder)","userSelected":true}]},"subject":{"reference":"Patient/d170a0a8-b5ad-4303-b6df-e304dd5f92ad"},"recordedDate":"2026-07-13T08:00:00.000+00:00"},"request":{"method":"PUT","url":"Condition/0e36b639-2a00-4ffc-a8fd-0862af7e15d0"}},{"fullUrl":"https://madie.cms.gov/Organization/bdd23116-90f3-4995-8a7c-adf82f9fc967","resource":{"resourceType":"Organization","id":"3e899f33-84eb-4634-a770-a5a0bd7a80e7","meta":{"profile":["http://hl7.org/fhir/us/qicore/StructureDefinition/qicore-organization"]},"identifier":[{"use":"temp","system":"urn:oid:2.16.840.1.113883.4.4","value":"21-3259825"}],"active":true,"type":[{"coding":[{"system":"http://terminology.hl7.org/CodeSystem/organization-type","code":"pay","display":"Payer"}]}],"name":"Blue Cross Blue Shield of Texas","telecom":[{"system":"phone","value":"(+1) 972-766-6900"}],"address":[{"use":"billing","type":"postal","line":["P.O. Box 660044"],"city":"Dallas","state":"TX","postalCode":"75266-0044","country":"USA"}]},"request":{"method":"PUT","url":"Organization/3e899f33-84eb-4634-a770-a5a0bd7a80e7"}},{"fullUrl":"https://madie.cms.gov/Practitioner/472fa0f1-af18-4d82-a43e-68ba4f78bab7","resource":{"resourceType":"Practitioner","id":"472fa0f1-af18-4d82-a43e-68ba4f78bab7","identifier":[{"system":"http://hl7.org/fhir/sid/us-npi","value":"123456"}],"name":[{"family":"Evil","prefix":["Dr"]}]},"request":{"method":"PUT","url":"Practitioner/472fa0f1-af18-4d82-a43e-68ba4f78bab7"}},{"fullUrl":"https://madie.cms.gov/MeasureReport/234079e7-2ac0-4982-9660-cd05625d6a26","resource":{"resourceType":"MeasureReport","id":"234079e7-2ac0-4982-9660-cd05625d6a26","meta":{"profile":["http://hl7.org/fhir/us/cqfmeasures/StructureDefinition/test-case-cqfm"]},"contained":[{"resourceType":"Parameters","id":"31e549c0-ba35-4b39-b847-bf377c363768-parameters","parameter":[{"name":"subject","valueString":"d170a0a8-b5ad-4303-b6df-e304dd5f92ad"}]}],"extension":[{"url":"http://hl7.org/fhir/us/cqfmeasures/StructureDefinition/cqfm-inputParameters","valueReference":{"reference":"#31e549c0-ba35-4b39-b847-bf377c363768-parameters"}},{"url":"http://hl7.org/fhir/us/cqfmeasures/StructureDefinition/cqfm-testCaseDescription","valueMarkdown":"Principal Dx of IschStroke, also test Race and Gender\n"}],"modifierExtension":[{"url":"http://hl7.org/fhir/us/cqfmeasures/StructureDefinition/cqfm-isTestCase","valueBoolean":true}],"status":"complete","type":"individual","measure":"https://madie.cms.gov/Measure/CMS108VTEProphylaxisFHIR","period":{"start":"2026-01-01","end":"2026-12-31"},"group":[{"population":[{"code":{"coding":[{"system":"http://terminology.hl7.org/CodeSystem/measure-population","code":"initial-population","display":"Initial Population"}]},"count":1},{"code":{"coding":[{"system":"http://terminology.hl7.org/CodeSystem/measure-population","code":"denominator","display":"Denominator"}]},"count":1},{"code":{"coding":[{"system":"http://terminology.hl7.org/CodeSystem/measure-population","code":"denominator-exclusion","display":"Denominator Exclusion"}]},"count":1},{"code":{"coding":[{"system":"http://terminology.hl7.org/CodeSystem/measure-population","code":"numerator","display":"Numerator"}]},"count":0}]}]},"request":{"method":"PUT","url":"MeasureReport/234079e7-2ac0-4982-9660-cd05625d6a26"}}]}