{"resourceType":"Bundle","id":"tests-316da95d-60f2-4a74-9a28-7a4adb7c0098-bundle","type":"transaction","entry":[{"fullUrl":"https://madie.cms.gov/Patient/316da95d-60f2-4a74-9a28-7a4adb7c0098","resource":{"resourceType":"Patient","id":"316da95d-60f2-4a74-9a28-7a4adb7c0098","meta":{"profile":["http://hl7.org/fhir/us/qicore/StructureDefinition/qicore-patient"]},"text":{"status":"generated","div":"<div xmlns=\"http://www.w3.org/1999/xhtml\"><div class=\"hapiHeaderText\">EncB4MP <b>IPPFAIL </b></div><table class=\"hapiPropertyTable\"><tbody><tr><td>Identifier</td><td>2d99ac3a4fb95c3e67df4d790ccc8402</td></tr><tr><td>Date of birth</td><td><span>01 January 2009</span></td></tr></tbody></table></div>"},"extension":[{"url":"http://hl7.org/fhir/us/core/StructureDefinition/us-core-race","extension":[{"url":"ombCategory","valueCoding":{"system":"urn:oid:2.16.840.1.113883.6.238","code":"1002-5","display":"American Indian or Alaska Native","userSelected":true}},{"url":"text","valueString":"American Indian or Alaska Native"}]},{"url":"http://hl7.org/fhir/us/core/StructureDefinition/us-core-ethnicity","extension":[{"url":"ombCategory","valueCoding":{"system":"urn:oid:2.16.840.1.113883.6.238","code":"2135-2","display":"Hispanic or Latino","userSelected":true}},{"url":"text","valueString":"Hispanic or Latino"}]}],"identifier":[{"type":{"coding":[{"system":"http://terminology.hl7.org/CodeSystem/v2-0203","code":"MR"}]},"system":"https://bonnie-fhir.healthit.gov/","value":"612e6a4f02c62a011f2e9958"}],"active":true,"name":[{"use":"usual","family":"IPPFail","given":["EncB4MP"]}],"gender":"male","birthDate":"2010-01-01"},"request":{"method":"PUT","url":"Patient/316da95d-60f2-4a74-9a28-7a4adb7c0098"}},{"fullUrl":"https://madie.cms.gov/Encounter/8cc89b46-bccb-4f59-b4f7-c1783d8816c4","resource":{"resourceType":"Encounter","id":"8cc89b46-bccb-4f59-b4f7-c1783d8816c4","meta":{"profile":["http://hl7.org/fhir/us/qicore/StructureDefinition/qicore-encounter"]},"status":"finished","class":{"system":"http://terminology.hl7.org/CodeSystem/v3-ActCode","code":"IMP","display":"inpatient encounter"},"type":[{"coding":[{"system":"http://snomed.info/sct","code":"8715000"}]}],"subject":{"reference":"Patient/316da95d-60f2-4a74-9a28-7a4adb7c0098"},"period":{"start":"2026-11-01T08:00:00.000+00:00","end":"2026-11-26T08:15:00.000+00:00"},"length":{"value":329.0,"unit":"days"}},"request":{"method":"PUT","url":"Encounter/8cc89b46-bccb-4f59-b4f7-c1783d8816c4"}},{"fullUrl":"https://madie.cms.gov/Coverage/fe44b169-95bf-444e-914e-7238ab70636f","resource":{"resourceType":"Coverage","id":"fe44b169-95bf-444e-914e-7238ab70636f","status":"active","beneficiary":{"reference":"Patient/316da95d-60f2-4a74-9a28-7a4adb7c0098"},"period":{"start":"2010-01-01T08:00:00+00:00"},"payor":[{"reference":"Organization/3e899f33-84eb-4634-a770-a5a0bd7a80e7"}]},"request":{"method":"PUT","url":"Coverage/fe44b169-95bf-444e-914e-7238ab70636f"}},{"fullUrl":"https://madie.cms.gov/MedicationAdministration/ea602e74-849e-4bbd-8039-9d2c77971eaf","resource":{"resourceType":"MedicationAdministration","id":"ea602e74-849e-4bbd-8039-9d2c77971eaf","status":"completed","medicationCodeableConcept":{"coding":[{"system":"http://www.nlm.nih.gov/research/umls/rxnorm","code":"854228"}]},"subject":{"reference":"Patient/316da95d-60f2-4a74-9a28-7a4adb7c0098"},"effectivePeriod":{"start":"2021-11-01T08:10:00+00:00","end":"2021-12-26T08:15:00+00:00"}},"request":{"method":"PUT","url":"MedicationAdministration/ea602e74-849e-4bbd-8039-9d2c77971eaf"}},{"fullUrl":"https://madie.cms.gov/Organization/74117d51-d663-4d1f-9821-cca3c9554889","resource":{"resourceType":"Organization","id":"3e899f33-84eb-4634-a770-a5a0bd7a80e7","meta":{"profile":["http://hl7.org/fhir/us/qicore/StructureDefinition/qicore-organization"]},"identifier":[{"use":"temp","system":"urn:oid:2.16.840.1.113883.4.4","value":"21-3259825"}],"active":true,"type":[{"coding":[{"system":"http://terminology.hl7.org/CodeSystem/organization-type","code":"pay","display":"Payer"}]}],"name":"Blue Cross Blue Shield of Texas","telecom":[{"system":"phone","value":"(+1) 972-766-6900"}],"address":[{"use":"billing","type":"postal","line":["P.O. Box 660044"],"city":"Dallas","state":"TX","postalCode":"75266-0044","country":"USA"}]},"request":{"method":"PUT","url":"Organization/3e899f33-84eb-4634-a770-a5a0bd7a80e7"}},{"fullUrl":"https://madie.cms.gov/Practitioner/c610f836-8a16-4596-809a-889cc4b70fb9","resource":{"resourceType":"Practitioner","id":"c610f836-8a16-4596-809a-889cc4b70fb9","identifier":[{"system":"http://hl7.org/fhir/sid/us-npi","value":"123456"}],"name":[{"family":"Evil","prefix":["Dr"]}]},"request":{"method":"PUT","url":"Practitioner/c610f836-8a16-4596-809a-889cc4b70fb9"}},{"fullUrl":"https://madie.cms.gov/MeasureReport/c9f0a91b-d3af-48cb-9f81-c14c9b1fdef9","resource":{"resourceType":"MeasureReport","id":"c9f0a91b-d3af-48cb-9f81-c14c9b1fdef9","meta":{"profile":["http://hl7.org/fhir/us/cqfmeasures/StructureDefinition/test-case-cqfm"]},"contained":[{"resourceType":"Parameters","id":"76c9b4e9-66da-482e-847a-68ed3c314187-parameters","parameter":[{"name":"subject","valueString":"316da95d-60f2-4a74-9a28-7a4adb7c0098"}]}],"extension":[{"url":"http://hl7.org/fhir/us/cqfmeasures/StructureDefinition/cqfm-inputParameters","valueReference":{"reference":"#76c9b4e9-66da-482e-847a-68ed3c314187-parameters"}},{"url":"http://hl7.org/fhir/us/cqfmeasures/StructureDefinition/cqfm-testCaseDescription","valueMarkdown":"Age < 18 and encounter before MP\n"}],"modifierExtension":[{"url":"http://hl7.org/fhir/us/cqfmeasures/StructureDefinition/cqfm-isTestCase","valueBoolean":true}],"status":"complete","type":"individual","measure":"https://madie.cms.gov/Measure/CMS108VTEProphylaxisFHIR","period":{"start":"2026-01-01","end":"2026-12-31"},"group":[{"population":[{"code":{"coding":[{"system":"http://terminology.hl7.org/CodeSystem/measure-population","code":"initial-population","display":"Initial Population"}]},"count":0},{"code":{"coding":[{"system":"http://terminology.hl7.org/CodeSystem/measure-population","code":"denominator","display":"Denominator"}]},"count":0},{"code":{"coding":[{"system":"http://terminology.hl7.org/CodeSystem/measure-population","code":"denominator-exclusion","display":"Denominator Exclusion"}]},"count":0},{"code":{"coding":[{"system":"http://terminology.hl7.org/CodeSystem/measure-population","code":"numerator","display":"Numerator"}]},"count":0}]}]},"request":{"method":"PUT","url":"MeasureReport/c9f0a91b-d3af-48cb-9f81-c14c9b1fdef9"}}]}