{"resourceType":"Bundle","id":"tests-b6d4f313-21b9-4cd8-9e6f-b682d176a73f-bundle","type":"transaction","entry":[{"fullUrl":"https://madie.cms.gov/Patient/b6d4f313-21b9-4cd8-9e6f-b682d176a73f","resource":{"resourceType":"Patient","id":"b6d4f313-21b9-4cd8-9e6f-b682d176a73f","meta":{"profile":["http://hl7.org/fhir/us/qicore/StructureDefinition/qicore-patient"]},"text":{"status":"generated","div":"<div xmlns=\"http://www.w3.org/1999/xhtml\"><div class=\"hapiHeaderText\">TestMultipleOccur_1inDen1inNum <b>NUMERPASS </b></div><table class=\"hapiPropertyTable\"><tbody><tr><td>Identifier</td><td>3dff356c8720a84124e00f025cdf399b9398c53f7885da6a8793a56d4f59a3df</td></tr><tr><td>Date of birth</td><td><span>02 January 1974</span></td></tr></tbody></table></div>"},"extension":[{"url":"http://hl7.org/fhir/us/core/StructureDefinition/us-core-race","extension":[{"url":"ombCategory","valueCoding":{"system":"urn:oid:2.16.840.1.113883.6.238","code":"1002-5","display":"American Indian or Alaska Native","userSelected":true}},{"url":"text","valueString":"American Indian or Alaska Native"}]},{"url":"http://hl7.org/fhir/us/core/StructureDefinition/us-core-ethnicity","extension":[{"url":"ombCategory","valueCoding":{"system":"urn:oid:2.16.840.1.113883.6.238","code":"2135-2","display":"Hispanic or Latino","userSelected":true}},{"url":"text","valueString":"Hispanic or Latino"}]}],"identifier":[{"type":{"coding":[{"system":"http://terminology.hl7.org/CodeSystem/v2-0203","code":"MR"}]},"system":"https://bonnie-fhir.healthit.gov/","value":"612e6aee02c62a011f2ebccf"}],"active":true,"name":[{"use":"usual","family":"NUMERPass","given":["TestMultipleOccur_1inDen1inNum"]}],"gender":"male","birthDate":"1975-01-02"},"request":{"method":"PUT","url":"Patient/b6d4f313-21b9-4cd8-9e6f-b682d176a73f"}},{"fullUrl":"https://madie.cms.gov/Encounter/1e1ba273-a673-4f83-9d0f-e64f8928cc66","resource":{"resourceType":"Encounter","id":"1e1ba273-a673-4f83-9d0f-e64f8928cc66","meta":{"profile":["http://hl7.org/fhir/us/qicore/StructureDefinition/qicore-encounter"]},"status":"finished","class":{"system":"http://terminology.hl7.org/CodeSystem/v3-ActCode","code":"IMP","display":"inpatient encounter"},"type":[{"coding":[{"system":"http://snomed.info/sct","code":"183452005"}]}],"subject":{"reference":"Patient/b6d4f313-21b9-4cd8-9e6f-b682d176a73f"},"period":{"start":"2026-04-01T08:00:00+00:00","end":"2026-04-05T08:15:00+00:00"},"length":{"value":4.0,"unit":"days"}},"request":{"method":"PUT","url":"Encounter/1e1ba273-a673-4f83-9d0f-e64f8928cc66"}},{"fullUrl":"https://madie.cms.gov/Encounter/18a4b1aa-9414-47f1-a85d-ee260e3b839a","resource":{"resourceType":"Encounter","id":"18a4b1aa-9414-47f1-a85d-ee260e3b839a","meta":{"profile":["http://hl7.org/fhir/us/qicore/StructureDefinition/qicore-encounter"]},"status":"finished","class":{"system":"http://terminology.hl7.org/CodeSystem/v3-ActCode","code":"IMP","display":"inpatient encounter"},"type":[{"coding":[{"system":"http://snomed.info/sct","code":"8715000"}]}],"subject":{"reference":"Patient/b6d4f313-21b9-4cd8-9e6f-b682d176a73f"},"period":{"start":"2026-11-01T08:00:00+00:00","end":"2026-11-26T08:15:00+00:00"},"length":{"value":25.0,"unit":"days"}},"request":{"method":"PUT","url":"Encounter/18a4b1aa-9414-47f1-a85d-ee260e3b839a"}},{"fullUrl":"https://madie.cms.gov/Coverage/38dc8090-aea1-4770-9e00-522113babe1f","resource":{"resourceType":"Coverage","id":"38dc8090-aea1-4770-9e00-522113babe1f","status":"active","beneficiary":{"reference":"Patient/b6d4f313-21b9-4cd8-9e6f-b682d176a73f"},"period":{"start":"1975-01-02T08:00:00+00:00"},"payor":[{"reference":"Organization/5ad6ea38-07e9-4482-9e1b-c09eee595be9"}]},"request":{"method":"PUT","url":"Coverage/38dc8090-aea1-4770-9e00-522113babe1f"}},{"fullUrl":"https://madie.cms.gov/MedicationAdministration/e9ec2c2c-5fcd-457e-b281-632a5fffc576","resource":{"resourceType":"MedicationAdministration","id":"e9ec2c2c-5fcd-457e-b281-632a5fffc576","meta":{"profile":["http://hl7.org/fhir/us/qicore/StructureDefinition/qicore-medicationadministration"]},"status":"completed","medicationCodeableConcept":{"coding":[{"system":"http://www.nlm.nih.gov/research/umls/rxnorm","code":"200349"}]},"subject":{"reference":"Patient/b6d4f313-21b9-4cd8-9e6f-b682d176a73f"},"effectivePeriod":{"start":"2026-11-01T09:00:00+00:00"}},"request":{"method":"PUT","url":"MedicationAdministration/e9ec2c2c-5fcd-457e-b281-632a5fffc576"}},{"fullUrl":"https://madie.cms.gov/Procedure/2a43a08c-33b5-4bb4-a264-392c1b447ed5","resource":{"resourceType":"Procedure","id":"2a43a08c-33b5-4bb4-a264-392c1b447ed5","meta":{"profile":["http://hl7.org/fhir/us/qicore/StructureDefinition/qicore-procedure"]},"extension":[{"url":"http://hl7.org/fhir/us/qicore/StructureDefinition/qicore-recorded","valueDateTime":"2013-11-03T09:35:00-04:00"}],"status":"completed","code":{"coding":[{"system":"http://snomed.info/sct","version":"2025-03","code":"442410008","display":"Application of venous foot pump (procedure)","userSelected":true}]},"subject":{"reference":"Patient/b6d4f313-21b9-4cd8-9e6f-b682d176a73f"},"performedDateTime":"2026-11-02T08:00:00.000+00:00"},"request":{"method":"PUT","url":"Procedure/2a43a08c-33b5-4bb4-a264-392c1b447ed5"}},{"fullUrl":"https://madie.cms.gov/Organization/9815d632-6f5b-4048-974b-d82c2ea8fb59","resource":{"resourceType":"Organization","id":"5ad6ea38-07e9-4482-9e1b-c09eee595be9","meta":{"profile":["http://hl7.org/fhir/us/qicore/StructureDefinition/qicore-organization"]},"identifier":[{"use":"temp","system":"urn:oid:2.16.840.1.113883.4.4","value":"21-3259825"}],"active":true,"type":[{"coding":[{"system":"http://terminology.hl7.org/CodeSystem/organization-type","code":"pay","display":"Payer"}]}],"name":"Blue Cross Blue Shield of Texas","telecom":[{"system":"phone","value":"(+1) 972-766-6900"}],"address":[{"use":"billing","type":"postal","line":["P.O. Box 660044"],"city":"Dallas","state":"TX","postalCode":"75266-0044","country":"USA"}]},"request":{"method":"PUT","url":"Organization/5ad6ea38-07e9-4482-9e1b-c09eee595be9"}},{"fullUrl":"https://madie.cms.gov/Practitioner/2e867f4d-9f9e-45c4-a8a2-cd965252d9b0","resource":{"resourceType":"Practitioner","id":"2e867f4d-9f9e-45c4-a8a2-cd965252d9b0","identifier":[{"system":"http://hl7.org/fhir/sid/us-npi","value":"123456"}],"name":[{"family":"Evil","prefix":["Dr"]}]},"request":{"method":"PUT","url":"Practitioner/2e867f4d-9f9e-45c4-a8a2-cd965252d9b0"}},{"fullUrl":"https://madie.cms.gov/MeasureReport/a82cad40-454b-4e86-8812-a7fb2ed2de59","resource":{"resourceType":"MeasureReport","id":"a82cad40-454b-4e86-8812-a7fb2ed2de59","meta":{"profile":["http://hl7.org/fhir/us/cqfmeasures/StructureDefinition/test-case-cqfm"]},"contained":[{"resourceType":"Parameters","id":"9bf18cc0-f1c0-42d1-8b00-56f473dac306-parameters","parameter":[{"name":"subject","valueString":"b6d4f313-21b9-4cd8-9e6f-b682d176a73f"}]}],"extension":[{"url":"http://hl7.org/fhir/us/cqfmeasures/StructureDefinition/cqfm-inputParameters","valueReference":{"reference":"#9bf18cc0-f1c0-42d1-8b00-56f473dac306-parameters"}},{"url":"http://hl7.org/fhir/us/cqfmeasures/StructureDefinition/cqfm-testCaseDescription","valueMarkdown":"TestMultipleOccur - 2 occurrences. 1 in Den due to Dvc applied >1 day after Adm and 1 in Numerator\n"}],"modifierExtension":[{"url":"http://hl7.org/fhir/us/cqfmeasures/StructureDefinition/cqfm-isTestCase","valueBoolean":true}],"status":"complete","type":"individual","measure":"https://madie.cms.gov/Measure/CMS108VTEProphylaxisFHIR","period":{"start":"2026-01-01","end":"2026-12-31"},"group":[{"population":[{"code":{"coding":[{"system":"http://terminology.hl7.org/CodeSystem/measure-population","code":"initial-population","display":"Initial Population"}]},"count":2},{"code":{"coding":[{"system":"http://terminology.hl7.org/CodeSystem/measure-population","code":"denominator","display":"Denominator"}]},"count":2},{"code":{"coding":[{"system":"http://terminology.hl7.org/CodeSystem/measure-population","code":"denominator-exclusion","display":"Denominator Exclusion"}]},"count":0},{"code":{"coding":[{"system":"http://terminology.hl7.org/CodeSystem/measure-population","code":"numerator","display":"Numerator"}]},"count":1}]}]},"request":{"method":"PUT","url":"MeasureReport/a82cad40-454b-4e86-8812-a7fb2ed2de59"}}]}