{"resourceType":"Bundle","id":"tests-9696b1d1-693b-42f8-96a2-95f379e245a4-bundle","type":"transaction","entry":[{"fullUrl":"https://madie.cms.gov/Patient/9696b1d1-693b-42f8-96a2-95f379e245a4","resource":{"resourceType":"Patient","id":"9696b1d1-693b-42f8-96a2-95f379e245a4","meta":{"profile":["http://hl7.org/fhir/us/qicore/StructureDefinition/qicore-patient"]},"text":{"status":"generated","div":"<div xmlns=\"http://www.w3.org/1999/xhtml\"><div class=\"hapiHeaderText\">MA_RixDuringED <b>NUMERPASS </b></div><table class=\"hapiPropertyTable\"><tbody><tr><td>Identifier</td><td>9ac41bff10ef3353d0742df1f73dc984</td></tr><tr><td>Date of birth</td><td><span>02 January 1974</span></td></tr></tbody></table></div>"},"extension":[{"url":"http://hl7.org/fhir/us/core/StructureDefinition/us-core-race","extension":[{"url":"ombCategory","valueCoding":{"system":"urn:oid:2.16.840.1.113883.6.238","code":"1002-5","display":"American Indian or Alaska Native","userSelected":true}},{"url":"text","valueString":"American Indian or Alaska Native"}]},{"url":"http://hl7.org/fhir/us/core/StructureDefinition/us-core-ethnicity","extension":[{"url":"ombCategory","valueCoding":{"system":"urn:oid:2.16.840.1.113883.6.238","code":"2135-2","display":"Hispanic or Latino","userSelected":true}},{"url":"text","valueString":"Hispanic or Latino"}]}],"identifier":[{"type":{"coding":[{"system":"http://terminology.hl7.org/CodeSystem/v2-0203","code":"MR"}]},"system":"https://bonnie-fhir.healthit.gov/","value":"612e6b0e02c62a011f2ec40a"}],"active":true,"name":[{"use":"usual","family":"NUMERPass","given":["MA_RixDuringED"]}],"gender":"male","birthDate":"1975-01-02"},"request":{"method":"PUT","url":"Patient/9696b1d1-693b-42f8-96a2-95f379e245a4"}},{"fullUrl":"https://madie.cms.gov/Encounter/3f4bebeb-b52e-4d41-9b6a-33b638c1c471","resource":{"resourceType":"Encounter","id":"3f4bebeb-b52e-4d41-9b6a-33b638c1c471","meta":{"profile":["http://hl7.org/fhir/us/qicore/StructureDefinition/qicore-encounter"]},"status":"finished","class":{"system":"http://terminology.hl7.org/CodeSystem/v3-ActCode","code":"IMP","display":"inpatient encounter"},"type":[{"coding":[{"system":"http://snomed.info/sct","code":"8715000"}]}],"subject":{"reference":"Patient/9696b1d1-693b-42f8-96a2-95f379e245a4"},"period":{"start":"2026-11-01T08:00:00+00:00","end":"2026-11-26T08:15:00+00:00"},"length":{"value":25.0,"unit":"days"}},"request":{"method":"PUT","url":"Encounter/3f4bebeb-b52e-4d41-9b6a-33b638c1c471"}},{"fullUrl":"https://madie.cms.gov/Encounter/255c6ddf-eaf2-43a3-a01c-50077228469f","resource":{"resourceType":"Encounter","id":"255c6ddf-eaf2-43a3-a01c-50077228469f","meta":{"profile":["http://hl7.org/fhir/us/qicore/StructureDefinition/qicore-encounter"]},"status":"finished","class":{"system":"http://terminology.hl7.org/CodeSystem/v3-ActCode","code":"EMER","display":"emergency"},"type":[{"coding":[{"system":"http://snomed.info/sct","code":"4525004"}]}],"subject":{"reference":"Patient/9696b1d1-693b-42f8-96a2-95f379e245a4"},"period":{"start":"2026-10-31T20:00:00+00:00","end":"2026-11-01T07:00:00+00:00"}},"request":{"method":"PUT","url":"Encounter/255c6ddf-eaf2-43a3-a01c-50077228469f"}},{"fullUrl":"https://madie.cms.gov/Coverage/28126ceb-3a2a-414d-a9a8-1a4a580d6dec","resource":{"resourceType":"Coverage","id":"28126ceb-3a2a-414d-a9a8-1a4a580d6dec","status":"active","beneficiary":{"reference":"Patient/9696b1d1-693b-42f8-96a2-95f379e245a4"},"period":{"start":"1975-01-02T08:00:00+00:00"},"payor":[{"reference":"Organization/607fdef9-3983-4cef-ab1a-95434d29b463"}]},"request":{"method":"PUT","url":"Coverage/28126ceb-3a2a-414d-a9a8-1a4a580d6dec"}},{"fullUrl":"https://madie.cms.gov/MedicationAdministration/1e1e33dd-13cb-4c17-b284-2486aea86f71","resource":{"resourceType":"MedicationAdministration","id":"1e1e33dd-13cb-4c17-b284-2486aea86f71","meta":{"profile":["http://hl7.org/fhir/us/qicore/StructureDefinition/qicore-medicationadministration"]},"status":"completed","medicationCodeableConcept":{"coding":[{"system":"http://www.nlm.nih.gov/research/umls/rxnorm","code":"1114198"}]},"subject":{"reference":"Patient/9696b1d1-693b-42f8-96a2-95f379e245a4"},"effectivePeriod":{"start":"2026-10-31T09:00:00+00:00","end":"2026-10-31T09:15:00+00:00"}},"request":{"method":"PUT","url":"MedicationAdministration/1e1e33dd-13cb-4c17-b284-2486aea86f71"}},{"fullUrl":"https://madie.cms.gov/Organization/6afa297c-a316-4fbb-873d-17cb5314d19f","resource":{"resourceType":"Organization","id":"607fdef9-3983-4cef-ab1a-95434d29b463","meta":{"profile":["http://hl7.org/fhir/us/qicore/StructureDefinition/qicore-organization"]},"identifier":[{"use":"temp","system":"urn:oid:2.16.840.1.113883.4.4","value":"21-3259825"}],"active":true,"type":[{"coding":[{"system":"http://terminology.hl7.org/CodeSystem/organization-type","code":"pay","display":"Payer"}]}],"name":"Blue Cross Blue Shield of Texas","telecom":[{"system":"phone","value":"(+1) 972-766-6900"}],"address":[{"use":"billing","type":"postal","line":["P.O. Box 660044"],"city":"Dallas","state":"TX","postalCode":"75266-0044","country":"USA"}]},"request":{"method":"PUT","url":"Organization/607fdef9-3983-4cef-ab1a-95434d29b463"}},{"fullUrl":"https://madie.cms.gov/MeasureReport/6c49d6f4-938a-4eff-946c-a2ad9d8811e7","resource":{"resourceType":"MeasureReport","id":"6c49d6f4-938a-4eff-946c-a2ad9d8811e7","meta":{"profile":["http://hl7.org/fhir/us/cqfmeasures/StructureDefinition/test-case-cqfm"]},"contained":[{"resourceType":"Parameters","id":"4f6f63b5-11f0-4e09-9d56-18ff3e25e992-parameters","parameter":[{"name":"subject","valueString":"9696b1d1-693b-42f8-96a2-95f379e245a4"}]}],"extension":[{"url":"http://hl7.org/fhir/us/cqfmeasures/StructureDefinition/cqfm-inputParameters","valueReference":{"reference":"#4f6f63b5-11f0-4e09-9d56-18ff3e25e992-parameters"}},{"url":"http://hl7.org/fhir/us/cqfmeasures/StructureDefinition/cqfm-testCaseDescription","valueMarkdown":"Rivaroxaban for VTE Prophylaxis Med Administered during ED which ED = 1 hr ends Adm\n"}],"modifierExtension":[{"url":"http://hl7.org/fhir/us/cqfmeasures/StructureDefinition/cqfm-isTestCase","valueBoolean":true}],"status":"complete","type":"individual","measure":"https://madie.cms.gov/Measure/CMS108VTEProphylaxisFHIR","period":{"start":"2026-01-01","end":"2026-12-31"},"group":[{"population":[{"code":{"coding":[{"system":"http://terminology.hl7.org/CodeSystem/measure-population","code":"initial-population","display":"Initial Population"}]},"count":1},{"code":{"coding":[{"system":"http://terminology.hl7.org/CodeSystem/measure-population","code":"denominator","display":"Denominator"}]},"count":1},{"code":{"coding":[{"system":"http://terminology.hl7.org/CodeSystem/measure-population","code":"denominator-exclusion","display":"Denominator Exclusion"}]},"count":0},{"code":{"coding":[{"system":"http://terminology.hl7.org/CodeSystem/measure-population","code":"numerator","display":"Numerator"}]},"count":1}]}]},"request":{"method":"PUT","url":"MeasureReport/6c49d6f4-938a-4eff-946c-a2ad9d8811e7"}}]}