{
  "resourceType": "Bundle",
  "id": "63487c2f0968f801225401a6",
  "type": "transaction",
  "entry": [ {
    "fullUrl": "https://madie.cms.gov/Patient/d67078ee-41eb-4c8e-a14e-7a433a2e2b87",
    "resource": {
      "resourceType": "Patient",
      "id": "d67078ee-41eb-4c8e-a14e-7a433a2e2b87",
      "meta": {
        "profile": [ "http://hl7.org/fhir/us/qicore/StructureDefinition/qicore-patient" ]
      },
      "text": {
        "status": "generated",
        "div": "<div xmlns=\"http://www.w3.org/1999/xhtml\"><div class=\"hapiHeaderText\">CalcEGAEstDelivNULL <b>DENFAIL </b></div><table class=\"hapiPropertyTable\"><tbody><tr><td>Identifier</td><td>b00b06f67015bda652373741cca10f65466d828e3a674df9528f73ec417ce0bb</td></tr><tr><td>Date of birth</td><td><span>14 February 1985</span></td></tr></tbody></table></div>"
      },
      "extension": [ {
        "url": "http://hl7.org/fhir/us/core/StructureDefinition/us-core-race",
        "extension": [ {
          "url": "ombCategory",
          "valueCoding": {
            "system": "urn:oid:2.16.840.1.113883.6.238",
            "code": "1002-5",
            "display": "American Indian or Alaska Native",
            "userSelected": true
          }
        }, {
          "url": "text",
          "valueString": "American Indian or Alaska Native"
        } ]
      }, {
        "url": "http://hl7.org/fhir/us/core/StructureDefinition/us-core-ethnicity",
        "extension": [ {
          "url": "ombCategory",
          "valueCoding": {
            "system": "urn:oid:2.16.840.1.113883.6.238",
            "code": "2135-2",
            "display": "Hispanic or Latino",
            "userSelected": true
          }
        }, {
          "url": "text",
          "valueString": "Hispanic or Latino"
        } ]
      } ],
      "identifier": [ {
        "type": {
          "coding": [ {
            "system": "http://terminology.hl7.org/CodeSystem/v2-0203",
            "code": "MR"
          } ]
        },
        "system": "https://bonnie-fhir.healthit.gov/",
        "value": "63487c2f0968f801225401a6"
      } ],
      "active": true,
      "name": [ {
        "use": "usual",
        "family": "DENFail",
        "given": [ "CalcEGAEstDelivNULL" ]
      } ],
      "gender": "female",
      "birthDate": "1998-02-14"
    },
    "request": {
      "method": "PUT",
      "url": "Patient/d67078ee-41eb-4c8e-a14e-7a433a2e2b87"
    }
  }, {
    "fullUrl": "https://madie.cms.gov/Observation/b903b250-91aa-4a06-81eb-ed302790e5e4",
    "resource": {
      "resourceType": "Observation",
      "id": "b903b250-91aa-4a06-81eb-ed302790e5e4",
      "meta": {
        "profile": [ "http://hl7.org/fhir/us/qicore/StructureDefinition/qicore-observation" ]
      },
      "status": "final",
      "category": [ {
        "coding": [ {
          "system": "http://terminology.hl7.org/CodeSystem/observation-category",
          "code": "exam",
          "display": "exam",
          "userSelected": true
        } ]
      } ],
      "code": {
        "coding": [ {
          "system": "http://loinc.org",
          "code": "93857-1"
        } ]
      },
      "subject": {
        "reference": "Patient/d67078ee-41eb-4c8e-a14e-7a433a2e2b87"
      },
      "effectiveDateTime": "2026-01-15T08:00:00.000+00:00",
      "valueDateTime": "2026-01-15T08:00:00+00:00"
    },
    "request": {
      "method": "PUT",
      "url": "Observation/b903b250-91aa-4a06-81eb-ed302790e5e4"
    }
  }, {
    "fullUrl": "https://madie.cms.gov/Observation/36d64df3-5c00-435f-9426-a6d7250a0ae5",
    "resource": {
      "resourceType": "Observation",
      "id": "36d64df3-5c00-435f-9426-a6d7250a0ae5",
      "meta": {
        "profile": [ "http://hl7.org/fhir/us/qicore/StructureDefinition/qicore-observation" ]
      },
      "status": "final",
      "category": [ {
        "coding": [ {
          "system": "http://terminology.hl7.org/CodeSystem/observation-category",
          "code": "exam",
          "display": "exam",
          "userSelected": true
        } ]
      } ],
      "code": {
        "coding": [ {
          "system": "http://loinc.org",
          "code": "11778-8"
        } ]
      },
      "subject": {
        "reference": "Patient/d67078ee-41eb-4c8e-a14e-7a433a2e2b87"
      },
      "effectiveDateTime": "2026-01-15T07:00:00.000+00:00"
    },
    "request": {
      "method": "PUT",
      "url": "Observation/36d64df3-5c00-435f-9426-a6d7250a0ae5"
    }
  }, {
    "fullUrl": "https://madie.cms.gov/Observation/796b0eed-9030-4b2e-b733-92590d6a4c3e",
    "resource": {
      "resourceType": "Observation",
      "id": "796b0eed-9030-4b2e-b733-92590d6a4c3e",
      "meta": {
        "profile": [ "http://hl7.org/fhir/us/qicore/StructureDefinition/qicore-observation" ]
      },
      "status": "final",
      "category": [ {
        "coding": [ {
          "system": "http://terminology.hl7.org/CodeSystem/observation-category",
          "code": "exam",
          "display": "exam",
          "userSelected": true
        } ]
      } ],
      "code": {
        "coding": [ {
          "system": "http://loinc.org",
          "code": "11996-6"
        } ]
      },
      "subject": {
        "reference": "Patient/d67078ee-41eb-4c8e-a14e-7a433a2e2b87"
      },
      "effectiveDateTime": "2026-01-15T07:59:00.000+00:00",
      "valueInteger": 1
    },
    "request": {
      "method": "PUT",
      "url": "Observation/796b0eed-9030-4b2e-b733-92590d6a4c3e"
    }
  }, {
    "fullUrl": "https://madie.cms.gov/Encounter/b822d100-4688-48df-ac38-acb05a7ec0b8",
    "resource": {
      "resourceType": "Encounter",
      "id": "b822d100-4688-48df-ac38-acb05a7ec0b8",
      "meta": {
        "profile": [ "http://hl7.org/fhir/us/qicore/StructureDefinition/qicore-encounter" ]
      },
      "status": "finished",
      "class": {
        "system": "http://terminology.hl7.org/CodeSystem/v3-ActCode",
        "code": "IMP",
        "display": "inpatient encounter"
      },
      "type": [ {
        "coding": [ {
          "system": "http://snomed.info/sct",
          "code": "183452005"
        } ]
      } ],
      "subject": {
        "reference": "Patient/d67078ee-41eb-4c8e-a14e-7a433a2e2b87"
      },
      "period": {
        "start": "2026-01-15T08:00:00.000Z",
        "end": "2026-01-20T08:15:00.000Z"
      },
      "diagnosis": [ {
        "condition": {
          "reference": "Condition/delivery-of-singleton-f83c"
        },
        "use": {
          "coding": [ {
            "system": "http://snomed.info/sct",
            "code": "169826009",
            "display": "Delivery of Singleton"
          } ]
        }
      }, {
        "condition": {
          "reference": "Condition/8ceea7e2-53f6-49df-9a84-cb55198f1603"
        }
      } ]
    },
    "request": {
      "method": "PUT",
      "url": "Encounter/b822d100-4688-48df-ac38-acb05a7ec0b8"
    }
  }, {
    "fullUrl": "https://madie.cms.gov/Procedure/3b96d268-6c1a-4724-9c2b-70fcde566d87",
    "resource": {
      "resourceType": "Procedure",
      "id": "3b96d268-6c1a-4724-9c2b-70fcde566d87",
      "meta": {
        "profile": [ "http://hl7.org/fhir/us/qicore/StructureDefinition/qicore-procedure" ]
      },
      "extension": [ {
        "url": "http://hl7.org/fhir/us/qicore/StructureDefinition/qicore-recorded",
        "valueDateTime": "2014-04-05T09:35:00-04:00"
      } ],
      "status": "completed",
      "code": {
        "coding": [ {
          "system": "http://www.cms.gov/Medicare/Coding/ICD10",
          "code": "10D07Z3"
        }, {
          "system": "http://www.icd10data.com/icd10pcs",
          "code": "10D07Z3",
          "userSelected": true
        } ]
      },
      "subject": {
        "reference": "Patient/d67078ee-41eb-4c8e-a14e-7a433a2e2b87"
      },
      "performedPeriod": {
        "start": "2026-01-15T08:10:00.000Z",
        "end": "2026-01-15T09:14:00.000Z"
      }
    },
    "request": {
      "method": "PUT",
      "url": "Procedure/3b96d268-6c1a-4724-9c2b-70fcde566d87"
    }
  }, {
    "fullUrl": "https://madie.cms.gov/Condition/8ceea7e2-53f6-49df-9a84-cb55198f1603",
    "resource": {
      "resourceType": "Condition",
      "id": "8ceea7e2-53f6-49df-9a84-cb55198f1603",
      "meta": {
        "profile": [ "http://hl7.org/fhir/us/qicore/StructureDefinition/qicore-condition" ]
      },
      "category": [ {
        "coding": [ {
          "system": "http://terminology.hl7.org/CodeSystem/condition-category",
          "code": "encounter-diagnosis",
          "display": "Encounter Diagnosis"
        } ]
      } ],
      "code": {
        "coding": [ {
          "system": "http://snomed.info/sct",
          "version": "2022-09",
          "code": "169826009",
          "display": "Single live birth (finding)",
          "userSelected": true
        } ]
      },
      "subject": {
        "reference": "Patient/d67078ee-41eb-4c8e-a14e-7a433a2e2b87"
      },
      "recordedDate": "2026-10-21T08:00:00.000+00:00"
    },
    "request": {
      "method": "PUT",
      "url": "Condition/8ceea7e2-53f6-49df-9a84-cb55198f1603"
    }
  }, {
    "fullUrl": "https://madie.cms.gov/Coverage/fa36a842-99cb-495a-92c9-a93adc4ac710",
    "resource": {
      "resourceType": "Coverage",
      "id": "fa36a842-99cb-495a-92c9-a93adc4ac710",
      "meta": {
        "profile": [ "http://hl7.org/fhir/us/qicore/StructureDefinition/qicore-coverage" ]
      },
      "status": "active",
      "beneficiary": {
        "reference": "Patient/d67078ee-41eb-4c8e-a14e-7a433a2e2b87"
      },
      "payor": [ {
        "reference": "Organization/d929a682-359f-4da5-a2bc-3d4af0cf52c6"
      } ]
    },
    "request": {
      "method": "PUT",
      "url": "Coverage/fa36a842-99cb-495a-92c9-a93adc4ac710"
    }
  }, {
    "fullUrl": "https://madie.cms.gov/Organization/d929a682-359f-4da5-a2bc-3d4af0cf52c6",
    "resource": {
      "resourceType": "Organization",
      "id": "d929a682-359f-4da5-a2bc-3d4af0cf52c6",
      "meta": {
        "profile": [ "http://hl7.org/fhir/us/qicore/StructureDefinition/qicore-organization" ]
      },
      "identifier": [ {
        "use": "temp",
        "system": "urn:oid:2.16.840.1.113883.4.4",
        "value": "21-3259825"
      } ],
      "active": true,
      "type": [ {
        "coding": [ {
          "system": "http://terminology.hl7.org/CodeSystem/organization-type",
          "code": "pay",
          "display": "Payer"
        } ]
      } ],
      "name": "Blue Cross Blue Shield of Texas",
      "telecom": [ {
        "system": "phone",
        "value": "(+1) 972-766-6900"
      } ],
      "address": [ {
        "use": "billing",
        "type": "postal",
        "line": [ "P.O. Box 660044" ],
        "city": "Dallas",
        "state": "TX",
        "postalCode": "75266-0044",
        "country": "USA"
      } ]
    },
    "request": {
      "method": "PUT",
      "url": "Organization/d929a682-359f-4da5-a2bc-3d4af0cf52c6"
    }
  }, {
    "fullUrl": "https://madie.cms.gov/Practitioner/7c088caf-4b32-42c4-a75c-757b89e2c980",
    "resource": {
      "resourceType": "Practitioner",
      "id": "7c088caf-4b32-42c4-a75c-757b89e2c980",
      "identifier": [ {
        "system": "http://hl7.org/fhir/sid/us-npi",
        "value": "123456"
      } ],
      "name": [ {
        "family": "Evil",
        "prefix": [ "Dr" ]
      } ]
    },
    "request": {
      "method": "PUT",
      "url": "Practitioner/7c088caf-4b32-42c4-a75c-757b89e2c980"
    }
  }, {
    "fullUrl": "https://madie.cms.gov/MeasureReport/77397b93-362f-4b9e-9808-661b41f5e165",
    "resource": {
      "resourceType": "MeasureReport",
      "id": "77397b93-362f-4b9e-9808-661b41f5e165",
      "meta": {
        "profile": [ "http://hl7.org/fhir/us/cqfmeasures/StructureDefinition/test-case-cqfm" ]
      },
      "contained": [ {
        "resourceType": "Parameters",
        "id": "c78afb5e-9b19-4f5b-8f10-b1d5e4743db6-parameters",
        "parameter": [ {
          "name": "subject",
          "valueString": "d67078ee-41eb-4c8e-a14e-7a433a2e2b87"
        } ]
      } ],
      "extension": [ {
        "url": "http://hl7.org/fhir/us/cqfmeasures/StructureDefinition/cqfm-inputParameters",
        "valueReference": {
          "reference": "#c78afb5e-9b19-4f5b-8f10-b1d5e4743db6-parameters"
        }
      }, {
        "url": "http://hl7.org/fhir/us/cqfmeasures/StructureDefinition/cqfm-testCaseDescription",
        "valueMarkdown": "Passes: IP, Fails: DENOM  Pt is 27 years of age,  encounter dx delivery of singleton, gravida=1authored less than 42 weeks prior to delivery, calculated EGA is NULL because last Est Deliv is NULL\n"
      } ],
      "modifierExtension": [ {
        "url": "http://hl7.org/fhir/us/cqfmeasures/StructureDefinition/cqfm-isTestCase",
        "valueBoolean": true
      } ],
      "status": "complete",
      "type": "individual",
      "measure": "https://madie.cms.gov/Measure/CMS334FHIRPCCesareanBirth",
      "period": {
        "start": "2026-01-01",
        "end": "2026-12-31"
      },
      "group": [ {
        "population": [ {
          "code": {
            "coding": [ {
              "system": "http://terminology.hl7.org/CodeSystem/measure-population",
              "code": "initial-population",
              "display": "Initial Population"
            } ]
          },
          "count": 1
        }, {
          "code": {
            "coding": [ {
              "system": "http://terminology.hl7.org/CodeSystem/measure-population",
              "code": "denominator",
              "display": "Denominator"
            } ]
          },
          "count": 0
        }, {
          "code": {
            "coding": [ {
              "system": "http://terminology.hl7.org/CodeSystem/measure-population",
              "code": "denominator-exclusion",
              "display": "Denominator Exclusion"
            } ]
          },
          "count": 0
        }, {
          "code": {
            "coding": [ {
              "system": "http://terminology.hl7.org/CodeSystem/measure-population",
              "code": "numerator",
              "display": "Numerator"
            } ]
          },
          "count": 0
        } ]
      } ],
      "evaluatedResource": [ {
        "reference": "Patient/d67078ee-41eb-4c8e-a14e-7a433a2e2b87"
      }, {
        "reference": "Observation/b903b250-91aa-4a06-81eb-ed302790e5e4"
      }, {
        "reference": "Observation/36d64df3-5c00-435f-9426-a6d7250a0ae5"
      }, {
        "reference": "Observation/796b0eed-9030-4b2e-b733-92590d6a4c3e"
      }, {
        "reference": "Encounter/b822d100-4688-48df-ac38-acb05a7ec0b8"
      }, {
        "reference": "Procedure/3b96d268-6c1a-4724-9c2b-70fcde566d87"
      }, {
        "reference": "Condition/8ceea7e2-53f6-49df-9a84-cb55198f1603"
      }, {
        "reference": "Coverage/fa36a842-99cb-495a-92c9-a93adc4ac710"
      }, {
        "reference": "Organization/d929a682-359f-4da5-a2bc-3d4af0cf52c6"
      }, {
        "reference": "Practitioner/7c088caf-4b32-42c4-a75c-757b89e2c980"
      } ]
    },
    "request": {
      "method": "PUT",
      "url": "MeasureReport/77397b93-362f-4b9e-9808-661b41f5e165"
    }
  } ]
}