{
  "resourceType": "Bundle",
  "id": "h1f044ef3e654daa9111",
  "type": "transaction",
  "entry": [ {
    "fullUrl": "https://madie.cms.gov/Patient/7edab122-3af3-4172-9231-7c1470ecc1e0",
    "resource": {
      "resourceType": "Patient",
      "id": "7edab122-3af3-4172-9231-7c1470ecc1e0",
      "meta": {
        "profile": [ "http://hl7.org/fhir/us/qicore/StructureDefinition/qicore-patient" ]
      },
      "extension": [ {
        "url": "http://hl7.org/fhir/us/core/StructureDefinition/us-core-race",
        "extension": [ {
          "url": "ombCategory",
          "valueCoding": {
            "system": "urn:oid:2.16.840.1.113883.6.238",
            "code": "2028-9",
            "display": "Asian",
            "userSelected": true
          }
        }, {
          "url": "text",
          "valueString": "Asian"
        } ]
      }, {
        "url": "http://hl7.org/fhir/us/core/StructureDefinition/us-core-ethnicity",
        "extension": [ {
          "url": "ombCategory",
          "valueCoding": {
            "system": "urn:oid:2.16.840.1.113883.6.238",
            "code": "2186-5",
            "display": "Non Hispanic or Latino",
            "userSelected": true
          }
        }, {
          "url": "text",
          "valueString": "Non Hispanic or Latino"
        } ]
      } ],
      "identifier": [ {
        "type": {
          "coding": [ {
            "system": "http://terminology.hl7.org/CodeSystem/v2-0203",
            "code": "MR"
          } ]
        },
        "system": "https://bonnie-fhir.healthit.gov/",
        "value": "02d61dc5-90ef-4cbc-bc17-0b0ea3d290fd"
      } ],
      "name": [ {
        "family": "DENEXCEP2PASS",
        "given": [ "PCIRefusalDuringED" ]
      } ],
      "gender": "female",
      "birthDate": "1979-11-16"
    },
    "request": {
      "method": "PUT",
      "url": "Patient/7edab122-3af3-4172-9231-7c1470ecc1e0"
    }
  }, {
    "fullUrl": "https://madie.cms.gov/Encounter/00ecd386-8ae3-44c9-95fc-aa6c407e675b",
    "resource": {
      "resourceType": "Encounter",
      "id": "00ecd386-8ae3-44c9-95fc-aa6c407e675b",
      "meta": {
        "profile": [ "http://hl7.org/fhir/us/qicore/StructureDefinition/qicore-encounter" ]
      },
      "status": "finished",
      "class": {
        "system": "http://terminology.hl7.org/CodeSystem/v3-ActCode",
        "code": "EMER",
        "display": "emergency",
        "userSelected": true
      },
      "type": [ {
        "coding": [ {
          "system": "http://snomed.info/sct",
          "version": "2020-09",
          "code": "4525004",
          "display": "Emergency department patient visit",
          "userSelected": true
        } ]
      } ],
      "subject": {
        "reference": "Patient/7edab122-3af3-4172-9231-7c1470ecc1e0"
      },
      "period": {
        "start": "2026-10-09T05:00:00.000+00:00",
        "end": "2026-10-13T17:00:00.000+00:00"
      },
      "diagnosis": [ {
        "condition": {
          "reference": "Condition/38f5f9df-5c6f-412a-ad45-756cfad7f542"
        }
      } ]
    },
    "request": {
      "method": "PUT",
      "url": "Encounter/00ecd386-8ae3-44c9-95fc-aa6c407e675b"
    }
  }, {
    "fullUrl": "https://madie.cms.gov/Condition/38f5f9df-5c6f-412a-ad45-756cfad7f542",
    "resource": {
      "resourceType": "Condition",
      "id": "38f5f9df-5c6f-412a-ad45-756cfad7f542",
      "meta": {
        "profile": [ "http://hl7.org/fhir/us/qicore/StructureDefinition/qicore-condition" ]
      },
      "clinicalStatus": {
        "coding": [ {
          "system": "http://terminology.hl7.org/CodeSystem/condition-clinical",
          "code": "active",
          "display": "Active",
          "userSelected": true
        } ]
      },
      "category": [ {
        "coding": [ {
          "system": "http://terminology.hl7.org/CodeSystem/condition-category",
          "code": "encounter-diagnosis",
          "display": "Encounter Diagnosis",
          "userSelected": true
        } ]
      } ],
      "code": {
        "coding": [ {
          "system": "http://hl7.org/fhir/sid/icd-10-cm",
          "code": "I21.21",
          "display": "ST elevation (STEMI) myocardial infarction involving left circumflex coronary artery",
          "userSelected": true
        } ]
      },
      "subject": {
        "reference": "Patient/7edab122-3af3-4172-9231-7c1470ecc1e0"
      },
      "encounter": {
        "reference": "Encounter/00ecd386-8ae3-44c9-95fc-aa6c407e675b"
      },
      "onsetPeriod": {
        "start": "2026-10-09T05:00:00.000+00:00",
        "end": "2026-10-09T17:00:00.000+00:00"
      }
    },
    "request": {
      "method": "PUT",
      "url": "Condition/38f5f9df-5c6f-412a-ad45-756cfad7f542"
    }
  }, {
    "fullUrl": "https://madie.cms.gov/Procedure/a9696d36-609f-454f-a9ef-9895c29bf635",
    "resource": {
      "resourceType": "Procedure",
      "id": "a9696d36-609f-454f-a9ef-9895c29bf635",
      "meta": {
        "profile": [ "http://hl7.org/fhir/us/qicore/StructureDefinition/qicore-procedurenotdone" ]
      },
      "extension": [ {
        "url": "http://hl7.org/fhir/us/qicore/StructureDefinition/qicore-recorded",
        "valueDateTime": "2026-10-09T09:36:00.000+00:00"
      } ],
      "status": "not-done",
      "statusReason": {
        "coding": [ {
          "system": "http://snomed.info/sct",
          "code": "443390004",
          "display": "Refusal of treatment by patient (situation)",
          "userSelected": true
        } ]
      },
      "code": {
        "coding": [ {
          "system": "http://www.cms.gov/Medicare/Coding/ICD10",
          "code": "0270346",
          "display": "Dilation of Coronary Artery, One Artery, Bifurcation, with Drug-eluting Intraluminal Device, Percutaneous Approach",
          "userSelected": true
        } ]
      },
      "subject": {
        "reference": "Patient/7edab122-3af3-4172-9231-7c1470ecc1e0"
      },
      "_performedDateTime": {
        "extension": [ {
          "url": "http://hl7.org/fhir/StructureDefinition/data-absent-reason",
          "valueCode": "not-performed"
        } ]
      }
    },
    "request": {
      "method": "PUT",
      "url": "Procedure/a9696d36-609f-454f-a9ef-9895c29bf635"
    }
  }, {
    "fullUrl": "https://madie.cms.gov/MeasureReport/8afd5be5-85f6-4159-8f9d-1196035cbcfa",
    "resource": {
      "resourceType": "MeasureReport",
      "id": "8afd5be5-85f6-4159-8f9d-1196035cbcfa",
      "meta": {
        "profile": [ "http://hl7.org/fhir/us/cqfmeasures/StructureDefinition/test-case-cqfm" ]
      },
      "contained": [ {
        "resourceType": "Parameters",
        "id": "d669e365-82f8-4407-83cb-b461ac97812f-parameters",
        "parameter": [ {
          "name": "subject",
          "valueString": "7edab122-3af3-4172-9231-7c1470ecc1e0"
        } ]
      } ],
      "extension": [ {
        "url": "http://hl7.org/fhir/us/cqfmeasures/StructureDefinition/cqfm-inputParameters",
        "valueReference": {
          "reference": "#d669e365-82f8-4407-83cb-b461ac97812f-parameters"
        }
      }, {
        "url": "http://hl7.org/fhir/us/cqfmeasures/StructureDefinition/cqfm-testCaseDescription",
        "valueMarkdown": "Patient has PCI in ED but refuses treatment during ED"
      } ],
      "modifierExtension": [ {
        "url": "http://hl7.org/fhir/us/cqfmeasures/StructureDefinition/cqfm-isTestCase",
        "valueBoolean": true
      } ],
      "status": "complete",
      "type": "individual",
      "measure": "https://madie.cms.gov/Measure/CMS996FHIRAptTxforSTEMI",
      "period": {
        "start": "2026-01-01",
        "end": "2026-12-31"
      },
      "group": [ {
        "population": [ {
          "code": {
            "coding": [ {
              "system": "http://terminology.hl7.org/CodeSystem/measure-population",
              "code": "initial-population",
              "display": "Initial Population"
            } ]
          },
          "count": 1
        }, {
          "code": {
            "coding": [ {
              "system": "http://terminology.hl7.org/CodeSystem/measure-population",
              "code": "denominator",
              "display": "Denominator"
            } ]
          },
          "count": 1
        }, {
          "code": {
            "coding": [ {
              "system": "http://terminology.hl7.org/CodeSystem/measure-population",
              "code": "denominator-exclusion",
              "display": "Denominator Exclusion"
            } ]
          },
          "count": 0
        }, {
          "code": {
            "coding": [ {
              "system": "http://terminology.hl7.org/CodeSystem/measure-population",
              "code": "numerator",
              "display": "Numerator"
            } ]
          },
          "count": 0
        }, {
          "code": {
            "coding": [ {
              "system": "http://terminology.hl7.org/CodeSystem/measure-population",
              "code": "denominator-exception",
              "display": "Denominator Exception"
            } ]
          },
          "count": 1
        } ]
      } ],
      "evaluatedResource": [ {
        "reference": "Patient/7edab122-3af3-4172-9231-7c1470ecc1e0"
      }, {
        "reference": "Encounter/00ecd386-8ae3-44c9-95fc-aa6c407e675b"
      }, {
        "reference": "Condition/38f5f9df-5c6f-412a-ad45-756cfad7f542"
      }, {
        "reference": "Procedure/a9696d36-609f-454f-a9ef-9895c29bf635"
      } ]
    },
    "request": {
      "method": "PUT",
      "url": "MeasureReport/8afd5be5-85f6-4159-8f9d-1196035cbcfa"
    }
  } ]
}