{"resourceType":"Bundle","id":"tests-ed37e316-c721-4a98-91d7-862f5ece7187-bundle","type":"transaction","entry":[{"fullUrl":"https://madie.cms.gov/Patient/ed37e316-c721-4a98-91d7-862f5ece7187","resource":{"resourceType":"Patient","id":"ed37e316-c721-4a98-91d7-862f5ece7187","meta":{"profile":["http://hl7.org/fhir/us/qicore/StructureDefinition/qicore-patient"]},"extension":[{"url":"http://hl7.org/fhir/us/core/StructureDefinition/us-core-race","extension":[{"url":"ombCategory","valueCoding":{"system":"urn:oid:2.16.840.1.113883.6.238","code":"2054-5","display":"Black or African American","userSelected":true}},{"url":"text","valueString":"Black or African American"}]},{"url":"http://hl7.org/fhir/us/core/StructureDefinition/us-core-ethnicity","extension":[{"url":"ombCategory","valueCoding":{"system":"urn:oid:2.16.840.1.113883.6.238","code":"2135-2","display":"Hispanic or Latino","userSelected":true}},{"url":"text","valueString":"Hispanic or Latino"}]}],"identifier":[{"type":{"coding":[{"system":"http://terminology.hl7.org/CodeSystem/v2-0203","code":"MR"}]},"system":"https://bonnie-fhir.healthit.gov/","value":"4687683516442"}],"name":[{"family":"DENEXPass","given":["HeartTransplPriorMP"]}],"gender":"male","birthDate":"1968-06-14"},"request":{"method":"PUT","url":"Patient/ed37e316-c721-4a98-91d7-862f5ece7187"}},{"fullUrl":"https://madie.cms.gov/Encounter/461351313131","resource":{"resourceType":"Encounter","id":"4abc7aeb-12fd-4b71-8176-7f76a9e233ae","meta":{"profile":["http://hl7.org/fhir/us/qicore/StructureDefinition/qicore-encounter"]},"status":"finished","class":{"system":"http://terminology.hl7.org/CodeSystem/v3-ActCode","code":"AMB","display":"ambulatory"},"type":[{"coding":[{"system":"http://snomed.info/sct","version":"http://snomed.info/sct/731000124108/version/20240301","code":"185463005","display":"Visit out of hours (procedure)"}]}],"subject":{"reference":"Patient/ed37e316-c721-4a98-91d7-862f5ece7187"},"period":{"start":"2025-03-31T08:00:00.000+00:00","end":"2025-03-31T08:15:00.000+00:00"}},"request":{"method":"PUT","url":"Encounter/4abc7aeb-12fd-4b71-8176-7f76a9e233ae"}},{"fullUrl":"https://madie.cms.gov/Encounter/1354651313135","resource":{"resourceType":"Encounter","id":"a6bce7e1-b498-4400-bc09-d6f987bb81b7","meta":{"profile":["http://hl7.org/fhir/us/qicore/StructureDefinition/qicore-encounter"]},"status":"finished","class":{"system":"http://terminology.hl7.org/CodeSystem/v3-ActCode","code":"AMB","display":"ambulatory"},"type":[{"coding":[{"system":"http://snomed.info/sct","version":"http://snomed.info/sct/731000124108/version/20240301","code":"185463005","display":"Visit out of hours (procedure)"}]}],"subject":{"reference":"Patient/ed37e316-c721-4a98-91d7-862f5ece7187"},"period":{"start":"2025-05-15T08:00:00.000+00:00","end":"2025-05-15T08:15:00.000+00:00"}},"request":{"method":"PUT","url":"Encounter/a6bce7e1-b498-4400-bc09-d6f987bb81b7"}},{"fullUrl":"https://madie.cms.gov/Condition/6846841646","resource":{"resourceType":"Condition","id":"8d0e998c-0b2e-418c-8faa-dcbc4c6046c6","meta":{"profile":["http://hl7.org/fhir/us/qicore/StructureDefinition/qicore-condition"]},"clinicalStatus":{"coding":[{"system":"http://terminology.hl7.org/CodeSystem/condition-clinical","code":"active","display":"active"}]},"verificationStatus":{"coding":[{"system":"http://terminology.hl7.org/CodeSystem/condition-ver-status","code":"confirmed","display":"Confirmed"}]},"category":[{"coding":[{"system":"http://terminology.hl7.org/CodeSystem/condition-category","code":"problem-list-item","display":"Problem List Item"}]}],"code":{"coding":[{"system":"http://snomed.info/sct","version":"http://snomed.info/sct/731000124108/version/20240301","code":"10091002","display":"High output heart failure (disorder)"}]},"subject":{"reference":"Patient/ed37e316-c721-4a98-91d7-862f5ece7187"},"onsetPeriod":{"start":"2024-05-17T08:00:00.000+00:00"}},"request":{"method":"PUT","url":"Condition/8d0e998c-0b2e-418c-8faa-dcbc4c6046c6"}},{"fullUrl":"https://madie.cms.gov/Condition/68468316646787","resource":{"resourceType":"Condition","id":"8de37cc7-1477-453b-b339-0e9045cae132","meta":{"profile":["http://hl7.org/fhir/us/qicore/StructureDefinition/qicore-condition"]},"clinicalStatus":{"coding":[{"system":"http://terminology.hl7.org/CodeSystem/condition-clinical","code":"active","display":"Active"}]},"verificationStatus":{"coding":[{"system":"http://terminology.hl7.org/CodeSystem/condition-ver-status","code":"confirmed","display":"Confirmed"}]},"category":[{"coding":[{"system":"http://terminology.hl7.org/CodeSystem/condition-category","code":"problem-list-item","display":"Problem List Item"}]}],"code":{"coding":[{"system":"http://snomed.info/sct","version":"http://snomed.info/sct/731000124108/version/20240301","code":"981000124106","display":"Moderate left ventricular systolic dysfunction (disorder)"}]},"subject":{"reference":"Patient/ed37e316-c721-4a98-91d7-862f5ece7187"},"onsetPeriod":{"start":"2025-03-25T08:00:00.000+00:00","end":"2025-03-30T08:15:00.000+00:00"}},"request":{"method":"PUT","url":"Condition/8de37cc7-1477-453b-b339-0e9045cae132"}},{"fullUrl":"https://madie.cms.gov/Procedure/79876135313","resource":{"resourceType":"Procedure","id":"e3bb80e0-4389-4be4-abd6-6f9ab739f44c","meta":{"profile":["http://hl7.org/fhir/us/qicore/StructureDefinition/qicore-procedure"]},"extension":[{"url":"http://hl7.org/fhir/us/qicore/StructureDefinition/qicore-recorded","valueDateTime":"2024-08-04T08:00:00.000+00:00"}],"status":"completed","code":{"coding":[{"system":"http://snomed.info/sct","version":"http://snomed.info/sct/731000124108/version/20240301","code":"174803001","display":"Revision of transplantation of heart and lung (procedure)"}]},"subject":{"reference":"Patient/ed37e316-c721-4a98-91d7-862f5ece7187"},"performedPeriod":{"start":"2024-12-31T23:59:59.999+00:00","end":"2025-01-01T01:30:00.000+00:00"}},"request":{"method":"PUT","url":"Procedure/e3bb80e0-4389-4be4-abd6-6f9ab739f44c"}},{"fullUrl":"https://madie.cms.gov/MeasureReport/2ffa6ec4-e59d-4960-8e41-ec379e9fa143","resource":{"resourceType":"MeasureReport","id":"2ffa6ec4-e59d-4960-8e41-ec379e9fa143","meta":{"profile":["http://hl7.org/fhir/us/cqfmeasures/StructureDefinition/test-case-cqfm"]},"contained":[{"resourceType":"Parameters","id":"cd3e6245-7519-489c-a392-2d18bf852815-parameters","parameter":[{"name":"subject","valueString":"ed37e316-c721-4a98-91d7-862f5ece7187"}]}],"extension":[{"url":"http://hl7.org/fhir/us/cqfmeasures/StructureDefinition/cqfm-inputParameters","valueReference":{"reference":"#cd3e6245-7519-489c-a392-2d18bf852815-parameters"}},{"url":"http://hl7.org/fhir/us/cqfmeasures/StructureDefinition/cqfm-testCaseDescription","valueMarkdown":"Patient with HF diagnosis and LVSD encounters meets denominator exclusion for having a heart transplant prior to MP."}],"modifierExtension":[{"url":"http://hl7.org/fhir/us/cqfmeasures/StructureDefinition/cqfm-isTestCase","valueBoolean":true}],"status":"complete","type":"individual","measure":"https://madie.cms.gov/Measure/HFACEIorARBorARNIforLVSDFHIR","period":{"start":"2025-01-01","end":"2025-12-31"},"group":[{"population":[{"code":{"coding":[{"system":"http://terminology.hl7.org/CodeSystem/measure-population","code":"initial-population","display":"Initial Population"}]},"count":1},{"code":{"coding":[{"system":"http://terminology.hl7.org/CodeSystem/measure-population","code":"denominator","display":"Denominator"}]},"count":1},{"code":{"coding":[{"system":"http://terminology.hl7.org/CodeSystem/measure-population","code":"denominator-exclusion","display":"Denominator Exclusion"}]},"count":1},{"code":{"coding":[{"system":"http://terminology.hl7.org/CodeSystem/measure-population","code":"numerator","display":"Numerator"}]},"count":0},{"code":{"coding":[{"system":"http://terminology.hl7.org/CodeSystem/measure-population","code":"denominator-exception","display":"Denominator Exception"}]},"count":0}]}]},"request":{"method":"PUT","url":"MeasureReport/2ffa6ec4-e59d-4960-8e41-ec379e9fa143"}}]}