{"resourceType":"Bundle","id":"tests-9709553b-acb2-4267-a57f-ae9d51e82659-bundle","type":"transaction","entry":[{"fullUrl":"https://madie.cms.gov/Patient/9709553b-acb2-4267-a57f-ae9d51e82659","resource":{"resourceType":"Patient","id":"9709553b-acb2-4267-a57f-ae9d51e82659","meta":{"profile":["http://hl7.org/fhir/us/qicore/StructureDefinition/qicore-patient"]},"extension":[{"url":"http://hl7.org/fhir/us/core/StructureDefinition/us-core-race","extension":[{"url":"ombCategory","valueCoding":{"system":"urn:oid:2.16.840.1.113883.6.238","code":"2106-3","display":"White"}},{"url":"text","valueString":"White"}]},{"url":"http://hl7.org/fhir/us/core/StructureDefinition/us-core-ethnicity","extension":[{"url":"ombCategory","valueCoding":{"system":"urn:oid:2.16.840.1.113883.6.238","code":"2186-5","display":"Not Hispanic or Latino"}},{"url":"text","valueString":"Not Hispanic or Latino"}]}],"identifier":[{"type":{"coding":[{"system":"http://terminology.hl7.org/CodeSystem/v2-0203","code":"MR"}]},"system":"https://bonnie-fhir.healthit.gov/","value":"431385494631"}],"name":[{"family":"DENEXCEPPass","given":["AllergyToNepInhibMOA"]}],"gender":"female","birthDate":"1978-06-14"},"request":{"method":"PUT","url":"Patient/9709553b-acb2-4267-a57f-ae9d51e82659"}},{"fullUrl":"https://madie.cms.gov/Encounter/687987416331313","resource":{"resourceType":"Encounter","id":"b06ce15e-5b35-4274-8713-11c43ff07bba","meta":{"profile":["http://hl7.org/fhir/us/qicore/StructureDefinition/qicore-encounter"]},"status":"finished","class":{"system":"http://terminology.hl7.org/CodeSystem/v3-ActCode","code":"AMB","display":"ambulatory"},"type":[{"coding":[{"system":"http://snomed.info/sct","version":"http://snomed.info/sct/731000124108/version/20240301","code":"18170008","display":"Subsequent nursing facility visit (procedure)"}]}],"subject":{"reference":"Patient/9709553b-acb2-4267-a57f-ae9d51e82659"},"period":{"start":"2025-03-31T14:40:00.000+00:00","end":"2025-03-31T14:40:00.000+00:00"}},"request":{"method":"PUT","url":"Encounter/b06ce15e-5b35-4274-8713-11c43ff07bba"}},{"fullUrl":"https://madie.cms.gov/Encounter/9879435164335331","resource":{"resourceType":"Encounter","id":"9d1e0c58-a813-431e-9b8f-df4458784421","meta":{"profile":["http://hl7.org/fhir/us/qicore/StructureDefinition/qicore-encounter"]},"status":"finished","class":{"system":"http://terminology.hl7.org/CodeSystem/v3-ActCode","code":"AMB","display":"ambulatory"},"type":[{"coding":[{"system":"http://snomed.info/sct","version":"http://snomed.info/sct/731000124108/version/20240301","code":"185466002","display":"Home visit for urgent condition (procedure)"}]}],"subject":{"reference":"Patient/9709553b-acb2-4267-a57f-ae9d51e82659"},"period":{"start":"2025-05-15T11:50:00.000+00:00","end":"2025-05-15T11:50:00.000+00:00"}},"request":{"method":"PUT","url":"Encounter/9d1e0c58-a813-431e-9b8f-df4458784421"}},{"fullUrl":"https://madie.cms.gov/Condition/6846463131313145","resource":{"resourceType":"Condition","id":"07cf856a-d460-4a15-92db-7b035a148813","meta":{"profile":["http://hl7.org/fhir/us/qicore/StructureDefinition/qicore-condition"]},"clinicalStatus":{"coding":[{"system":"http://terminology.hl7.org/CodeSystem/condition-clinical","code":"active","display":"active"}]},"verificationStatus":{"coding":[{"system":"http://terminology.hl7.org/CodeSystem/condition-ver-status","code":"confirmed","display":"Confirmed"}]},"category":[{"coding":[{"system":"http://terminology.hl7.org/CodeSystem/condition-category","code":"problem-list-item","display":"Problem List Item"}]}],"code":{"coding":[{"system":"http://snomed.info/sct","version":"http://snomed.info/sct/731000124108/version/20240301","code":"10091002","display":"High output heart failure (disorder)"}]},"subject":{"reference":"Patient/9709553b-acb2-4267-a57f-ae9d51e82659"},"onsetPeriod":{"start":"2024-05-17T10:00:00.000+00:00"}},"request":{"method":"PUT","url":"Condition/07cf856a-d460-4a15-92db-7b035a148813"}},{"fullUrl":"https://madie.cms.gov/Condition/321654134133133","resource":{"resourceType":"Condition","id":"2191edea-a63f-41e4-b09b-f1c5c764334e","meta":{"profile":["http://hl7.org/fhir/us/qicore/StructureDefinition/qicore-condition"]},"clinicalStatus":{"coding":[{"system":"http://terminology.hl7.org/CodeSystem/condition-clinical","code":"active","display":"Active"}]},"verificationStatus":{"coding":[{"system":"http://terminology.hl7.org/CodeSystem/condition-ver-status","code":"confirmed","display":"Confirmed"}]},"category":[{"coding":[{"system":"http://terminology.hl7.org/CodeSystem/condition-category","code":"problem-list-item","display":"Problem List Item"}]}],"code":{"coding":[{"system":"http://snomed.info/sct","version":"http://snomed.info/sct/731000124108/version/20240301","code":"991000124109","display":"Severe left ventricular systolic dysfunction (disorder)"}]},"subject":{"reference":"Patient/9709553b-acb2-4267-a57f-ae9d51e82659"},"onsetPeriod":{"start":"2025-03-25T16:00:00.000+00:00","end":"2025-03-30T16:00:00.000+00:00"}},"request":{"method":"PUT","url":"Condition/2191edea-a63f-41e4-b09b-f1c5c764334e"}},{"fullUrl":"https://madie.cms.gov/AllergyIntolerance/1654131313513554","resource":{"resourceType":"AllergyIntolerance","id":"6603776e-0f6a-4413-9a10-cd9a4b01af6c","meta":{"profile":["http://hl7.org/fhir/us/qicore/StructureDefinition/qicore-allergyintolerance"]},"clinicalStatus":{"coding":[{"system":"http://terminology.hl7.org/CodeSystem/allergyintolerance-clinical","code":"active","display":"Active"}]},"verificationStatus":{"coding":[{"system":"http://terminology.hl7.org/CodeSystem/allergyintolerance-verification","code":"confirmed","display":"Confirmed"}]},"type":"allergy","category":["medication"],"criticality":"high","code":{"coding":[{"system":"http://snomed.info/sct","version":"http://snomed.info/sct/731000124108/version/20240301","code":"786886009","display":"Substance with neprilysin inhibitor mechanism of action (substance)"}]},"patient":{"reference":"Patient/9709553b-acb2-4267-a57f-ae9d51e82659"},"onsetDateTime":"2004","recordedDate":"2024-09-25T16:00:00.000+00:00"},"request":{"method":"PUT","url":"AllergyIntolerance/6603776e-0f6a-4413-9a10-cd9a4b01af6c"}},{"fullUrl":"https://madie.cms.gov/MeasureReport/3dd82094-59bb-4fd2-a4ff-ba67f90ae6ef","resource":{"resourceType":"MeasureReport","id":"3dd82094-59bb-4fd2-a4ff-ba67f90ae6ef","meta":{"profile":["http://hl7.org/fhir/us/cqfmeasures/StructureDefinition/test-case-cqfm"]},"contained":[{"resourceType":"Parameters","id":"0bf83a4a-dc24-4b27-98bb-42016536a866-parameters","parameter":[{"name":"subject","valueString":"9709553b-acb2-4267-a57f-ae9d51e82659"}]}],"extension":[{"url":"http://hl7.org/fhir/us/cqfmeasures/StructureDefinition/cqfm-inputParameters","valueReference":{"reference":"#0bf83a4a-dc24-4b27-98bb-42016536a866-parameters"}},{"url":"http://hl7.org/fhir/us/cqfmeasures/StructureDefinition/cqfm-testCaseDescription","valueMarkdown":"Patient has 2 ambulatory encounters, HF diagnosis and LVSD and meets denominator exception with confirmed of allergy to  ARNI ingredient"}],"modifierExtension":[{"url":"http://hl7.org/fhir/us/cqfmeasures/StructureDefinition/cqfm-isTestCase","valueBoolean":true}],"status":"complete","type":"individual","measure":"https://madie.cms.gov/Measure/HFACEIorARBorARNIforLVSDFHIR","period":{"start":"2025-01-01","end":"2025-12-31"},"group":[{"population":[{"code":{"coding":[{"system":"http://terminology.hl7.org/CodeSystem/measure-population","code":"initial-population","display":"Initial Population"}]},"count":1},{"code":{"coding":[{"system":"http://terminology.hl7.org/CodeSystem/measure-population","code":"denominator","display":"Denominator"}]},"count":1},{"code":{"coding":[{"system":"http://terminology.hl7.org/CodeSystem/measure-population","code":"denominator-exclusion","display":"Denominator Exclusion"}]},"count":0},{"code":{"coding":[{"system":"http://terminology.hl7.org/CodeSystem/measure-population","code":"numerator","display":"Numerator"}]},"count":0},{"code":{"coding":[{"system":"http://terminology.hl7.org/CodeSystem/measure-population","code":"denominator-exception","display":"Denominator Exception"}]},"count":1}]}]},"request":{"method":"PUT","url":"MeasureReport/3dd82094-59bb-4fd2-a4ff-ba67f90ae6ef"}}]}