{"resourceType":"Bundle","id":"tests-c095195c-8893-4bf1-aa7d-ad2bfd9bafa5-bundle","type":"transaction","entry":[{"fullUrl":"https://madie.cms.gov/Patient/c095195c-8893-4bf1-aa7d-ad2bfd9bafa5","resource":{"resourceType":"Patient","id":"c095195c-8893-4bf1-aa7d-ad2bfd9bafa5","meta":{"profile":["http://hl7.org/fhir/us/qicore/StructureDefinition/qicore-patient"]},"extension":[{"url":"http://hl7.org/fhir/us/core/StructureDefinition/us-core-race","extension":[{"url":"ombCategory","valueCoding":{"system":"urn:oid:2.16.840.1.113883.6.238","code":"1002-5","display":"American Indian or Alaska Native"}},{"url":"text","valueString":"American Indian or Alaska Native"}]},{"url":"http://hl7.org/fhir/us/core/StructureDefinition/us-core-ethnicity","extension":[{"url":"ombCategory","valueCoding":{"system":"urn:oid:2.16.840.1.113883.6.238","code":"2135-2","display":"Hispanic or Latino"}},{"url":"text","valueString":"Hispanic or Latino"}]}],"identifier":[{"type":{"coding":[{"system":"http://terminology.hl7.org/CodeSystem/v2-0203","code":"MR"}]},"system":"https://bonnie-fhir.healthit.gov/","value":"684964651963"}],"name":[{"family":"DENOMFail","given":["EFLT40Obsv1MinAfterEncEdge"]}],"gender":"female","birthDate":"1957-12-21"},"request":{"method":"PUT","url":"Patient/c095195c-8893-4bf1-aa7d-ad2bfd9bafa5"}},{"fullUrl":"https://madie.cms.gov/Encounter/5431631346","resource":{"resourceType":"Encounter","id":"78082ae9-fe16-41ff-8ff0-e9f8818f3ea4","meta":{"profile":["http://hl7.org/fhir/us/qicore/StructureDefinition/qicore-encounter"]},"status":"finished","class":{"system":"http://terminology.hl7.org/CodeSystem/v3-ActCode","code":"AMB","display":"ambulatory"},"type":[{"coding":[{"system":"http://snomed.info/sct","version":"http://snomed.info/sct/731000124108/version/20240301","code":"281036007","display":"Follow-up consultation (procedure)"}]}],"subject":{"reference":"Patient/c095195c-8893-4bf1-aa7d-ad2bfd9bafa5"},"period":{"start":"2025-06-15T08:00:00.000+00:00","end":"2025-06-15T08:15:00.000+00:00"}},"request":{"method":"PUT","url":"Encounter/78082ae9-fe16-41ff-8ff0-e9f8818f3ea4"}},{"fullUrl":"https://madie.cms.gov/Encounter/687613134531","resource":{"resourceType":"Encounter","id":"7075b6c3-e1b7-4f47-b949-bbc615cb1860","meta":{"profile":["http://hl7.org/fhir/us/qicore/StructureDefinition/qicore-encounter"]},"status":"finished","class":{"system":"http://terminology.hl7.org/CodeSystem/v3-ActCode","code":"AMB","display":"ambulatory"},"type":[{"coding":[{"system":"http://snomed.info/sct","version":"http://snomed.info/sct/731000124108/version/20240301","code":"281036007","display":"Follow-up consultation (procedure)"}]}],"subject":{"reference":"Patient/c095195c-8893-4bf1-aa7d-ad2bfd9bafa5"},"period":{"start":"2025-07-15T08:00:00.000+00:00","end":"2025-07-15T08:15:00.000+00:00"}},"request":{"method":"PUT","url":"Encounter/7075b6c3-e1b7-4f47-b949-bbc615cb1860"}},{"fullUrl":"https://madie.cms.gov/Condition/92455163535","resource":{"resourceType":"Condition","id":"f76e3b83-1cc6-45a0-b350-c98ffe5c6dbc","meta":{"profile":["http://hl7.org/fhir/us/qicore/StructureDefinition/qicore-condition"]},"clinicalStatus":{"coding":[{"system":"http://terminology.hl7.org/CodeSystem/condition-clinical","code":"active","display":"active"}]},"verificationStatus":{"coding":[{"system":"http://terminology.hl7.org/CodeSystem/condition-ver-status","code":"confirmed","display":"Confirmed"}]},"category":[{"coding":[{"system":"http://terminology.hl7.org/CodeSystem/condition-category","code":"problem-list-item","display":"Problem List Item"}]}],"code":{"coding":[{"system":"http://snomed.info/sct","version":"http://snomed.info/sct/731000124108/version/20240301","code":"10091002","display":"High output heart failure (disorder)"}]},"subject":{"reference":"Patient/c095195c-8893-4bf1-aa7d-ad2bfd9bafa5"},"onsetPeriod":{"start":"2025-06-10T08:00:00.000+00:00","end":"2025-07-14T08:15:00.000+00:00"}},"request":{"method":"PUT","url":"Condition/f76e3b83-1cc6-45a0-b350-c98ffe5c6dbc"}},{"fullUrl":"https://madie.cms.gov/Observation/687135143543","resource":{"resourceType":"Observation","id":"3c87cdec-5911-42cd-af67-7ff2d02e0cc0","meta":{"profile":["http://hl7.org/fhir/us/qicore/StructureDefinition/qicore-observation"]},"status":"final","category":[{"coding":[{"system":"http://terminology.hl7.org/CodeSystem/observation-category","code":"imaging","display":"Imaging"}]}],"code":{"coding":[{"system":"http://loinc.org","version":"2.76","code":"10230-1","display":"Left ventricular Ejection fraction"}]},"subject":{"reference":"Patient/c095195c-8893-4bf1-aa7d-ad2bfd9bafa5"},"effectiveDateTime":"2025-07-15T08:16:00.000+00:00","valueQuantity":{"value":39,"unit":"%","system":"http://unitsofmeasure.org","code":"%"}},"request":{"method":"PUT","url":"Observation/3c87cdec-5911-42cd-af67-7ff2d02e0cc0"}},{"fullUrl":"https://madie.cms.gov/MedicationRequest/684613546315","resource":{"resourceType":"MedicationRequest","id":"8d1ccfa1-4b50-4a4f-a804-6b785f1f3a90","meta":{"profile":["http://hl7.org/fhir/us/qicore/StructureDefinition/qicore-medicationrequest"]},"status":"completed","intent":"order","medicationReference":{"reference":"Medication/464351313445"},"subject":{"reference":"Patient/c095195c-8893-4bf1-aa7d-ad2bfd9bafa5"},"authoredOn":"2025-04-15T10:30:00.000+00:00","requester":{"reference":"Practitioner/6846131646135131"}},"request":{"method":"PUT","url":"MedicationRequest/8d1ccfa1-4b50-4a4f-a804-6b785f1f3a90"}},{"fullUrl":"https://madie.cms.gov/Medication/464351313445","resource":{"resourceType":"Medication","id":"f72e02c2-29d9-4485-9b2f-9139b46108cb","meta":{"profile":["http://hl7.org/fhir/us/qicore/StructureDefinition/qicore-medication"]},"code":{"coding":[{"system":"http://www.nlm.nih.gov/research/umls/rxnorm","version":"04012024","code":"1000001","display":"amlodipine 5 MG / hydrochlorothiazide 25 MG / olmesartan medoxomil 40 MG Oral Tablet"}]}},"request":{"method":"PUT","url":"Medication/f72e02c2-29d9-4485-9b2f-9139b46108cb"}},{"fullUrl":"https://madie.cms.gov/Coverage/1364676516311","resource":{"resourceType":"Coverage","id":"632ba4a1-f281-434b-876b-69bee97af3a6","meta":{"profile":["http://hl7.org/fhir/us/qicore/StructureDefinition/qicore-coverage"]},"status":"active","type":{"coding":[{"system":"https://nahdo.org/sopt","code":"59","display":"Other Private Insurance"}]},"beneficiary":{"reference":"Patient/c095195c-8893-4bf1-aa7d-ad2bfd9bafa5"},"period":{"start":"2024-01-01T08:00:00.000+00:00"},"payor":[{"reference":"Organization/f4907415-83c5-4eae-ab0b-cb63a840880d"}]},"request":{"method":"PUT","url":"Coverage/632ba4a1-f281-434b-876b-69bee97af3a6"}},{"fullUrl":"https://madie.cms.gov/Organization/123456","resource":{"resourceType":"Organization","id":"f4907415-83c5-4eae-ab0b-cb63a840880d","meta":{"profile":["http://hl7.org/fhir/us/qicore/StructureDefinition/qicore-organization"]},"identifier":[{"use":"temp","system":"urn:oid:2.16.840.1.113883.4.4","value":"21-3259825"}],"active":true,"type":[{"coding":[{"system":"http://terminology.hl7.org/CodeSystem/organization-type","code":"pay","display":"Payer"}]}],"name":"Blue Cross Blue Shield of Texas","telecom":[{"system":"phone","value":"(+1) 972-766-6900"}],"address":[{"use":"billing","type":"postal","line":["P.O. Box 660044"],"city":"Dallas","state":"TX","postalCode":"75266-0044","country":"USA"}]},"request":{"method":"PUT","url":"Organization/f4907415-83c5-4eae-ab0b-cb63a840880d"}},{"fullUrl":"https://madie.cms.gov/Practitioner/6846131646135131","resource":{"resourceType":"Practitioner","id":"f70d279c-43cf-4a7c-9df8-c56eb36c582e","meta":{"profile":["http://hl7.org/fhir/us/qicore/StructureDefinition/qicore-practitioner"]},"identifier":[{"use":"temp","system":"urn:oid:2.16.840.1.113883.4.336","value":"Practitioner-23"}],"active":true,"name":[{"family":"Careful","given":["Adam"],"prefix":["Dr"]}],"address":[{"use":"home","line":["534 Erewhon St"],"city":"PleasantVille","state":"UT","postalCode":"84414"}],"qualification":[{"identifier":[{"system":"http://example.org/UniversityIdentifier","value":"12345"}],"code":{"coding":[{"system":"http://terminology.hl7.org/CodeSystem/v2-0360|2.7","code":"BS","display":"Bachelor of Science"}],"text":"Bachelor of Science"},"period":{"start":"1995"},"issuer":{"display":"Example University"}}]},"request":{"method":"PUT","url":"Practitioner/f70d279c-43cf-4a7c-9df8-c56eb36c582e"}},{"fullUrl":"https://madie.cms.gov/MeasureReport/d46c3b9f-9e9d-430a-bb29-0fa53d2fdf2d","resource":{"resourceType":"MeasureReport","id":"d46c3b9f-9e9d-430a-bb29-0fa53d2fdf2d","meta":{"profile":["http://hl7.org/fhir/us/cqfmeasures/StructureDefinition/test-case-cqfm"]},"contained":[{"resourceType":"Parameters","id":"88ce6d5c-3663-43c4-8ee7-fba479e9b998-parameters","parameter":[{"name":"subject","valueString":"c095195c-8893-4bf1-aa7d-ad2bfd9bafa5"}]}],"extension":[{"url":"http://hl7.org/fhir/us/cqfmeasures/StructureDefinition/cqfm-inputParameters","valueReference":{"reference":"#88ce6d5c-3663-43c4-8ee7-fba479e9b998-parameters"}},{"url":"http://hl7.org/fhir/us/cqfmeasures/StructureDefinition/cqfm-testCaseDescription","valueMarkdown":"Fails denominator due to Ejection Fraction < 40 Observation being one minute past encounter"}],"modifierExtension":[{"url":"http://hl7.org/fhir/us/cqfmeasures/StructureDefinition/cqfm-isTestCase","valueBoolean":true}],"status":"complete","type":"individual","measure":"https://madie.cms.gov/Measure/HFACEIorARBorARNIforLVSDFHIR","period":{"start":"2025-01-01","end":"2025-12-31"},"group":[{"population":[{"code":{"coding":[{"system":"http://terminology.hl7.org/CodeSystem/measure-population","code":"initial-population","display":"Initial Population"}]},"count":1},{"code":{"coding":[{"system":"http://terminology.hl7.org/CodeSystem/measure-population","code":"denominator","display":"Denominator"}]},"count":0},{"code":{"coding":[{"system":"http://terminology.hl7.org/CodeSystem/measure-population","code":"denominator-exclusion","display":"Denominator Exclusion"}]},"count":0},{"code":{"coding":[{"system":"http://terminology.hl7.org/CodeSystem/measure-population","code":"numerator","display":"Numerator"}]},"count":0},{"code":{"coding":[{"system":"http://terminology.hl7.org/CodeSystem/measure-population","code":"denominator-exception","display":"Denominator Exception"}]},"count":0}]}]},"request":{"method":"PUT","url":"MeasureReport/d46c3b9f-9e9d-430a-bb29-0fa53d2fdf2d"}}]}