{"resourceType":"Bundle","id":"tests-9709553b-acb2-4267-a57f-ae9d51e82659-bundle","type":"transaction","entry":[{"fullUrl":"https://madie.cms.gov/Patient/9709553b-acb2-4267-a57f-ae9d51e82659","resource":{"resourceType":"Patient","id":"9709553b-acb2-4267-a57f-ae9d51e82659","meta":{"profile":["http://hl7.org/fhir/us/qicore/StructureDefinition/qicore-patient"]},"extension":[{"url":"http://hl7.org/fhir/us/core/StructureDefinition/us-core-race","extension":[{"url":"ombCategory","valueCoding":{"system":"urn:oid:2.16.840.1.113883.6.238","code":"2106-3","display":"White"}},{"url":"text","valueString":"White"}]},{"url":"http://hl7.org/fhir/us/core/StructureDefinition/us-core-ethnicity","extension":[{"url":"ombCategory","valueCoding":{"system":"urn:oid:2.16.840.1.113883.6.238","code":"2186-5","display":"Not Hispanic or Latino"}},{"url":"text","valueString":"Not Hispanic or Latino"}]}],"identifier":[{"type":{"coding":[{"system":"http://terminology.hl7.org/CodeSystem/v2-0203","code":"MR"}]},"system":"https://bonnie-fhir.healthit.gov/","value":"431385494631"}],"name":[{"family":"DENEXCEPPass","given":["AllergyToNepInhibMOA"]}],"gender":"female","birthDate":"1978-06-14"},"request":{"method":"PUT","url":"Patient/9709553b-acb2-4267-a57f-ae9d51e82659"}},{"fullUrl":"https://madie.cms.gov/Encounter/687987416331313","resource":{"resourceType":"Encounter","id":"bd51acac-62e3-45a5-bbd9-57314b4a1ad9","meta":{"profile":["http://hl7.org/fhir/us/qicore/StructureDefinition/qicore-encounter"]},"status":"finished","class":{"system":"http://terminology.hl7.org/CodeSystem/v3-ActCode","code":"AMB","display":"ambulatory"},"type":[{"coding":[{"system":"http://snomed.info/sct","version":"http://snomed.info/sct/731000124108/version/20240301","code":"18170008","display":"Subsequent nursing facility visit (procedure)"}]}],"subject":{"reference":"Patient/9709553b-acb2-4267-a57f-ae9d51e82659"},"period":{"start":"2025-03-31T14:40:00.000+00:00","end":"2025-03-31T14:40:00.000+00:00"}},"request":{"method":"PUT","url":"Encounter/bd51acac-62e3-45a5-bbd9-57314b4a1ad9"}},{"fullUrl":"https://madie.cms.gov/Encounter/9879435164335331","resource":{"resourceType":"Encounter","id":"a197a3a6-9adb-47c8-98f2-2bf5b3c01313","meta":{"profile":["http://hl7.org/fhir/us/qicore/StructureDefinition/qicore-encounter"]},"status":"finished","class":{"system":"http://terminology.hl7.org/CodeSystem/v3-ActCode","code":"AMB","display":"ambulatory"},"type":[{"coding":[{"system":"http://snomed.info/sct","version":"http://snomed.info/sct/731000124108/version/20240301","code":"185466002","display":"Home visit for urgent condition (procedure)"}]}],"subject":{"reference":"Patient/9709553b-acb2-4267-a57f-ae9d51e82659"},"period":{"start":"2025-05-15T11:50:00.000+00:00","end":"2025-05-15T11:50:00.000+00:00"}},"request":{"method":"PUT","url":"Encounter/a197a3a6-9adb-47c8-98f2-2bf5b3c01313"}},{"fullUrl":"https://madie.cms.gov/Condition/6846463131313145","resource":{"resourceType":"Condition","id":"70f60909-1fd9-4497-94bf-4dba0659c10c","meta":{"profile":["http://hl7.org/fhir/us/qicore/StructureDefinition/qicore-condition"]},"clinicalStatus":{"coding":[{"system":"http://terminology.hl7.org/CodeSystem/condition-clinical","code":"active","display":"active"}]},"verificationStatus":{"coding":[{"system":"http://terminology.hl7.org/CodeSystem/condition-ver-status","code":"confirmed","display":"Confirmed"}]},"category":[{"coding":[{"system":"http://terminology.hl7.org/CodeSystem/condition-category","code":"problem-list-item","display":"Problem List Item"}]}],"code":{"coding":[{"system":"http://snomed.info/sct","version":"http://snomed.info/sct/731000124108/version/20240301","code":"10091002","display":"High output heart failure (disorder)"}]},"subject":{"reference":"Patient/9709553b-acb2-4267-a57f-ae9d51e82659"},"onsetPeriod":{"start":"2024-05-17T10:00:00.000+00:00"}},"request":{"method":"PUT","url":"Condition/70f60909-1fd9-4497-94bf-4dba0659c10c"}},{"fullUrl":"https://madie.cms.gov/Condition/321654134133133","resource":{"resourceType":"Condition","id":"ffa7be81-c7e3-4488-801e-b7480ea0d33a","meta":{"profile":["http://hl7.org/fhir/us/qicore/StructureDefinition/qicore-condition"]},"clinicalStatus":{"coding":[{"system":"http://terminology.hl7.org/CodeSystem/condition-clinical","code":"active","display":"Active"}]},"verificationStatus":{"coding":[{"system":"http://terminology.hl7.org/CodeSystem/condition-ver-status","code":"confirmed","display":"Confirmed"}]},"category":[{"coding":[{"system":"http://terminology.hl7.org/CodeSystem/condition-category","code":"problem-list-item","display":"Problem List Item"}]}],"code":{"coding":[{"system":"http://snomed.info/sct","version":"http://snomed.info/sct/731000124108/version/20240301","code":"991000124109","display":"Severe left ventricular systolic dysfunction (disorder)"}]},"subject":{"reference":"Patient/9709553b-acb2-4267-a57f-ae9d51e82659"},"onsetPeriod":{"start":"2025-03-25T16:00:00.000+00:00","end":"2025-03-30T16:00:00.000+00:00"}},"request":{"method":"PUT","url":"Condition/ffa7be81-c7e3-4488-801e-b7480ea0d33a"}},{"fullUrl":"https://madie.cms.gov/AllergyIntolerance/1654131313513554","resource":{"resourceType":"AllergyIntolerance","id":"6780ed23-ca43-49fd-8398-467fb8d4f333","meta":{"profile":["http://hl7.org/fhir/us/qicore/StructureDefinition/qicore-allergyintolerance"]},"clinicalStatus":{"coding":[{"system":"http://terminology.hl7.org/CodeSystem/allergyintolerance-clinical","code":"active","display":"Active"}]},"verificationStatus":{"coding":[{"system":"http://terminology.hl7.org/CodeSystem/allergyintolerance-verification","code":"confirmed","display":"Confirmed"}]},"type":"allergy","category":["medication"],"criticality":"high","code":{"coding":[{"system":"http://snomed.info/sct","version":"http://snomed.info/sct/731000124108/version/20240301","code":"786886009","display":"Substance with neprilysin inhibitor mechanism of action (substance)"}]},"patient":{"reference":"Patient/9709553b-acb2-4267-a57f-ae9d51e82659"},"onsetDateTime":"2004","recordedDate":"2024-09-25T16:00:00.000+00:00"},"request":{"method":"PUT","url":"AllergyIntolerance/6780ed23-ca43-49fd-8398-467fb8d4f333"}},{"fullUrl":"https://madie.cms.gov/MeasureReport/3dd82094-59bb-4fd2-a4ff-ba67f90ae6ef","resource":{"resourceType":"MeasureReport","id":"3dd82094-59bb-4fd2-a4ff-ba67f90ae6ef","meta":{"profile":["http://hl7.org/fhir/us/cqfmeasures/StructureDefinition/test-case-cqfm"]},"contained":[{"resourceType":"Parameters","id":"0bf83a4a-dc24-4b27-98bb-42016536a866-parameters","parameter":[{"name":"subject","valueString":"9709553b-acb2-4267-a57f-ae9d51e82659"}]}],"extension":[{"url":"http://hl7.org/fhir/us/cqfmeasures/StructureDefinition/cqfm-inputParameters","valueReference":{"reference":"#0bf83a4a-dc24-4b27-98bb-42016536a866-parameters"}},{"url":"http://hl7.org/fhir/us/cqfmeasures/StructureDefinition/cqfm-testCaseDescription","valueMarkdown":"Patient has 2 ambulatory encounters, HF diagnosis and LVSD and meets denominator exception with confirmed of allergy to  ARNI ingredient"}],"modifierExtension":[{"url":"http://hl7.org/fhir/us/cqfmeasures/StructureDefinition/cqfm-isTestCase","valueBoolean":true}],"status":"complete","type":"individual","measure":"https://madie.cms.gov/Measure/HFACEIorARBorARNIforLVSDFHIR","period":{"start":"2025-01-01","end":"2025-12-31"},"group":[{"population":[{"code":{"coding":[{"system":"http://terminology.hl7.org/CodeSystem/measure-population","code":"initial-population","display":"Initial Population"}]},"count":1},{"code":{"coding":[{"system":"http://terminology.hl7.org/CodeSystem/measure-population","code":"denominator","display":"Denominator"}]},"count":1},{"code":{"coding":[{"system":"http://terminology.hl7.org/CodeSystem/measure-population","code":"denominator-exclusion","display":"Denominator Exclusion"}]},"count":0},{"code":{"coding":[{"system":"http://terminology.hl7.org/CodeSystem/measure-population","code":"numerator","display":"Numerator"}]},"count":0},{"code":{"coding":[{"system":"http://terminology.hl7.org/CodeSystem/measure-population","code":"denominator-exception","display":"Denominator Exception"}]},"count":1}]}]},"request":{"method":"PUT","url":"MeasureReport/3dd82094-59bb-4fd2-a4ff-ba67f90ae6ef"}}]}