{
  "resourceType": "Bundle",
  "id": "6179dfd9e2011aa9929f3309",
  "type": "transaction",
  "entry": [ {
    "fullUrl": "https://madie.cms.gov/Patient/8fd4eb55-cb9d-435c-869b-c49e3d7bf8ac",
    "resource": {
      "resourceType": "Patient",
      "id": "8fd4eb55-cb9d-435c-869b-c49e3d7bf8ac",
      "meta": {
        "profile": [ "http://hl7.org/fhir/us/qicore/StructureDefinition/qicore-patient" ]
      },
      "extension": [ {
        "url": "http://hl7.org/fhir/us/core/StructureDefinition/us-core-race",
        "extension": [ {
          "url": "ombCategory",
          "valueCoding": {
            "system": "urn:oid:2.16.840.1.113883.6.238",
            "code": "2076-8",
            "display": "Native Hawaiian or Other Pacific Islander",
            "userSelected": true
          }
        }, {
          "url": "text",
          "valueString": "Native Hawaiian or Other Pacific Islander"
        } ]
      }, {
        "url": "http://hl7.org/fhir/us/core/StructureDefinition/us-core-ethnicity",
        "extension": [ {
          "url": "ombCategory",
          "valueCoding": {
            "system": "urn:oid:2.16.840.1.113883.6.238",
            "code": "2186-5",
            "display": "Not Hispanic or Latino",
            "userSelected": true
          }
        }, {
          "url": "text",
          "valueString": "Not Hispanic or Latino"
        } ]
      } ],
      "identifier": [ {
        "type": {
          "coding": [ {
            "system": "http://terminology.hl7.org/CodeSystem/v2-0203",
            "code": "MR"
          } ]
        },
        "system": "https://bonnie-fhir.healthit.gov/",
        "value": "6179dfd9e2011aa9929f3309"
      } ],
      "name": [ {
        "family": "DenExcl1Fail",
        "given": [ "DxExclStartsBeforeEndsAfterED" ]
      } ],
      "gender": "female",
      "birthDate": "1985-12-02"
    },
    "request": {
      "method": "PUT",
      "url": "Patient/8fd4eb55-cb9d-435c-869b-c49e3d7bf8ac"
    }
  }, {
    "fullUrl": "https://madie.cms.gov/Encounter/8f8256ef-a6e5-4d48-8da4-2c8fd04d5d5b",
    "resource": {
      "resourceType": "Encounter",
      "id": "8f8256ef-a6e5-4d48-8da4-2c8fd04d5d5b",
      "meta": {
        "profile": [ "http://hl7.org/fhir/us/qicore/StructureDefinition/qicore-encounter" ]
      },
      "status": "finished",
      "class": {
        "system": "http://terminology.hl7.org/CodeSystem/v3-ActCode",
        "code": "EMER",
        "display": "emergency",
        "userSelected": true
      },
      "type": [ {
        "coding": [ {
          "system": "http://snomed.info/sct",
          "version": "2020-09",
          "code": "4525004",
          "display": "Emergency department patient visit (procedure)",
          "userSelected": true
        } ]
      } ],
      "subject": {
        "reference": "Patient/8fd4eb55-cb9d-435c-869b-c49e3d7bf8ac"
      },
      "period": {
        "start": "2026-10-09T08:05:00.000+00:00",
        "end": "2026-10-10T07:15:00.000+00:00"
      }
    },
    "request": {
      "method": "PUT",
      "url": "Encounter/8f8256ef-a6e5-4d48-8da4-2c8fd04d5d5b"
    }
  }, {
    "fullUrl": "https://madie.cms.gov/Condition/e57a7cde-1e8f-4cb9-9521-acacb019dcc1",
    "resource": {
      "resourceType": "Condition",
      "id": "e57a7cde-1e8f-4cb9-9521-acacb019dcc1",
      "meta": {
        "profile": [ "http://hl7.org/fhir/us/qicore/StructureDefinition/qicore-condition" ]
      },
      "clinicalStatus": {
        "coding": [ {
          "system": "http://terminology.hl7.org/CodeSystem/condition-clinical",
          "code": "active",
          "display": "active",
          "userSelected": true
        } ]
      },
      "category": [ {
        "coding": [ {
          "system": "http://terminology.hl7.org/CodeSystem/condition-category",
          "code": "encounter-diagnosis",
          "display": "Encounter Diagnosis",
          "userSelected": true
        } ]
      } ],
      "code": {
        "coding": [ {
          "system": "http://snomed.info/sct",
          "version": "2020-09",
          "code": "401303003",
          "display": "Acute ST segment elevation myocardial infarction (disorder)",
          "userSelected": true
        } ]
      },
      "subject": {
        "reference": "Patient/8fd4eb55-cb9d-435c-869b-c49e3d7bf8ac"
      },
      "onsetDateTime": "2026-10-09T08:30:00.000+00:00"
    },
    "request": {
      "method": "PUT",
      "url": "Condition/e57a7cde-1e8f-4cb9-9521-acacb019dcc1"
    }
  }, {
    "fullUrl": "https://madie.cms.gov/Condition/44a86d8b-fb88-43e4-b007-ccd61beafee0",
    "resource": {
      "resourceType": "Condition",
      "id": "44a86d8b-fb88-43e4-b007-ccd61beafee0",
      "meta": {
        "profile": [ "http://hl7.org/fhir/us/qicore/StructureDefinition/qicore-condition" ]
      },
      "clinicalStatus": {
        "coding": [ {
          "system": "http://terminology.hl7.org/CodeSystem/condition-clinical",
          "version": "4.0.1",
          "code": "inactive",
          "display": "Inactive",
          "userSelected": true
        } ]
      },
      "category": [ {
        "coding": [ {
          "system": "http://terminology.hl7.org/CodeSystem/condition-category",
          "code": "encounter-diagnosis",
          "display": "Encounter Diagnosis",
          "userSelected": true
        } ]
      } ],
      "code": {
        "coding": [ {
          "system": "http://snomed.info/sct",
          "version": "2020-09",
          "code": "111633007",
          "display": "Open fracture of sacrum AND/OR coccyx with complete cauda equina lesion (disorder)",
          "userSelected": true
        } ]
      },
      "subject": {
        "reference": "Patient/8fd4eb55-cb9d-435c-869b-c49e3d7bf8ac"
      },
      "onsetDateTime": "2026-01-08T08:00:00.000+00:00",
      "abatementDateTime": "2026-11-08T08:15:00.000+00:00"
    },
    "request": {
      "method": "PUT",
      "url": "Condition/44a86d8b-fb88-43e4-b007-ccd61beafee0"
    }
  }, {
    "fullUrl": "https://madie.cms.gov/MeasureReport/9feb4620-3b58-40f2-adac-1f85e8eea25a",
    "resource": {
      "resourceType": "MeasureReport",
      "id": "9feb4620-3b58-40f2-adac-1f85e8eea25a",
      "meta": {
        "profile": [ "http://hl7.org/fhir/us/cqfmeasures/StructureDefinition/test-case-cqfm" ]
      },
      "contained": [ {
        "resourceType": "Parameters",
        "id": "5479e31a-22ba-4f4f-a46c-08710d05d044-parameters",
        "parameter": [ {
          "name": "subject",
          "valueString": "8fd4eb55-cb9d-435c-869b-c49e3d7bf8ac"
        } ]
      } ],
      "extension": [ {
        "url": "http://hl7.org/fhir/us/cqfmeasures/StructureDefinition/cqfm-inputParameters",
        "valueReference": {
          "reference": "#5479e31a-22ba-4f4f-a46c-08710d05d044-parameters"
        }
      }, {
        "url": "http://hl7.org/fhir/us/cqfmeasures/StructureDefinition/cqfm-testCaseDescription",
        "valueMarkdown": "Patient has Neurologic Impairment (exclusion diagnosis) that starts before ED encounter and ends after ED"
      } ],
      "modifierExtension": [ {
        "url": "http://hl7.org/fhir/us/cqfmeasures/StructureDefinition/cqfm-isTestCase",
        "valueBoolean": true
      } ],
      "status": "complete",
      "type": "individual",
      "measure": "https://madie.cms.gov/Measure/CMS996FHIRAptTxforSTEMI",
      "period": {
        "start": "2026-01-01",
        "end": "2026-12-31"
      },
      "group": [ {
        "population": [ {
          "code": {
            "coding": [ {
              "system": "http://terminology.hl7.org/CodeSystem/measure-population",
              "code": "initial-population",
              "display": "Initial Population"
            } ]
          },
          "count": 1
        }, {
          "code": {
            "coding": [ {
              "system": "http://terminology.hl7.org/CodeSystem/measure-population",
              "code": "denominator",
              "display": "Denominator"
            } ]
          },
          "count": 1
        }, {
          "code": {
            "coding": [ {
              "system": "http://terminology.hl7.org/CodeSystem/measure-population",
              "code": "denominator-exclusion",
              "display": "Denominator Exclusion"
            } ]
          },
          "count": 0
        }, {
          "code": {
            "coding": [ {
              "system": "http://terminology.hl7.org/CodeSystem/measure-population",
              "code": "numerator",
              "display": "Numerator"
            } ]
          },
          "count": 0
        }, {
          "code": {
            "coding": [ {
              "system": "http://terminology.hl7.org/CodeSystem/measure-population",
              "code": "denominator-exception",
              "display": "Denominator Exception"
            } ]
          },
          "count": 0
        } ]
      } ],
      "evaluatedResource": [ {
        "reference": "Patient/8fd4eb55-cb9d-435c-869b-c49e3d7bf8ac"
      }, {
        "reference": "Encounter/8f8256ef-a6e5-4d48-8da4-2c8fd04d5d5b"
      }, {
        "reference": "Condition/e57a7cde-1e8f-4cb9-9521-acacb019dcc1"
      }, {
        "reference": "Condition/44a86d8b-fb88-43e4-b007-ccd61beafee0"
      } ]
    },
    "request": {
      "method": "PUT",
      "url": "MeasureReport/9feb4620-3b58-40f2-adac-1f85e8eea25a"
    }
  } ]
}