{"resourceType":"Bundle","id":"tests-ca5f1ee4-ff35-4324-96b5-1488a696dd04-bundle","type":"transaction","entry":[{"fullUrl":"https://madie.cms.gov/Patient/ca5f1ee4-ff35-4324-96b5-1488a696dd04","resource":{"resourceType":"Patient","id":"ca5f1ee4-ff35-4324-96b5-1488a696dd04","meta":{"profile":["http://hl7.org/fhir/us/qicore/StructureDefinition/qicore-patient"]},"extension":[{"url":"http://hl7.org/fhir/us/core/StructureDefinition/us-core-race","extension":[{"url":"ombCategory","valueCoding":{"system":"urn:oid:2.16.840.1.113883.6.238","code":"2028-9","display":"Asian","userSelected":true}},{"url":"text","valueString":"Asian"}]},{"url":"http://hl7.org/fhir/us/core/StructureDefinition/us-core-ethnicity","extension":[{"url":"ombCategory","valueCoding":{"system":"urn:oid:2.16.840.1.113883.6.238","code":"2135-2","display":"Hispanic or Latino","userSelected":true}},{"url":"text","valueString":"Hispanic or Latino"}]}],"identifier":[{"type":{"coding":[{"system":"http://terminology.hl7.org/CodeSystem/v2-0203","code":"MR"}]},"system":"https://bonnie-fhir.healthit.gov/","value":"64946f9cd09ece2c2e9bf952"}],"name":[{"family":"21IPFail","given":["OnlyEncMoreThan240DaysIntoMP"]}],"gender":"female","birthDate":"2006-02-08"},"request":{"method":"PUT","url":"Patient/ca5f1ee4-ff35-4324-96b5-1488a696dd04"}},{"fullUrl":"https://madie.cms.gov/Condition/hiv-f953","resource":{"resourceType":"Condition","id":"91ee08dc-35a9-4d39-a16c-ae1309e8836b","meta":{"profile":["http://hl7.org/fhir/us/qicore/StructureDefinition/qicore-condition"]},"clinicalStatus":{"coding":[{"system":"http://terminology.hl7.org/CodeSystem/condition-clinical","code":"active","display":"active","userSelected":true}]},"category":[{"coding":[{"system":"http://terminology.hl7.org/CodeSystem/condition-category","code":"problem-list-item","display":"Problem List Item"}]}],"code":{"coding":[{"system":"http://hl7.org/fhir/sid/icd-9-cm","version":"2013","code":"042","display":"Human immunodeficiency virus [HIV] disease","userSelected":true},{"system":"http://snomed.info/sct","code":"165816005","userSelected":true}]},"subject":{"reference":"Patient/ca5f1ee4-ff35-4324-96b5-1488a696dd04"},"onsetDateTime":"2008-01-20T08:00:00.000+00:00","recordedDate":"2008-01-20T08:00:00.000+00:00"},"request":{"method":"PUT","url":"Condition/91ee08dc-35a9-4d39-a16c-ae1309e8836b"}},{"fullUrl":"https://madie.cms.gov/Encounter/face-to-face-interaction-f954","resource":{"resourceType":"Encounter","id":"ee962903-b5b1-4dc1-9f36-b3edf7d7adde","meta":{"profile":["http://hl7.org/fhir/us/qicore/StructureDefinition/qicore-encounter"]},"status":"finished","class":{"system":"http://terminology.hl7.org/CodeSystem/v3-ActCode","code":"AMB","display":"ambulatory"},"type":[{"coding":[{"system":"http://snomed.info/sct","version":"2022-09","code":"12843005","display":"Subsequent hospital visit by physician (procedure)","userSelected":true}]}],"subject":{"reference":"Patient/ca5f1ee4-ff35-4324-96b5-1488a696dd04"},"period":{"start":"2025-12-22T08:00:00.000+00:00","end":"2025-12-22T08:15:00.000+00:00"}},"request":{"method":"PUT","url":"Encounter/ee962903-b5b1-4dc1-9f36-b3edf7d7adde"}},{"fullUrl":"https://madie.cms.gov/Coverage/1","resource":{"resourceType":"Coverage","id":"85b35938-4a2a-4229-8ec9-e3d6eb866cb3","meta":{"profile":["http://hl7.org/fhir/us/qicore/StructureDefinition/qicore-coverage"]},"status":"active","beneficiary":{"reference":"Patient/ca5f1ee4-ff35-4324-96b5-1488a696dd04"},"payor":[{"reference":"Organization/a6c3e6fa-301e-4714-9d04-3dde9a7e7c49"}]},"request":{"method":"PUT","url":"Coverage/85b35938-4a2a-4229-8ec9-e3d6eb866cb3"}},{"fullUrl":"https://madie.cms.gov/Organization/123456","resource":{"resourceType":"Organization","id":"a6c3e6fa-301e-4714-9d04-3dde9a7e7c49","meta":{"profile":["http://hl7.org/fhir/us/qicore/StructureDefinition/qicore-organization"]},"identifier":[{"use":"temp","system":"urn:oid:2.16.840.1.113883.4.4","value":"21-3259825"}],"active":true,"type":[{"coding":[{"system":"http://terminology.hl7.org/CodeSystem/organization-type","code":"pay","display":"Payer"}]}],"name":"Blue Cross Blue Shield of Texas","telecom":[{"system":"phone","value":"(+1) 972-766-6900"}],"address":[{"use":"billing","type":"postal","line":["P.O. Box 660044"],"city":"Dallas","state":"TX","postalCode":"75266-0044","country":"USA"}]},"request":{"method":"PUT","url":"Organization/a6c3e6fa-301e-4714-9d04-3dde9a7e7c49"}},{"fullUrl":"https://madie.cms.gov/Practitioner/practitioner-123456","resource":{"resourceType":"Practitioner","id":"c5543e8d-a5ec-486b-a58a-592767fdc78e","meta":{"profile":["http://hl7.org/fhir/us/qicore/StructureDefinition/qicore-practitioner"]},"identifier":[{"system":"http://hl7.org/fhir/sid/us-npi","value":"123456"}],"name":[{"family":"Evil","prefix":["Dr"]}]},"request":{"method":"PUT","url":"Practitioner/c5543e8d-a5ec-486b-a58a-592767fdc78e"}},{"fullUrl":"https://madie.cms.gov/MeasureReport/898beb70-8a56-4304-94fa-9e5b8247e7f7","resource":{"resourceType":"MeasureReport","id":"898beb70-8a56-4304-94fa-9e5b8247e7f7","meta":{"profile":["http://hl7.org/fhir/us/cqfmeasures/StructureDefinition/test-case-cqfm"]},"contained":[{"resourceType":"Parameters","id":"0c405671-6032-4da1-a9da-6c8cc397e24a-parameters","parameter":[{"name":"subject","valueString":"ca5f1ee4-ff35-4324-96b5-1488a696dd04"}]}],"extension":[{"url":"http://hl7.org/fhir/us/cqfmeasures/StructureDefinition/cqfm-inputParameters","valueReference":{"reference":"#0c405671-6032-4da1-a9da-6c8cc397e24a-parameters"}},{"url":"http://hl7.org/fhir/us/cqfmeasures/StructureDefinition/cqfm-testCaseDescription","valueMarkdown":"Patient has one encounter occurring more than 240 days after the start of MP."}],"modifierExtension":[{"url":"http://hl7.org/fhir/us/cqfmeasures/StructureDefinition/cqfm-isTestCase","valueBoolean":true}],"status":"complete","type":"individual","measure":"https://madie.cms.gov/Measure/HIVRetentionFHIR","period":{"start":"2025-01-01","end":"2025-12-31"},"group":[{"population":[{"code":{"coding":[{"system":"http://terminology.hl7.org/CodeSystem/measure-population","code":"initial-population","display":"Initial Population"}]},"count":0},{"code":{"coding":[{"system":"http://terminology.hl7.org/CodeSystem/measure-population","code":"denominator","display":"Denominator"}]},"count":0},{"code":{"coding":[{"system":"http://terminology.hl7.org/CodeSystem/measure-population","code":"numerator","display":"Numerator"}]},"count":0}]}]},"request":{"method":"PUT","url":"MeasureReport/898beb70-8a56-4304-94fa-9e5b8247e7f7"}}]}