{"resourceType":"Bundle","id":"tests-1f17a806-3a0c-43b9-9105-e0e6a97de64d-bundle","type":"transaction","entry":[{"fullUrl":"https://madie.cms.gov/Patient/1f17a806-3a0c-43b9-9105-e0e6a97de64d","resource":{"resourceType":"Patient","id":"1f17a806-3a0c-43b9-9105-e0e6a97de64d","meta":{"profile":["http://hl7.org/fhir/us/qicore/StructureDefinition/qicore-patient"]},"extension":[{"url":"http://hl7.org/fhir/us/core/StructureDefinition/us-core-race","extension":[{"url":"ombCategory","valueCoding":{"system":"urn:oid:2.16.840.1.113883.6.238","code":"2106-3","display":"White","userSelected":true}},{"url":"text","valueString":"White"}]},{"url":"http://hl7.org/fhir/us/core/StructureDefinition/us-core-ethnicity","extension":[{"url":"ombCategory","valueCoding":{"system":"urn:oid:2.16.840.1.113883.6.238","code":"2186-5","display":"Not Hispanic or Latino","userSelected":true}},{"url":"text","valueString":"Not Hispanic or Latino"}]}],"identifier":[{"type":{"coding":[{"system":"http://terminology.hl7.org/CodeSystem/v2-0203","code":"MR"}]},"system":"https://bonnie-fhir.healthit.gov/","value":"6494622ed09ece2c2e9bf910"}],"name":[{"family":"9NumFail","given":["VLduringMPwithEncAfter90Days"]}],"gender":"female","birthDate":"2017-05-12"},"request":{"method":"PUT","url":"Patient/1f17a806-3a0c-43b9-9105-e0e6a97de64d"}},{"fullUrl":"https://madie.cms.gov/Condition/hiv-f911","resource":{"resourceType":"Condition","id":"590ea9a3-bae8-4c34-85d3-51fae06dd008","meta":{"profile":["http://hl7.org/fhir/us/qicore/StructureDefinition/qicore-condition"]},"clinicalStatus":{"coding":[{"system":"http://terminology.hl7.org/CodeSystem/condition-clinical","code":"active","display":"active","userSelected":true}]},"category":[{"coding":[{"system":"http://terminology.hl7.org/CodeSystem/condition-category","code":"problem-list-item","display":"Problem List Item"}]}],"code":{"coding":[{"system":"http://hl7.org/fhir/sid/icd-9-cm","version":"2013","code":"042","display":"Human immunodeficiency virus [HIV] disease","userSelected":true},{"system":"http://snomed.info/sct","code":"165816005","userSelected":true}]},"subject":{"reference":"Patient/1f17a806-3a0c-43b9-9105-e0e6a97de64d"},"onsetDateTime":"2020-05-12T08:00:00.000+00:00","recordedDate":"2020-05-13T09:00:00.000+00:00"},"request":{"method":"PUT","url":"Condition/590ea9a3-bae8-4c34-85d3-51fae06dd008"}},{"fullUrl":"https://madie.cms.gov/Observation/hiv-viral-load-f913","resource":{"resourceType":"Observation","id":"d1fd28bb-62b6-442f-83b8-ce0246b6dcba","meta":{"profile":["http://hl7.org/fhir/us/qicore/StructureDefinition/qicore-observation"]},"status":"final","category":[{"coding":[{"system":"http://terminology.hl7.org/CodeSystem/observation-category"}]}],"code":{"coding":[{"system":"http://loinc.org","version":"2.73","code":"10351-5","display":"HIV 1 RNA [Units/volume] (viral load) in Serum or Plasma by Probe with amplification","userSelected":true}]},"subject":{"reference":"Patient/1f17a806-3a0c-43b9-9105-e0e6a97de64d"}},"request":{"method":"PUT","url":"Observation/d1fd28bb-62b6-442f-83b8-ce0246b6dcba"}},{"fullUrl":"https://madie.cms.gov/Encounter/office-visit-f914","resource":{"resourceType":"Encounter","id":"cabb5fcd-39f8-4abf-b24e-3c959db6da78","meta":{"profile":["http://hl7.org/fhir/us/qicore/StructureDefinition/qicore-encounter"]},"status":"finished","class":{"system":"http://terminology.hl7.org/CodeSystem/v3-ActCode","code":"AMB","display":"ambulatory"},"type":[{"coding":[{"system":"http://snomed.info/sct","version":"2022-09","code":"185463005","display":"Visit out of hours (procedure)","userSelected":true}]}],"subject":{"reference":"Patient/1f17a806-3a0c-43b9-9105-e0e6a97de64d"},"period":{"start":"2025-06-22T08:00:00.000+00:00","end":"2025-06-22T08:15:00.000+00:00"}},"request":{"method":"PUT","url":"Encounter/cabb5fcd-39f8-4abf-b24e-3c959db6da78"}},{"fullUrl":"https://madie.cms.gov/Coverage/1","resource":{"resourceType":"Coverage","id":"c1ecebc5-5eb2-43a4-8bed-b4c4addb999d","meta":{"profile":["http://hl7.org/fhir/us/qicore/StructureDefinition/qicore-coverage"]},"status":"active","beneficiary":{"reference":"Patient/1f17a806-3a0c-43b9-9105-e0e6a97de64d"},"payor":[{"reference":"Organization/80e3e0d1-b2aa-43a6-b1d2-00bfa3164a0f"}]},"request":{"method":"PUT","url":"Coverage/c1ecebc5-5eb2-43a4-8bed-b4c4addb999d"}},{"fullUrl":"https://madie.cms.gov/Organization/123456","resource":{"resourceType":"Organization","id":"80e3e0d1-b2aa-43a6-b1d2-00bfa3164a0f","meta":{"profile":["http://hl7.org/fhir/us/qicore/StructureDefinition/qicore-organization"]},"identifier":[{"use":"temp","system":"urn:oid:2.16.840.1.113883.4.4","value":"21-3259825"}],"active":true,"type":[{"coding":[{"system":"http://terminology.hl7.org/CodeSystem/organization-type","code":"pay","display":"Payer"}]}],"name":"Blue Cross Blue Shield of Texas","telecom":[{"system":"phone","value":"(+1) 972-766-6900"}],"address":[{"use":"billing","type":"postal","line":["P.O. Box 660044"],"city":"Dallas","state":"TX","postalCode":"75266-0044","country":"USA"}]},"request":{"method":"PUT","url":"Organization/80e3e0d1-b2aa-43a6-b1d2-00bfa3164a0f"}},{"fullUrl":"https://madie.cms.gov/Practitioner/practitioner-123456","resource":{"resourceType":"Practitioner","id":"1180028c-eafe-4038-989d-332b2465562d","meta":{"profile":["http://hl7.org/fhir/us/qicore/StructureDefinition/qicore-practitioner"]},"identifier":[{"system":"http://hl7.org/fhir/sid/us-npi","value":"123456"}],"name":[{"family":"Evil","prefix":["Dr"]}]},"request":{"method":"PUT","url":"Practitioner/1180028c-eafe-4038-989d-332b2465562d"}},{"fullUrl":"https://madie.cms.gov/MeasureReport/49ba33b5-7a0d-46f0-b959-fec4fb5eb593","resource":{"resourceType":"MeasureReport","id":"49ba33b5-7a0d-46f0-b959-fec4fb5eb593","meta":{"profile":["http://hl7.org/fhir/us/cqfmeasures/StructureDefinition/test-case-cqfm"]},"contained":[{"resourceType":"Parameters","id":"6712f353-e303-4e40-ae1f-6b81745d17a6-parameters","parameter":[{"name":"subject","valueString":"1f17a806-3a0c-43b9-9105-e0e6a97de64d"}]}],"extension":[{"url":"http://hl7.org/fhir/us/cqfmeasures/StructureDefinition/cqfm-inputParameters","valueReference":{"reference":"#6712f353-e303-4e40-ae1f-6b81745d17a6-parameters"}},{"url":"http://hl7.org/fhir/us/cqfmeasures/StructureDefinition/cqfm-testCaseDescription","valueMarkdown":"Patient has a viral load test before enc (at 90 days apart)"}],"modifierExtension":[{"url":"http://hl7.org/fhir/us/cqfmeasures/StructureDefinition/cqfm-isTestCase","valueBoolean":true}],"status":"complete","type":"individual","measure":"https://madie.cms.gov/Measure/HIVRetentionFHIR","period":{"start":"2025-01-01","end":"2025-12-31"},"group":[{"population":[{"code":{"coding":[{"system":"http://terminology.hl7.org/CodeSystem/measure-population","code":"initial-population","display":"Initial Population"}]},"count":1},{"code":{"coding":[{"system":"http://terminology.hl7.org/CodeSystem/measure-population","code":"denominator","display":"Denominator"}]},"count":1},{"code":{"coding":[{"system":"http://terminology.hl7.org/CodeSystem/measure-population","code":"numerator","display":"Numerator"}]},"count":0}]}]},"request":{"method":"PUT","url":"MeasureReport/49ba33b5-7a0d-46f0-b959-fec4fb5eb593"}}]}