{"resourceType":"Bundle","id":"tests-4a461ae6-b9f7-4e9f-aab2-ecc9e65fb298-bundle","type":"transaction","entry":[{"fullUrl":"https://madie.cms.gov/Patient/4a461ae6-b9f7-4e9f-aab2-ecc9e65fb298","resource":{"resourceType":"Patient","id":"4a461ae6-b9f7-4e9f-aab2-ecc9e65fb298","meta":{"profile":["http://hl7.org/fhir/us/qicore/StructureDefinition/qicore-patient"]},"extension":[{"url":"http://hl7.org/fhir/us/core/StructureDefinition/us-core-race","extension":[{"url":"ombCategory","valueCoding":{"system":"urn:oid:2.16.840.1.113883.6.238","code":"2054-5","display":"Black or African American","userSelected":true}},{"url":"text","valueString":"Black or African American"}]},{"url":"http://hl7.org/fhir/us/core/StructureDefinition/us-core-ethnicity","extension":[{"url":"ombCategory","valueCoding":{"system":"urn:oid:2.16.840.1.113883.6.238","code":"2186-5","display":"Not Hispanic or Latino","userSelected":true}},{"url":"text","valueString":"Not Hispanic or Latino"}]}],"identifier":[{"type":{"coding":[{"system":"http://terminology.hl7.org/CodeSystem/v2-0203","code":"MR"}]},"system":"https://bonnie-fhir.healthit.gov/","value":"649469c3d09ece2c2e9bf93f"}],"name":[{"family":"15NumPass","given":["TwoEncJan1andDec31"]}],"gender":"female","birthDate":"2015-08-04"},"request":{"method":"PUT","url":"Patient/4a461ae6-b9f7-4e9f-aab2-ecc9e65fb298"}},{"fullUrl":"https://madie.cms.gov/Condition/hiv-f940","resource":{"resourceType":"Condition","id":"a1faa44f-0819-43a7-9676-0aca56dfdee5","meta":{"profile":["http://hl7.org/fhir/us/qicore/StructureDefinition/qicore-condition"]},"clinicalStatus":{"coding":[{"system":"http://terminology.hl7.org/CodeSystem/condition-clinical","code":"active","display":"active","userSelected":true}]},"category":[{"coding":[{"system":"http://terminology.hl7.org/CodeSystem/condition-category","code":"problem-list-item","display":"Problem List Item"}]}],"code":{"coding":[{"system":"http://hl7.org/fhir/sid/icd-9-cm","version":"2013","code":"042","display":"Human immunodeficiency virus [HIV] disease","userSelected":true},{"system":"http://snomed.info/sct","code":"230180003","userSelected":true}]},"subject":{"reference":"Patient/4a461ae6-b9f7-4e9f-aab2-ecc9e65fb298"},"onsetDateTime":"2025-01-01T08:00:00.000+00:00","recordedDate":"2025-01-01T08:00:00.000+00:00"},"request":{"method":"PUT","url":"Condition/a1faa44f-0819-43a7-9676-0aca56dfdee5"}},{"fullUrl":"https://madie.cms.gov/Encounter/home-healthcare-services-f941","resource":{"resourceType":"Encounter","id":"a6dfcba8-d17b-4ad5-a3e9-c95755c3b613","meta":{"profile":["http://hl7.org/fhir/us/qicore/StructureDefinition/qicore-encounter"]},"status":"finished","class":{"system":"http://terminology.hl7.org/CodeSystem/v3-ActCode","code":"AMB","display":"ambulatory"},"type":[{"coding":[{"system":"http://snomed.info/sct","version":"2022-09","code":"185460008","display":"Home visit request by patient (procedure)","userSelected":true}]}],"subject":{"reference":"Patient/4a461ae6-b9f7-4e9f-aab2-ecc9e65fb298"},"period":{"start":"2025-02-01T08:00:00.000+00:00","end":"2025-02-01T08:15:00.000+00:00"}},"request":{"method":"PUT","url":"Encounter/a6dfcba8-d17b-4ad5-a3e9-c95755c3b613"}},{"fullUrl":"https://madie.cms.gov/Encounter/office-visit-f942","resource":{"resourceType":"Encounter","id":"328fe0cc-c86e-421c-aa89-7b58572ecbce","meta":{"profile":["http://hl7.org/fhir/us/qicore/StructureDefinition/qicore-encounter"]},"status":"finished","class":{"system":"http://terminology.hl7.org/CodeSystem/v3-ActCode","code":"AMB","display":"ambulatory"},"type":[{"coding":[{"system":"http://snomed.info/sct","version":"2022-09","code":"185463005","display":"Visit out of hours (procedure)","userSelected":true}]}],"subject":{"reference":"Patient/4a461ae6-b9f7-4e9f-aab2-ecc9e65fb298"},"period":{"start":"2025-12-31T08:00:00.000+00:00","end":"2025-12-31T08:15:00.000+00:00"}},"request":{"method":"PUT","url":"Encounter/328fe0cc-c86e-421c-aa89-7b58572ecbce"}},{"fullUrl":"https://madie.cms.gov/Coverage/1","resource":{"resourceType":"Coverage","id":"6fc4d407-c909-4cc1-8cd9-79a41e77f5ea","meta":{"profile":["http://hl7.org/fhir/us/qicore/StructureDefinition/qicore-coverage"]},"status":"active","beneficiary":{"reference":"Patient/4a461ae6-b9f7-4e9f-aab2-ecc9e65fb298"},"payor":[{"reference":"Organization/41c75c00-82d9-4ab2-98f6-cfaf7fc3381d"}]},"request":{"method":"PUT","url":"Coverage/6fc4d407-c909-4cc1-8cd9-79a41e77f5ea"}},{"fullUrl":"https://madie.cms.gov/Organization/123456","resource":{"resourceType":"Organization","id":"41c75c00-82d9-4ab2-98f6-cfaf7fc3381d","meta":{"profile":["http://hl7.org/fhir/us/qicore/StructureDefinition/qicore-organization"]},"identifier":[{"use":"temp","system":"urn:oid:2.16.840.1.113883.4.4","value":"21-3259825"}],"active":true,"type":[{"coding":[{"system":"http://terminology.hl7.org/CodeSystem/organization-type","code":"pay","display":"Payer"}]}],"name":"Blue Cross Blue Shield of Texas","telecom":[{"system":"phone","value":"(+1) 972-766-6900"}],"address":[{"use":"billing","type":"postal","line":["P.O. Box 660044"],"city":"Dallas","state":"TX","postalCode":"75266-0044","country":"USA"}]},"request":{"method":"PUT","url":"Organization/41c75c00-82d9-4ab2-98f6-cfaf7fc3381d"}},{"fullUrl":"https://madie.cms.gov/Practitioner/practitioner-123456","resource":{"resourceType":"Practitioner","id":"97b5a3f7-2fcb-427f-b736-31ee5327f05a","meta":{"profile":["http://hl7.org/fhir/us/qicore/StructureDefinition/qicore-practitioner"]},"identifier":[{"system":"http://hl7.org/fhir/sid/us-npi","value":"123456"}],"name":[{"family":"Evil","prefix":["Dr"]}]},"request":{"method":"PUT","url":"Practitioner/97b5a3f7-2fcb-427f-b736-31ee5327f05a"}},{"fullUrl":"https://madie.cms.gov/MeasureReport/f44d1105-abef-45ea-bf68-9a5e6d93c781","resource":{"resourceType":"MeasureReport","id":"f44d1105-abef-45ea-bf68-9a5e6d93c781","meta":{"profile":["http://hl7.org/fhir/us/cqfmeasures/StructureDefinition/test-case-cqfm"]},"contained":[{"resourceType":"Parameters","id":"b73ac6a3-427d-4fb7-ba45-0fc62656afae-parameters","parameter":[{"name":"subject","valueString":"4a461ae6-b9f7-4e9f-aab2-ecc9e65fb298"}]}],"extension":[{"url":"http://hl7.org/fhir/us/cqfmeasures/StructureDefinition/cqfm-inputParameters","valueReference":{"reference":"#b73ac6a3-427d-4fb7-ba45-0fc62656afae-parameters"}},{"url":"http://hl7.org/fhir/us/cqfmeasures/StructureDefinition/cqfm-testCaseDescription","valueMarkdown":"Patient has two encounters in the MP on Jan 1 and Dec 31 (HIV dx at birth)"}],"modifierExtension":[{"url":"http://hl7.org/fhir/us/cqfmeasures/StructureDefinition/cqfm-isTestCase","valueBoolean":true}],"status":"complete","type":"individual","measure":"https://madie.cms.gov/Measure/HIVRetentionFHIR","period":{"start":"2025-01-01","end":"2025-12-31"},"group":[{"population":[{"code":{"coding":[{"system":"http://terminology.hl7.org/CodeSystem/measure-population","code":"initial-population","display":"Initial Population"}]},"count":1},{"code":{"coding":[{"system":"http://terminology.hl7.org/CodeSystem/measure-population","code":"denominator","display":"Denominator"}]},"count":1},{"code":{"coding":[{"system":"http://terminology.hl7.org/CodeSystem/measure-population","code":"numerator","display":"Numerator"}]},"count":1}]}]},"request":{"method":"PUT","url":"MeasureReport/f44d1105-abef-45ea-bf68-9a5e6d93c781"}}]}