{"resourceType":"Bundle","id":"tests-c1ac2e8a-6c58-4c63-943c-e73bc94e209a-bundle","type":"transaction","entry":[{"fullUrl":"https://madie.cms.gov/Patient/c1ac2e8a-6c58-4c63-943c-e73bc94e209a","resource":{"resourceType":"Patient","id":"c1ac2e8a-6c58-4c63-943c-e73bc94e209a","meta":{"profile":["http://hl7.org/fhir/us/qicore/StructureDefinition/qicore-patient"]},"extension":[{"url":"http://hl7.org/fhir/us/core/StructureDefinition/us-core-race","extension":[{"url":"ombCategory","valueCoding":{"system":"urn:oid:2.16.840.1.113883.6.238","code":"2106-3","display":"White","userSelected":true}},{"url":"text","valueString":"White"}]},{"url":"http://hl7.org/fhir/us/core/StructureDefinition/us-core-ethnicity","extension":[{"url":"ombCategory","valueCoding":{"system":"urn:oid:2.16.840.1.113883.6.238","code":"2186-5","display":"Not Hispanic or Latino","userSelected":true}},{"url":"text","valueString":"Not Hispanic or Latino"}]}],"identifier":[{"type":{"coding":[{"system":"http://terminology.hl7.org/CodeSystem/v2-0203","code":"MR"}]},"system":"https://bonnie-fhir.healthit.gov/","value":"64946654d09ece2c2e9bf919"}],"name":[{"family":"11NumPass","given":["EncEachMonthVLEachMonth"]}],"gender":"male","birthDate":"1976-10-01"},"request":{"method":"PUT","url":"Patient/c1ac2e8a-6c58-4c63-943c-e73bc94e209a"}},{"fullUrl":"https://madie.cms.gov/Condition/hiv-f91a","resource":{"resourceType":"Condition","id":"f57ee812-60b5-4119-88aa-58c65bca5e14","meta":{"profile":["http://hl7.org/fhir/us/qicore/StructureDefinition/qicore-condition"]},"clinicalStatus":{"coding":[{"system":"http://terminology.hl7.org/CodeSystem/condition-clinical","code":"active","display":"active","userSelected":true}]},"category":[{"coding":[{"system":"http://terminology.hl7.org/CodeSystem/condition-category","code":"problem-list-item","display":"Problem List Item"}]}],"code":{"coding":[{"system":"http://hl7.org/fhir/sid/icd-9-cm","version":"2013","code":"042","display":"Human immunodeficiency virus [HIV] disease","userSelected":true},{"system":"http://snomed.info/sct","code":"165816005","userSelected":true}]},"subject":{"reference":"Patient/c1ac2e8a-6c58-4c63-943c-e73bc94e209a"},"onsetDateTime":"2021-06-13T08:00:00.000+00:00","recordedDate":"2021-06-13T08:00:00.000+00:00"},"request":{"method":"PUT","url":"Condition/f57ee812-60b5-4119-88aa-58c65bca5e14"}},{"fullUrl":"https://madie.cms.gov/Encounter/face-to-face-interaction-f91b","resource":{"resourceType":"Encounter","id":"6b80dfda-67be-462f-a75d-e116f5577c54","meta":{"profile":["http://hl7.org/fhir/us/qicore/StructureDefinition/qicore-encounter"]},"status":"finished","class":{"system":"http://terminology.hl7.org/CodeSystem/v3-ActCode","code":"AMB","display":"ambulatory"},"type":[{"coding":[{"system":"http://snomed.info/sct","version":"2022-09","code":"12843005","display":"Subsequent hospital visit by physician (procedure)","userSelected":true}]}],"subject":{"reference":"Patient/c1ac2e8a-6c58-4c63-943c-e73bc94e209a"},"period":{"start":"2025-01-01T08:00:00.000+00:00","end":"2025-01-01T08:15:00.000+00:00"}},"request":{"method":"PUT","url":"Encounter/6b80dfda-67be-462f-a75d-e116f5577c54"}},{"fullUrl":"https://madie.cms.gov/Encounter/outpatient-consultation-f91c","resource":{"resourceType":"Encounter","id":"a8bd4f42-7a00-429e-99ac-bbf4c7d8c209","meta":{"profile":["http://hl7.org/fhir/us/qicore/StructureDefinition/qicore-encounter"]},"status":"finished","class":{"system":"http://terminology.hl7.org/CodeSystem/v3-ActCode","code":"AMB","display":"ambulatory"},"type":[{"coding":[{"system":"http://snomed.info/sct","version":"2022-09","code":"281036007","display":"Follow-up consultation (procedure)","userSelected":true}]}],"subject":{"reference":"Patient/c1ac2e8a-6c58-4c63-943c-e73bc94e209a"},"period":{"start":"2025-02-01T08:00:00.000+00:00","end":"2025-02-01T08:15:00.000+00:00"}},"request":{"method":"PUT","url":"Encounter/a8bd4f42-7a00-429e-99ac-bbf4c7d8c209"}},{"fullUrl":"https://madie.cms.gov/Encounter/outpatient-consultation-f91d","resource":{"resourceType":"Encounter","id":"f7e9b832-44af-4922-96e4-8f03b82ced50","meta":{"profile":["http://hl7.org/fhir/us/qicore/StructureDefinition/qicore-encounter"]},"status":"finished","class":{"system":"http://terminology.hl7.org/CodeSystem/v3-ActCode","code":"AMB","display":"ambulatory"},"type":[{"coding":[{"system":"http://snomed.info/sct","version":"2022-09","code":"281036007","display":"Follow-up consultation (procedure)","userSelected":true}]}],"subject":{"reference":"Patient/c1ac2e8a-6c58-4c63-943c-e73bc94e209a"},"period":{"start":"2025-03-01T08:00:00.000+00:00","end":"2025-03-01T08:15:00.000+00:00"}},"request":{"method":"PUT","url":"Encounter/f7e9b832-44af-4922-96e4-8f03b82ced50"}},{"fullUrl":"https://madie.cms.gov/Encounter/annual-wellness-visit-f91e","resource":{"resourceType":"Encounter","id":"4b66def5-4613-4d1e-a07f-a208c03d4a98","meta":{"profile":["http://hl7.org/fhir/us/qicore/StructureDefinition/qicore-encounter"]},"status":"finished","class":{"system":"http://terminology.hl7.org/CodeSystem/v3-ActCode","code":"AMB","display":"ambulatory"},"type":[{"coding":[{"system":"http://snomed.info/sct","version":"2022-09","code":"444971000124105","display":"Annual wellness visit (procedure)","userSelected":true}]}],"subject":{"reference":"Patient/c1ac2e8a-6c58-4c63-943c-e73bc94e209a"},"period":{"start":"2025-04-01T08:00:00.000+00:00","end":"2025-04-01T08:15:00.000+00:00"}},"request":{"method":"PUT","url":"Encounter/4b66def5-4613-4d1e-a07f-a208c03d4a98"}},{"fullUrl":"https://madie.cms.gov/Encounter/preventive-care-services-established-office-visit-18-and-up-f91f","resource":{"resourceType":"Encounter","id":"a35b30a8-1472-4e4b-867c-c849db012763","meta":{"profile":["http://hl7.org/fhir/us/qicore/StructureDefinition/qicore-encounter"]},"status":"finished","class":{"system":"http://terminology.hl7.org/CodeSystem/v3-ActCode","code":"AMB","display":"ambulatory"},"type":[{"coding":[{"system":"http://www.ama-assn.org/go/cpt","version":"2023","code":"99395","display":"Periodic comprehensive preventive medicine reevaluation and management of an individual including an age and gender appropriate history, examination, counseling/anticipatory guidance/risk factor reduction interventions, and the ordering of laboratory/diagnostic procedures, established patient; 18-39 years","userSelected":true}]}],"subject":{"reference":"Patient/c1ac2e8a-6c58-4c63-943c-e73bc94e209a"},"period":{"start":"2025-05-01T08:00:00.000+00:00","end":"2025-05-01T08:15:00.000+00:00"}},"request":{"method":"PUT","url":"Encounter/a35b30a8-1472-4e4b-867c-c849db012763"}},{"fullUrl":"https://madie.cms.gov/Encounter/preventive-care-services-established-office-visit-18-and-up-f920","resource":{"resourceType":"Encounter","id":"2d26a8fb-3a25-4cad-84ed-ddc2e63a6cd2","meta":{"profile":["http://hl7.org/fhir/us/qicore/StructureDefinition/qicore-encounter"]},"status":"finished","class":{"system":"http://terminology.hl7.org/CodeSystem/v3-ActCode","code":"AMB","display":"ambulatory"},"type":[{"coding":[{"system":"http://www.ama-assn.org/go/cpt","version":"2023","code":"99395","display":"Periodic comprehensive preventive medicine reevaluation and management of an individual including an age and gender appropriate history, examination, counseling/anticipatory guidance/risk factor reduction interventions, and the ordering of laboratory/diagnostic procedures, established patient; 18-39 years","userSelected":true}]}],"subject":{"reference":"Patient/c1ac2e8a-6c58-4c63-943c-e73bc94e209a"},"period":{"start":"2025-06-01T08:00:00.000+00:00","end":"2025-06-01T08:15:00.000+00:00"}},"request":{"method":"PUT","url":"Encounter/2d26a8fb-3a25-4cad-84ed-ddc2e63a6cd2"}},{"fullUrl":"https://madie.cms.gov/Encounter/telephone-visits-f921","resource":{"resourceType":"Encounter","id":"a2b564aa-6061-499e-9414-d74624a8c386","meta":{"profile":["http://hl7.org/fhir/us/qicore/StructureDefinition/qicore-encounter"]},"status":"finished","class":{"system":"http://terminology.hl7.org/CodeSystem/v3-ActCode","code":"AMB","display":"ambulatory"},"type":[{"coding":[{"system":"http://snomed.info/sct","version":"2022-09","code":"185317003","display":"Telephone encounter (procedure)","userSelected":true}]}],"subject":{"reference":"Patient/c1ac2e8a-6c58-4c63-943c-e73bc94e209a"},"period":{"start":"2025-07-01T08:00:00.000+00:00","end":"2025-07-01T08:15:00.000+00:00"}},"request":{"method":"PUT","url":"Encounter/a2b564aa-6061-499e-9414-d74624a8c386"}},{"fullUrl":"https://madie.cms.gov/Encounter/telephone-visits-f922","resource":{"resourceType":"Encounter","id":"42d2a29c-9505-46cb-af0f-e4f40880fcb9","meta":{"profile":["http://hl7.org/fhir/us/qicore/StructureDefinition/qicore-encounter"]},"status":"finished","class":{"system":"http://terminology.hl7.org/CodeSystem/v3-ActCode","code":"AMB","display":"ambulatory"},"type":[{"coding":[{"system":"http://snomed.info/sct","version":"2022-09","code":"185317003","display":"Telephone encounter (procedure)","userSelected":true}]}],"subject":{"reference":"Patient/c1ac2e8a-6c58-4c63-943c-e73bc94e209a"},"period":{"start":"2025-08-01T08:00:00.000+00:00","end":"2025-08-01T08:15:00.000+00:00"}},"request":{"method":"PUT","url":"Encounter/42d2a29c-9505-46cb-af0f-e4f40880fcb9"}},{"fullUrl":"https://madie.cms.gov/Encounter/encounter-inpatient-f923","resource":{"resourceType":"Encounter","id":"b575adae-17c4-4c7f-96bb-9daf6da22966","meta":{"profile":["http://hl7.org/fhir/us/qicore/StructureDefinition/qicore-encounter"]},"status":"finished","class":{"system":"http://terminology.hl7.org/CodeSystem/v3-ActCode","code":"EMER","display":"emergency"},"type":[{"coding":[{"system":"http://snomed.info/sct","version":"2022-09","code":"183452005","display":"Emergency hospital admission (procedure)","userSelected":true}]}],"subject":{"reference":"Patient/c1ac2e8a-6c58-4c63-943c-e73bc94e209a"},"period":{"start":"2025-09-01T08:00:00.000+00:00","end":"2025-09-01T08:15:00.000+00:00"}},"request":{"method":"PUT","url":"Encounter/b575adae-17c4-4c7f-96bb-9daf6da22966"}},{"fullUrl":"https://madie.cms.gov/Encounter/observation-services-f924","resource":{"resourceType":"Encounter","id":"042c9480-51d7-4bd2-8870-205f083c2445","meta":{"profile":["http://hl7.org/fhir/us/qicore/StructureDefinition/qicore-encounter"]},"status":"finished","class":{"system":"http://terminology.hl7.org/CodeSystem/v3-ActCode","code":"OBSENC","display":"observation encounter"},"type":[{"coding":[{"system":"http://snomed.info/sct","version":"2022-09","code":"448951000124107","display":"Admission to observation unit (procedure)","userSelected":true}]}],"subject":{"reference":"Patient/c1ac2e8a-6c58-4c63-943c-e73bc94e209a"},"period":{"start":"2025-10-01T08:00:00.000+00:00","end":"2025-10-01T08:15:00.000+00:00"}},"request":{"method":"PUT","url":"Encounter/042c9480-51d7-4bd2-8870-205f083c2445"}},{"fullUrl":"https://madie.cms.gov/Encounter/outpatient-surgery-service-f925","resource":{"resourceType":"Encounter","id":"e9019568-5563-43c5-b83b-8386001a47df","meta":{"profile":["http://hl7.org/fhir/us/qicore/StructureDefinition/qicore-encounter"]},"status":"finished","class":{"system":"http://terminology.hl7.org/CodeSystem/v3-ActCode","code":"AMB","display":"ambulatory"},"type":[{"coding":[{"system":"http://snomed.info/sct","version":"2022-09","code":"110468005","display":"Ambulatory surgery (procedure)","userSelected":true}]}],"subject":{"reference":"Patient/c1ac2e8a-6c58-4c63-943c-e73bc94e209a"},"period":{"start":"2025-11-01T08:00:00.000+00:00","end":"2025-11-01T08:15:00.000+00:00"}},"request":{"method":"PUT","url":"Encounter/e9019568-5563-43c5-b83b-8386001a47df"}},{"fullUrl":"https://madie.cms.gov/Encounter/encounter-inpatient-f926","resource":{"resourceType":"Encounter","id":"0a323d11-6bba-4080-92a4-6b7ece3c250c","meta":{"profile":["http://hl7.org/fhir/us/qicore/StructureDefinition/qicore-encounter"]},"status":"finished","class":{"system":"http://terminology.hl7.org/CodeSystem/v3-ActCode","code":"EMER","display":"emergency"},"type":[{"coding":[{"system":"http://snomed.info/sct","version":"2022-09","code":"183452005","display":"Emergency hospital admission (procedure)","userSelected":true}]}],"subject":{"reference":"Patient/c1ac2e8a-6c58-4c63-943c-e73bc94e209a"},"period":{"start":"2025-12-01T08:00:00.000+00:00","end":"2025-12-01T08:15:00.000+00:00"}},"request":{"method":"PUT","url":"Encounter/0a323d11-6bba-4080-92a4-6b7ece3c250c"}},{"fullUrl":"https://madie.cms.gov/Observation/hiv-viral-load-f927","resource":{"resourceType":"Observation","id":"eda320c6-61b5-47ab-b7c5-dc30f58fd534","meta":{"profile":["http://hl7.org/fhir/us/qicore/StructureDefinition/qicore-observation"]},"status":"final","category":[{"coding":[{"system":"http://terminology.hl7.org/CodeSystem/observation-category"}]}],"code":{"coding":[{"system":"http://loinc.org","version":"2.73","code":"10351-5","display":"HIV 1 RNA [Units/volume] (viral load) in Serum or Plasma by Probe with amplification","userSelected":true}]},"subject":{"reference":"Patient/c1ac2e8a-6c58-4c63-943c-e73bc94e209a"},"effectivePeriod":{"start":"2025-06-02T10:30:10+01:00","end":"2025-06-05T10:30:10+01:00"},"issued":"2025-06-01T08:00:00.000+00:00"},"request":{"method":"PUT","url":"Observation/eda320c6-61b5-47ab-b7c5-dc30f58fd534"}},{"fullUrl":"https://madie.cms.gov/Observation/hiv-viral-load-f928","resource":{"resourceType":"Observation","id":"e336b96f-455c-4f99-96e4-a6e0c3df59c2","meta":{"profile":["http://hl7.org/fhir/us/qicore/StructureDefinition/qicore-observation"]},"status":"final","category":[{"coding":[{"system":"http://terminology.hl7.org/CodeSystem/observation-category"}]}],"code":{"coding":[{"system":"http://loinc.org","version":"2.73","code":"10351-5","display":"HIV 1 RNA [Units/volume] (viral load) in Serum or Plasma by Probe with amplification","userSelected":true}]},"subject":{"reference":"Patient/c1ac2e8a-6c58-4c63-943c-e73bc94e209a"},"issued":"2025-02-01T08:00:00.000+00:00"},"request":{"method":"PUT","url":"Observation/e336b96f-455c-4f99-96e4-a6e0c3df59c2"}},{"fullUrl":"https://madie.cms.gov/Observation/hiv-viral-load-f929","resource":{"resourceType":"Observation","id":"829248ea-e02c-407a-a1ce-64ab1c56a1a7","meta":{"profile":["http://hl7.org/fhir/us/qicore/StructureDefinition/qicore-observation"]},"status":"final","category":[{"coding":[{"system":"http://terminology.hl7.org/CodeSystem/observation-category"}]}],"code":{"coding":[{"system":"http://loinc.org","version":"2.73","code":"10351-5","display":"HIV 1 RNA [Units/volume] (viral load) in Serum or Plasma by Probe with amplification","userSelected":true}]},"subject":{"reference":"Patient/c1ac2e8a-6c58-4c63-943c-e73bc94e209a"},"issued":"2025-03-01T08:00:00.000+00:00"},"request":{"method":"PUT","url":"Observation/829248ea-e02c-407a-a1ce-64ab1c56a1a7"}},{"fullUrl":"https://madie.cms.gov/Observation/hiv-viral-load-f92a","resource":{"resourceType":"Observation","id":"bda5e625-95ea-4cf2-9195-945285130882","meta":{"profile":["http://hl7.org/fhir/us/qicore/StructureDefinition/qicore-observation"]},"status":"final","category":[{"coding":[{"system":"http://terminology.hl7.org/CodeSystem/observation-category"}]}],"code":{"coding":[{"system":"http://loinc.org","version":"2.73","code":"10351-5","display":"HIV 1 RNA [Units/volume] (viral load) in Serum or Plasma by Probe with amplification","userSelected":true}]},"subject":{"reference":"Patient/c1ac2e8a-6c58-4c63-943c-e73bc94e209a"},"issued":"2025-04-01T08:00:00.000+00:00"},"request":{"method":"PUT","url":"Observation/bda5e625-95ea-4cf2-9195-945285130882"}},{"fullUrl":"https://madie.cms.gov/Observation/hiv-viral-load-f92b","resource":{"resourceType":"Observation","id":"11916270-6e72-4752-9d4f-9107aa9442a3","meta":{"profile":["http://hl7.org/fhir/us/qicore/StructureDefinition/qicore-observation"]},"status":"final","category":[{"coding":[{"system":"http://terminology.hl7.org/CodeSystem/observation-category"}]}],"code":{"coding":[{"system":"http://loinc.org","version":"2.73","code":"10351-5","display":"HIV 1 RNA [Units/volume] (viral load) in Serum or Plasma by Probe with amplification","userSelected":true}]},"subject":{"reference":"Patient/c1ac2e8a-6c58-4c63-943c-e73bc94e209a"},"issued":"2025-05-01T08:00:00.000+00:00"},"request":{"method":"PUT","url":"Observation/11916270-6e72-4752-9d4f-9107aa9442a3"}},{"fullUrl":"https://madie.cms.gov/Observation/hiv-viral-load-f92c","resource":{"resourceType":"Observation","id":"d7c9bc22-8d24-48df-9061-598b0a494c87","meta":{"profile":["http://hl7.org/fhir/us/qicore/StructureDefinition/qicore-observation"]},"status":"final","category":[{"coding":[{"system":"http://terminology.hl7.org/CodeSystem/observation-category"}]}],"code":{"coding":[{"system":"http://loinc.org","version":"2.73","code":"10351-5","display":"HIV 1 RNA [Units/volume] (viral load) in Serum or Plasma by Probe with amplification","userSelected":true}]},"subject":{"reference":"Patient/c1ac2e8a-6c58-4c63-943c-e73bc94e209a"},"issued":"2025-06-01T08:00:00.000+00:00"},"request":{"method":"PUT","url":"Observation/d7c9bc22-8d24-48df-9061-598b0a494c87"}},{"fullUrl":"https://madie.cms.gov/Observation/hiv-viral-load-f92d","resource":{"resourceType":"Observation","id":"6f7cfab0-d3c4-417a-bfdb-bbd6c92353e1","meta":{"profile":["http://hl7.org/fhir/us/qicore/StructureDefinition/qicore-observation"]},"status":"final","category":[{"coding":[{"system":"http://terminology.hl7.org/CodeSystem/observation-category"}]}],"code":{"coding":[{"system":"http://loinc.org","version":"2.73","code":"10351-5","display":"HIV 1 RNA [Units/volume] (viral load) in Serum or Plasma by Probe with amplification","userSelected":true}]},"subject":{"reference":"Patient/c1ac2e8a-6c58-4c63-943c-e73bc94e209a"},"issued":"2025-07-01T08:00:00.000+00:00"},"request":{"method":"PUT","url":"Observation/6f7cfab0-d3c4-417a-bfdb-bbd6c92353e1"}},{"fullUrl":"https://madie.cms.gov/Observation/hiv-viral-load-f92e","resource":{"resourceType":"Observation","id":"0c6a4327-4c99-4130-84c2-c58c1a942ffb","meta":{"profile":["http://hl7.org/fhir/us/qicore/StructureDefinition/qicore-observation"]},"status":"final","category":[{"coding":[{"system":"http://terminology.hl7.org/CodeSystem/observation-category"}]}],"code":{"coding":[{"system":"http://loinc.org","version":"2.73","code":"10351-5","display":"HIV 1 RNA [Units/volume] (viral load) in Serum or Plasma by Probe with amplification","userSelected":true}]},"subject":{"reference":"Patient/c1ac2e8a-6c58-4c63-943c-e73bc94e209a"},"issued":"2025-08-01T08:00:00.000+00:00"},"request":{"method":"PUT","url":"Observation/0c6a4327-4c99-4130-84c2-c58c1a942ffb"}},{"fullUrl":"https://madie.cms.gov/Observation/hiv-viral-load-f92f","resource":{"resourceType":"Observation","id":"e7633ef2-a1bf-4d4f-b9f6-b2be84c981d4","meta":{"profile":["http://hl7.org/fhir/us/qicore/StructureDefinition/qicore-observation"]},"status":"final","category":[{"coding":[{"system":"http://terminology.hl7.org/CodeSystem/observation-category"}]}],"code":{"coding":[{"system":"http://loinc.org","version":"2.73","code":"10351-5","display":"HIV 1 RNA [Units/volume] (viral load) in Serum or Plasma by Probe with amplification","userSelected":true}]},"subject":{"reference":"Patient/c1ac2e8a-6c58-4c63-943c-e73bc94e209a"},"issued":"2025-09-01T08:00:00.000+00:00"},"request":{"method":"PUT","url":"Observation/e7633ef2-a1bf-4d4f-b9f6-b2be84c981d4"}},{"fullUrl":"https://madie.cms.gov/Observation/hiv-viral-load-f930","resource":{"resourceType":"Observation","id":"3c83b3a8-4f37-4f2a-81f8-3d2ec0dd6071","meta":{"profile":["http://hl7.org/fhir/us/qicore/StructureDefinition/qicore-observation"]},"status":"final","category":[{"coding":[{"system":"http://terminology.hl7.org/CodeSystem/observation-category"}]}],"code":{"coding":[{"system":"http://loinc.org","version":"2.73","code":"10351-5","display":"HIV 1 RNA [Units/volume] (viral load) in Serum or Plasma by Probe with amplification","userSelected":true}]},"subject":{"reference":"Patient/c1ac2e8a-6c58-4c63-943c-e73bc94e209a"},"issued":"2025-10-01T08:00:00.000+00:00"},"request":{"method":"PUT","url":"Observation/3c83b3a8-4f37-4f2a-81f8-3d2ec0dd6071"}},{"fullUrl":"https://madie.cms.gov/Observation/hiv-viral-load-f931","resource":{"resourceType":"Observation","id":"06443d5c-03b7-47e1-95d1-d75aaeb4cde1","meta":{"profile":["http://hl7.org/fhir/us/qicore/StructureDefinition/qicore-observation"]},"status":"final","category":[{"coding":[{"system":"http://terminology.hl7.org/CodeSystem/observation-category"}]}],"code":{"coding":[{"system":"http://loinc.org","version":"2.73","code":"10351-5","display":"HIV 1 RNA [Units/volume] (viral load) in Serum or Plasma by Probe with amplification","userSelected":true}]},"subject":{"reference":"Patient/c1ac2e8a-6c58-4c63-943c-e73bc94e209a"},"issued":"2025-11-01T08:00:00.000+00:00"},"request":{"method":"PUT","url":"Observation/06443d5c-03b7-47e1-95d1-d75aaeb4cde1"}},{"fullUrl":"https://madie.cms.gov/Observation/hiv-viral-load-f932","resource":{"resourceType":"Observation","id":"b903abf1-06d2-400c-a32f-721251c1ce10","meta":{"profile":["http://hl7.org/fhir/us/qicore/StructureDefinition/qicore-observation"]},"status":"final","category":[{"coding":[{"system":"http://terminology.hl7.org/CodeSystem/observation-category"}]}],"code":{"coding":[{"system":"http://loinc.org","version":"2.73","code":"10351-5","display":"HIV 1 RNA [Units/volume] (viral load) in Serum or Plasma by Probe with amplification","userSelected":true}]},"subject":{"reference":"Patient/c1ac2e8a-6c58-4c63-943c-e73bc94e209a"},"issued":"2025-12-01T08:00:00.000+00:00"},"request":{"method":"PUT","url":"Observation/b903abf1-06d2-400c-a32f-721251c1ce10"}},{"fullUrl":"https://madie.cms.gov/Coverage/1","resource":{"resourceType":"Coverage","id":"bba1cbd2-9c84-46af-8b0b-44a0911a548b","meta":{"profile":["http://hl7.org/fhir/us/qicore/StructureDefinition/qicore-coverage"]},"status":"active","beneficiary":{"reference":"Patient/c1ac2e8a-6c58-4c63-943c-e73bc94e209a"},"payor":[{"reference":"Organization/42846cc3-1db0-4bf7-b9ff-8b81fa6e835d"}]},"request":{"method":"PUT","url":"Coverage/bba1cbd2-9c84-46af-8b0b-44a0911a548b"}},{"fullUrl":"https://madie.cms.gov/Organization/123456","resource":{"resourceType":"Organization","id":"42846cc3-1db0-4bf7-b9ff-8b81fa6e835d","meta":{"profile":["http://hl7.org/fhir/us/qicore/StructureDefinition/qicore-organization"]},"identifier":[{"use":"temp","system":"urn:oid:2.16.840.1.113883.4.4","value":"21-3259825"}],"active":true,"type":[{"coding":[{"system":"http://terminology.hl7.org/CodeSystem/organization-type","code":"pay","display":"Payer"}]}],"name":"Blue Cross Blue Shield of Texas","telecom":[{"system":"phone","value":"(+1) 972-766-6900"}],"address":[{"use":"billing","type":"postal","line":["P.O. Box 660044"],"city":"Dallas","state":"TX","postalCode":"75266-0044","country":"USA"}]},"request":{"method":"PUT","url":"Organization/42846cc3-1db0-4bf7-b9ff-8b81fa6e835d"}},{"fullUrl":"https://madie.cms.gov/Practitioner/practitioner-123456","resource":{"resourceType":"Practitioner","id":"7de49656-7fa8-43d5-b55a-962f2a845cc8","meta":{"profile":["http://hl7.org/fhir/us/qicore/StructureDefinition/qicore-practitioner"]},"identifier":[{"system":"http://hl7.org/fhir/sid/us-npi","value":"123456"}],"name":[{"family":"Evil","prefix":["Dr"]}]},"request":{"method":"PUT","url":"Practitioner/7de49656-7fa8-43d5-b55a-962f2a845cc8"}},{"fullUrl":"https://madie.cms.gov/MeasureReport/9e814a9b-b41e-410c-bfe3-8b22bb701d32","resource":{"resourceType":"MeasureReport","id":"9e814a9b-b41e-410c-bfe3-8b22bb701d32","meta":{"profile":["http://hl7.org/fhir/us/cqfmeasures/StructureDefinition/test-case-cqfm"]},"contained":[{"resourceType":"Parameters","id":"33f60b88-b00e-44b3-8149-3c89e8d43594-parameters","parameter":[{"name":"subject","valueString":"c1ac2e8a-6c58-4c63-943c-e73bc94e209a"}]}],"extension":[{"url":"http://hl7.org/fhir/us/cqfmeasures/StructureDefinition/cqfm-inputParameters","valueReference":{"reference":"#33f60b88-b00e-44b3-8149-3c89e8d43594-parameters"}},{"url":"http://hl7.org/fhir/us/cqfmeasures/StructureDefinition/cqfm-testCaseDescription","valueMarkdown":"Patient has an encounter each month and a VL test each month"}],"modifierExtension":[{"url":"http://hl7.org/fhir/us/cqfmeasures/StructureDefinition/cqfm-isTestCase","valueBoolean":true}],"status":"complete","type":"individual","measure":"https://madie.cms.gov/Measure/HIVRetentionFHIR","period":{"start":"2025-01-01","end":"2025-12-31"},"group":[{"population":[{"code":{"coding":[{"system":"http://terminology.hl7.org/CodeSystem/measure-population","code":"initial-population","display":"Initial Population"}]},"count":1},{"code":{"coding":[{"system":"http://terminology.hl7.org/CodeSystem/measure-population","code":"denominator","display":"Denominator"}]},"count":1},{"code":{"coding":[{"system":"http://terminology.hl7.org/CodeSystem/measure-population","code":"numerator","display":"Numerator"}]},"count":1}]}]},"request":{"method":"PUT","url":"MeasureReport/9e814a9b-b41e-410c-bfe3-8b22bb701d32"}}]}