{"resourceType":"Bundle","id":"tests-c1ac2e8a-6c58-4c63-943c-e73bc94e209a-bundle","type":"transaction","entry":[{"fullUrl":"https://madie.cms.gov/Patient/c1ac2e8a-6c58-4c63-943c-e73bc94e209a","resource":{"resourceType":"Patient","id":"c1ac2e8a-6c58-4c63-943c-e73bc94e209a","meta":{"profile":["http://hl7.org/fhir/us/qicore/StructureDefinition/qicore-patient"]},"extension":[{"url":"http://hl7.org/fhir/us/core/StructureDefinition/us-core-race","extension":[{"url":"ombCategory","valueCoding":{"system":"urn:oid:2.16.840.1.113883.6.238","code":"2106-3","display":"White","userSelected":true}},{"url":"text","valueString":"White"}]},{"url":"http://hl7.org/fhir/us/core/StructureDefinition/us-core-ethnicity","extension":[{"url":"ombCategory","valueCoding":{"system":"urn:oid:2.16.840.1.113883.6.238","code":"2186-5","display":"Not Hispanic or Latino","userSelected":true}},{"url":"text","valueString":"Not Hispanic or Latino"}]}],"identifier":[{"type":{"coding":[{"system":"http://terminology.hl7.org/CodeSystem/v2-0203","code":"MR"}]},"system":"https://bonnie-fhir.healthit.gov/","value":"64946654d09ece2c2e9bf919"}],"name":[{"family":"11NumPass","given":["EncEachMonthVLEachMonth"]}],"gender":"male","birthDate":"1976-10-01"},"request":{"method":"PUT","url":"Patient/c1ac2e8a-6c58-4c63-943c-e73bc94e209a"}},{"fullUrl":"https://madie.cms.gov/Condition/hiv-f91a","resource":{"resourceType":"Condition","id":"548fe55d-31d4-46d3-88be-3fc23fe84979","meta":{"profile":["http://hl7.org/fhir/us/qicore/StructureDefinition/qicore-condition"]},"clinicalStatus":{"coding":[{"system":"http://terminology.hl7.org/CodeSystem/condition-clinical","code":"active","display":"active","userSelected":true}]},"category":[{"coding":[{"system":"http://terminology.hl7.org/CodeSystem/condition-category","code":"problem-list-item","display":"Problem List Item"}]}],"code":{"coding":[{"system":"http://hl7.org/fhir/sid/icd-9-cm","version":"2013","code":"042","display":"Human immunodeficiency virus [HIV] disease","userSelected":true},{"system":"http://snomed.info/sct","code":"165816005","userSelected":true}]},"subject":{"reference":"Patient/c1ac2e8a-6c58-4c63-943c-e73bc94e209a"},"onsetDateTime":"2021-06-13T08:00:00.000+00:00","recordedDate":"2021-06-13T08:00:00.000+00:00"},"request":{"method":"PUT","url":"Condition/548fe55d-31d4-46d3-88be-3fc23fe84979"}},{"fullUrl":"https://madie.cms.gov/Encounter/face-to-face-interaction-f91b","resource":{"resourceType":"Encounter","id":"c06ce92b-da27-4845-8530-a2db0f4a4f01","meta":{"profile":["http://hl7.org/fhir/us/qicore/StructureDefinition/qicore-encounter"]},"status":"finished","class":{"system":"http://terminology.hl7.org/CodeSystem/v3-ActCode","code":"AMB","display":"ambulatory"},"type":[{"coding":[{"system":"http://snomed.info/sct","version":"2022-09","code":"12843005","display":"Subsequent hospital visit by physician (procedure)","userSelected":true}]}],"subject":{"reference":"Patient/c1ac2e8a-6c58-4c63-943c-e73bc94e209a"},"period":{"start":"2025-01-01T08:00:00.000+00:00","end":"2025-01-01T08:15:00.000+00:00"}},"request":{"method":"PUT","url":"Encounter/c06ce92b-da27-4845-8530-a2db0f4a4f01"}},{"fullUrl":"https://madie.cms.gov/Encounter/outpatient-consultation-f91c","resource":{"resourceType":"Encounter","id":"714c7b2b-3b22-4de6-80c3-862645b46bc7","meta":{"profile":["http://hl7.org/fhir/us/qicore/StructureDefinition/qicore-encounter"]},"status":"finished","class":{"system":"http://terminology.hl7.org/CodeSystem/v3-ActCode","code":"AMB","display":"ambulatory"},"type":[{"coding":[{"system":"http://snomed.info/sct","version":"2022-09","code":"281036007","display":"Follow-up consultation (procedure)","userSelected":true}]}],"subject":{"reference":"Patient/c1ac2e8a-6c58-4c63-943c-e73bc94e209a"},"period":{"start":"2025-02-01T08:00:00.000+00:00","end":"2025-02-01T08:15:00.000+00:00"}},"request":{"method":"PUT","url":"Encounter/714c7b2b-3b22-4de6-80c3-862645b46bc7"}},{"fullUrl":"https://madie.cms.gov/Encounter/outpatient-consultation-f91d","resource":{"resourceType":"Encounter","id":"78c200d7-0f19-48a6-be8a-d4e4004412e5","meta":{"profile":["http://hl7.org/fhir/us/qicore/StructureDefinition/qicore-encounter"]},"status":"finished","class":{"system":"http://terminology.hl7.org/CodeSystem/v3-ActCode","code":"AMB","display":"ambulatory"},"type":[{"coding":[{"system":"http://snomed.info/sct","version":"2022-09","code":"281036007","display":"Follow-up consultation (procedure)","userSelected":true}]}],"subject":{"reference":"Patient/c1ac2e8a-6c58-4c63-943c-e73bc94e209a"},"period":{"start":"2025-03-01T08:00:00.000+00:00","end":"2025-03-01T08:15:00.000+00:00"}},"request":{"method":"PUT","url":"Encounter/78c200d7-0f19-48a6-be8a-d4e4004412e5"}},{"fullUrl":"https://madie.cms.gov/Encounter/annual-wellness-visit-f91e","resource":{"resourceType":"Encounter","id":"9e287c9a-45c3-4648-8199-eb2d02bd625f","meta":{"profile":["http://hl7.org/fhir/us/qicore/StructureDefinition/qicore-encounter"]},"status":"finished","class":{"system":"http://terminology.hl7.org/CodeSystem/v3-ActCode","code":"AMB","display":"ambulatory"},"type":[{"coding":[{"system":"http://snomed.info/sct","version":"2022-09","code":"444971000124105","display":"Annual wellness visit (procedure)","userSelected":true}]}],"subject":{"reference":"Patient/c1ac2e8a-6c58-4c63-943c-e73bc94e209a"},"period":{"start":"2025-04-01T08:00:00.000+00:00","end":"2025-04-01T08:15:00.000+00:00"}},"request":{"method":"PUT","url":"Encounter/9e287c9a-45c3-4648-8199-eb2d02bd625f"}},{"fullUrl":"https://madie.cms.gov/Encounter/preventive-care-services-established-office-visit-18-and-up-f91f","resource":{"resourceType":"Encounter","id":"32e06425-739d-42ab-926d-52a752a94ec8","meta":{"profile":["http://hl7.org/fhir/us/qicore/StructureDefinition/qicore-encounter"]},"status":"finished","class":{"system":"http://terminology.hl7.org/CodeSystem/v3-ActCode","code":"AMB","display":"ambulatory"},"type":[{"coding":[{"system":"http://www.ama-assn.org/go/cpt","version":"2023","code":"99395","display":"Periodic comprehensive preventive medicine reevaluation and management of an individual including an age and gender appropriate history, examination, counseling/anticipatory guidance/risk factor reduction interventions, and the ordering of laboratory/diagnostic procedures, established patient; 18-39 years","userSelected":true}]}],"subject":{"reference":"Patient/c1ac2e8a-6c58-4c63-943c-e73bc94e209a"},"period":{"start":"2025-05-01T08:00:00.000+00:00","end":"2025-05-01T08:15:00.000+00:00"}},"request":{"method":"PUT","url":"Encounter/32e06425-739d-42ab-926d-52a752a94ec8"}},{"fullUrl":"https://madie.cms.gov/Encounter/preventive-care-services-established-office-visit-18-and-up-f920","resource":{"resourceType":"Encounter","id":"c3992c36-9f09-4967-a429-8ab35fea4020","meta":{"profile":["http://hl7.org/fhir/us/qicore/StructureDefinition/qicore-encounter"]},"status":"finished","class":{"system":"http://terminology.hl7.org/CodeSystem/v3-ActCode","code":"AMB","display":"ambulatory"},"type":[{"coding":[{"system":"http://www.ama-assn.org/go/cpt","version":"2023","code":"99395","display":"Periodic comprehensive preventive medicine reevaluation and management of an individual including an age and gender appropriate history, examination, counseling/anticipatory guidance/risk factor reduction interventions, and the ordering of laboratory/diagnostic procedures, established patient; 18-39 years","userSelected":true}]}],"subject":{"reference":"Patient/c1ac2e8a-6c58-4c63-943c-e73bc94e209a"},"period":{"start":"2025-06-01T08:00:00.000+00:00","end":"2025-06-01T08:15:00.000+00:00"}},"request":{"method":"PUT","url":"Encounter/c3992c36-9f09-4967-a429-8ab35fea4020"}},{"fullUrl":"https://madie.cms.gov/Encounter/telephone-visits-f921","resource":{"resourceType":"Encounter","id":"e3a479eb-a4a6-4c3a-89a7-55849b424dea","meta":{"profile":["http://hl7.org/fhir/us/qicore/StructureDefinition/qicore-encounter"]},"status":"finished","class":{"system":"http://terminology.hl7.org/CodeSystem/v3-ActCode","code":"AMB","display":"ambulatory"},"type":[{"coding":[{"system":"http://snomed.info/sct","version":"2022-09","code":"185317003","display":"Telephone encounter (procedure)","userSelected":true}]}],"subject":{"reference":"Patient/c1ac2e8a-6c58-4c63-943c-e73bc94e209a"},"period":{"start":"2025-07-01T08:00:00.000+00:00","end":"2025-07-01T08:15:00.000+00:00"}},"request":{"method":"PUT","url":"Encounter/e3a479eb-a4a6-4c3a-89a7-55849b424dea"}},{"fullUrl":"https://madie.cms.gov/Encounter/telephone-visits-f922","resource":{"resourceType":"Encounter","id":"d501b688-4183-434a-bb78-526d3ea2227b","meta":{"profile":["http://hl7.org/fhir/us/qicore/StructureDefinition/qicore-encounter"]},"status":"finished","class":{"system":"http://terminology.hl7.org/CodeSystem/v3-ActCode","code":"AMB","display":"ambulatory"},"type":[{"coding":[{"system":"http://snomed.info/sct","version":"2022-09","code":"185317003","display":"Telephone encounter (procedure)","userSelected":true}]}],"subject":{"reference":"Patient/c1ac2e8a-6c58-4c63-943c-e73bc94e209a"},"period":{"start":"2025-08-01T08:00:00.000+00:00","end":"2025-08-01T08:15:00.000+00:00"}},"request":{"method":"PUT","url":"Encounter/d501b688-4183-434a-bb78-526d3ea2227b"}},{"fullUrl":"https://madie.cms.gov/Encounter/encounter-inpatient-f923","resource":{"resourceType":"Encounter","id":"115bcc99-8435-48d5-9395-0572c7bf82c3","meta":{"profile":["http://hl7.org/fhir/us/qicore/StructureDefinition/qicore-encounter"]},"status":"finished","class":{"system":"http://terminology.hl7.org/CodeSystem/v3-ActCode","code":"EMER","display":"emergency"},"type":[{"coding":[{"system":"http://snomed.info/sct","version":"2022-09","code":"183452005","display":"Emergency hospital admission (procedure)","userSelected":true}]}],"subject":{"reference":"Patient/c1ac2e8a-6c58-4c63-943c-e73bc94e209a"},"period":{"start":"2025-09-01T08:00:00.000+00:00","end":"2025-09-01T08:15:00.000+00:00"}},"request":{"method":"PUT","url":"Encounter/115bcc99-8435-48d5-9395-0572c7bf82c3"}},{"fullUrl":"https://madie.cms.gov/Encounter/observation-services-f924","resource":{"resourceType":"Encounter","id":"bf08db02-1ff7-4e05-af34-6dcc3612a03a","meta":{"profile":["http://hl7.org/fhir/us/qicore/StructureDefinition/qicore-encounter"]},"status":"finished","class":{"system":"http://terminology.hl7.org/CodeSystem/v3-ActCode","code":"OBSENC","display":"observation encounter"},"type":[{"coding":[{"system":"http://snomed.info/sct","version":"2022-09","code":"448951000124107","display":"Admission to observation unit (procedure)","userSelected":true}]}],"subject":{"reference":"Patient/c1ac2e8a-6c58-4c63-943c-e73bc94e209a"},"period":{"start":"2025-10-01T08:00:00.000+00:00","end":"2025-10-01T08:15:00.000+00:00"}},"request":{"method":"PUT","url":"Encounter/bf08db02-1ff7-4e05-af34-6dcc3612a03a"}},{"fullUrl":"https://madie.cms.gov/Encounter/outpatient-surgery-service-f925","resource":{"resourceType":"Encounter","id":"300c19b7-a655-4b81-9037-3a942b01b26e","meta":{"profile":["http://hl7.org/fhir/us/qicore/StructureDefinition/qicore-encounter"]},"status":"finished","class":{"system":"http://terminology.hl7.org/CodeSystem/v3-ActCode","code":"AMB","display":"ambulatory"},"type":[{"coding":[{"system":"http://snomed.info/sct","version":"2022-09","code":"110468005","display":"Ambulatory surgery (procedure)","userSelected":true}]}],"subject":{"reference":"Patient/c1ac2e8a-6c58-4c63-943c-e73bc94e209a"},"period":{"start":"2025-11-01T08:00:00.000+00:00","end":"2025-11-01T08:15:00.000+00:00"}},"request":{"method":"PUT","url":"Encounter/300c19b7-a655-4b81-9037-3a942b01b26e"}},{"fullUrl":"https://madie.cms.gov/Encounter/encounter-inpatient-f926","resource":{"resourceType":"Encounter","id":"b60567ee-f27e-4c65-b7ea-1d9e272ee3c8","meta":{"profile":["http://hl7.org/fhir/us/qicore/StructureDefinition/qicore-encounter"]},"status":"finished","class":{"system":"http://terminology.hl7.org/CodeSystem/v3-ActCode","code":"EMER","display":"emergency"},"type":[{"coding":[{"system":"http://snomed.info/sct","version":"2022-09","code":"183452005","display":"Emergency hospital admission (procedure)","userSelected":true}]}],"subject":{"reference":"Patient/c1ac2e8a-6c58-4c63-943c-e73bc94e209a"},"period":{"start":"2025-12-01T08:00:00.000+00:00","end":"2025-12-01T08:15:00.000+00:00"}},"request":{"method":"PUT","url":"Encounter/b60567ee-f27e-4c65-b7ea-1d9e272ee3c8"}},{"fullUrl":"https://madie.cms.gov/Observation/hiv-viral-load-f927","resource":{"resourceType":"Observation","id":"cb67f496-2ebc-492a-bebd-d1a1fd3f9c8b","meta":{"profile":["http://hl7.org/fhir/us/qicore/StructureDefinition/qicore-observation"]},"status":"final","category":[{"coding":[{"system":"http://terminology.hl7.org/CodeSystem/observation-category"}]}],"code":{"coding":[{"system":"http://loinc.org","version":"2.73","code":"10351-5","display":"HIV 1 RNA [Units/volume] (viral load) in Serum or Plasma by Probe with amplification","userSelected":true}]},"subject":{"reference":"Patient/c1ac2e8a-6c58-4c63-943c-e73bc94e209a"},"effectivePeriod":{"start":"2025-06-02T10:30:10+01:00","end":"2025-06-05T10:30:10+01:00"},"issued":"2025-06-01T08:00:00.000+00:00"},"request":{"method":"PUT","url":"Observation/cb67f496-2ebc-492a-bebd-d1a1fd3f9c8b"}},{"fullUrl":"https://madie.cms.gov/Observation/hiv-viral-load-f928","resource":{"resourceType":"Observation","id":"b0180a85-d78e-41a6-853d-934bffcdf2d1","meta":{"profile":["http://hl7.org/fhir/us/qicore/StructureDefinition/qicore-observation"]},"status":"final","category":[{"coding":[{"system":"http://terminology.hl7.org/CodeSystem/observation-category"}]}],"code":{"coding":[{"system":"http://loinc.org","version":"2.73","code":"10351-5","display":"HIV 1 RNA [Units/volume] (viral load) in Serum or Plasma by Probe with amplification","userSelected":true}]},"subject":{"reference":"Patient/c1ac2e8a-6c58-4c63-943c-e73bc94e209a"},"issued":"2025-02-01T08:00:00.000+00:00"},"request":{"method":"PUT","url":"Observation/b0180a85-d78e-41a6-853d-934bffcdf2d1"}},{"fullUrl":"https://madie.cms.gov/Observation/hiv-viral-load-f929","resource":{"resourceType":"Observation","id":"d8a89f95-ef93-4a7f-9311-1e135ee1bd89","meta":{"profile":["http://hl7.org/fhir/us/qicore/StructureDefinition/qicore-observation"]},"status":"final","category":[{"coding":[{"system":"http://terminology.hl7.org/CodeSystem/observation-category"}]}],"code":{"coding":[{"system":"http://loinc.org","version":"2.73","code":"10351-5","display":"HIV 1 RNA [Units/volume] (viral load) in Serum or Plasma by Probe with amplification","userSelected":true}]},"subject":{"reference":"Patient/c1ac2e8a-6c58-4c63-943c-e73bc94e209a"},"issued":"2025-03-01T08:00:00.000+00:00"},"request":{"method":"PUT","url":"Observation/d8a89f95-ef93-4a7f-9311-1e135ee1bd89"}},{"fullUrl":"https://madie.cms.gov/Observation/hiv-viral-load-f92a","resource":{"resourceType":"Observation","id":"3067422b-cc98-4c2b-a0f5-687b718ad66e","meta":{"profile":["http://hl7.org/fhir/us/qicore/StructureDefinition/qicore-observation"]},"status":"final","category":[{"coding":[{"system":"http://terminology.hl7.org/CodeSystem/observation-category"}]}],"code":{"coding":[{"system":"http://loinc.org","version":"2.73","code":"10351-5","display":"HIV 1 RNA [Units/volume] (viral load) in Serum or Plasma by Probe with amplification","userSelected":true}]},"subject":{"reference":"Patient/c1ac2e8a-6c58-4c63-943c-e73bc94e209a"},"issued":"2025-04-01T08:00:00.000+00:00"},"request":{"method":"PUT","url":"Observation/3067422b-cc98-4c2b-a0f5-687b718ad66e"}},{"fullUrl":"https://madie.cms.gov/Observation/hiv-viral-load-f92b","resource":{"resourceType":"Observation","id":"260c9f9c-bf44-435a-a7fb-0755c711c1b9","meta":{"profile":["http://hl7.org/fhir/us/qicore/StructureDefinition/qicore-observation"]},"status":"final","category":[{"coding":[{"system":"http://terminology.hl7.org/CodeSystem/observation-category"}]}],"code":{"coding":[{"system":"http://loinc.org","version":"2.73","code":"10351-5","display":"HIV 1 RNA [Units/volume] (viral load) in Serum or Plasma by Probe with amplification","userSelected":true}]},"subject":{"reference":"Patient/c1ac2e8a-6c58-4c63-943c-e73bc94e209a"},"issued":"2025-05-01T08:00:00.000+00:00"},"request":{"method":"PUT","url":"Observation/260c9f9c-bf44-435a-a7fb-0755c711c1b9"}},{"fullUrl":"https://madie.cms.gov/Observation/hiv-viral-load-f92c","resource":{"resourceType":"Observation","id":"62cf7c11-24c0-41da-82b5-fea4869bc2e8","meta":{"profile":["http://hl7.org/fhir/us/qicore/StructureDefinition/qicore-observation"]},"status":"final","category":[{"coding":[{"system":"http://terminology.hl7.org/CodeSystem/observation-category"}]}],"code":{"coding":[{"system":"http://loinc.org","version":"2.73","code":"10351-5","display":"HIV 1 RNA [Units/volume] (viral load) in Serum or Plasma by Probe with amplification","userSelected":true}]},"subject":{"reference":"Patient/c1ac2e8a-6c58-4c63-943c-e73bc94e209a"},"issued":"2025-06-01T08:00:00.000+00:00"},"request":{"method":"PUT","url":"Observation/62cf7c11-24c0-41da-82b5-fea4869bc2e8"}},{"fullUrl":"https://madie.cms.gov/Observation/hiv-viral-load-f92d","resource":{"resourceType":"Observation","id":"0c56522a-75e1-4621-885f-82216bd1d67a","meta":{"profile":["http://hl7.org/fhir/us/qicore/StructureDefinition/qicore-observation"]},"status":"final","category":[{"coding":[{"system":"http://terminology.hl7.org/CodeSystem/observation-category"}]}],"code":{"coding":[{"system":"http://loinc.org","version":"2.73","code":"10351-5","display":"HIV 1 RNA [Units/volume] (viral load) in Serum or Plasma by Probe with amplification","userSelected":true}]},"subject":{"reference":"Patient/c1ac2e8a-6c58-4c63-943c-e73bc94e209a"},"issued":"2025-07-01T08:00:00.000+00:00"},"request":{"method":"PUT","url":"Observation/0c56522a-75e1-4621-885f-82216bd1d67a"}},{"fullUrl":"https://madie.cms.gov/Observation/hiv-viral-load-f92e","resource":{"resourceType":"Observation","id":"3a99cb2d-fc85-4298-bf93-a2cbd8397d60","meta":{"profile":["http://hl7.org/fhir/us/qicore/StructureDefinition/qicore-observation"]},"status":"final","category":[{"coding":[{"system":"http://terminology.hl7.org/CodeSystem/observation-category"}]}],"code":{"coding":[{"system":"http://loinc.org","version":"2.73","code":"10351-5","display":"HIV 1 RNA [Units/volume] (viral load) in Serum or Plasma by Probe with amplification","userSelected":true}]},"subject":{"reference":"Patient/c1ac2e8a-6c58-4c63-943c-e73bc94e209a"},"issued":"2025-08-01T08:00:00.000+00:00"},"request":{"method":"PUT","url":"Observation/3a99cb2d-fc85-4298-bf93-a2cbd8397d60"}},{"fullUrl":"https://madie.cms.gov/Observation/hiv-viral-load-f92f","resource":{"resourceType":"Observation","id":"4524cf9b-ea41-4a40-b18b-cb14279cd7ed","meta":{"profile":["http://hl7.org/fhir/us/qicore/StructureDefinition/qicore-observation"]},"status":"final","category":[{"coding":[{"system":"http://terminology.hl7.org/CodeSystem/observation-category"}]}],"code":{"coding":[{"system":"http://loinc.org","version":"2.73","code":"10351-5","display":"HIV 1 RNA [Units/volume] (viral load) in Serum or Plasma by Probe with amplification","userSelected":true}]},"subject":{"reference":"Patient/c1ac2e8a-6c58-4c63-943c-e73bc94e209a"},"issued":"2025-09-01T08:00:00.000+00:00"},"request":{"method":"PUT","url":"Observation/4524cf9b-ea41-4a40-b18b-cb14279cd7ed"}},{"fullUrl":"https://madie.cms.gov/Observation/hiv-viral-load-f930","resource":{"resourceType":"Observation","id":"c21a743e-7a0a-4af9-817a-711c701de938","meta":{"profile":["http://hl7.org/fhir/us/qicore/StructureDefinition/qicore-observation"]},"status":"final","category":[{"coding":[{"system":"http://terminology.hl7.org/CodeSystem/observation-category"}]}],"code":{"coding":[{"system":"http://loinc.org","version":"2.73","code":"10351-5","display":"HIV 1 RNA [Units/volume] (viral load) in Serum or Plasma by Probe with amplification","userSelected":true}]},"subject":{"reference":"Patient/c1ac2e8a-6c58-4c63-943c-e73bc94e209a"},"issued":"2025-10-01T08:00:00.000+00:00"},"request":{"method":"PUT","url":"Observation/c21a743e-7a0a-4af9-817a-711c701de938"}},{"fullUrl":"https://madie.cms.gov/Observation/hiv-viral-load-f931","resource":{"resourceType":"Observation","id":"2666becc-8d92-4941-8f6d-e9a3b0d710bb","meta":{"profile":["http://hl7.org/fhir/us/qicore/StructureDefinition/qicore-observation"]},"status":"final","category":[{"coding":[{"system":"http://terminology.hl7.org/CodeSystem/observation-category"}]}],"code":{"coding":[{"system":"http://loinc.org","version":"2.73","code":"10351-5","display":"HIV 1 RNA [Units/volume] (viral load) in Serum or Plasma by Probe with amplification","userSelected":true}]},"subject":{"reference":"Patient/c1ac2e8a-6c58-4c63-943c-e73bc94e209a"},"issued":"2025-11-01T08:00:00.000+00:00"},"request":{"method":"PUT","url":"Observation/2666becc-8d92-4941-8f6d-e9a3b0d710bb"}},{"fullUrl":"https://madie.cms.gov/Observation/hiv-viral-load-f932","resource":{"resourceType":"Observation","id":"c3460bdd-c06a-47da-8b86-9636655b69fe","meta":{"profile":["http://hl7.org/fhir/us/qicore/StructureDefinition/qicore-observation"]},"status":"final","category":[{"coding":[{"system":"http://terminology.hl7.org/CodeSystem/observation-category"}]}],"code":{"coding":[{"system":"http://loinc.org","version":"2.73","code":"10351-5","display":"HIV 1 RNA [Units/volume] (viral load) in Serum or Plasma by Probe with amplification","userSelected":true}]},"subject":{"reference":"Patient/c1ac2e8a-6c58-4c63-943c-e73bc94e209a"},"issued":"2025-12-01T08:00:00.000+00:00"},"request":{"method":"PUT","url":"Observation/c3460bdd-c06a-47da-8b86-9636655b69fe"}},{"fullUrl":"https://madie.cms.gov/Coverage/1","resource":{"resourceType":"Coverage","id":"69366460-18dd-42b8-b3dc-8ef633cfcb39","meta":{"profile":["http://hl7.org/fhir/us/qicore/StructureDefinition/qicore-coverage"]},"status":"active","beneficiary":{"reference":"Patient/c1ac2e8a-6c58-4c63-943c-e73bc94e209a"},"payor":[{"reference":"Organization/88fe5347-bc11-46bc-b22c-c233ad09637b"}]},"request":{"method":"PUT","url":"Coverage/69366460-18dd-42b8-b3dc-8ef633cfcb39"}},{"fullUrl":"https://madie.cms.gov/Organization/123456","resource":{"resourceType":"Organization","id":"88fe5347-bc11-46bc-b22c-c233ad09637b","meta":{"profile":["http://hl7.org/fhir/us/qicore/StructureDefinition/qicore-organization"]},"identifier":[{"use":"temp","system":"urn:oid:2.16.840.1.113883.4.4","value":"21-3259825"}],"active":true,"type":[{"coding":[{"system":"http://terminology.hl7.org/CodeSystem/organization-type","code":"pay","display":"Payer"}]}],"name":"Blue Cross Blue Shield of Texas","telecom":[{"system":"phone","value":"(+1) 972-766-6900"}],"address":[{"use":"billing","type":"postal","line":["P.O. Box 660044"],"city":"Dallas","state":"TX","postalCode":"75266-0044","country":"USA"}]},"request":{"method":"PUT","url":"Organization/88fe5347-bc11-46bc-b22c-c233ad09637b"}},{"fullUrl":"https://madie.cms.gov/Practitioner/practitioner-123456","resource":{"resourceType":"Practitioner","id":"26491556-a053-45fe-ac19-783b042b11ba","meta":{"profile":["http://hl7.org/fhir/us/qicore/StructureDefinition/qicore-practitioner"]},"identifier":[{"system":"http://hl7.org/fhir/sid/us-npi","value":"123456"}],"name":[{"family":"Evil","prefix":["Dr"]}]},"request":{"method":"PUT","url":"Practitioner/26491556-a053-45fe-ac19-783b042b11ba"}},{"fullUrl":"https://madie.cms.gov/MeasureReport/9e814a9b-b41e-410c-bfe3-8b22bb701d32","resource":{"resourceType":"MeasureReport","id":"9e814a9b-b41e-410c-bfe3-8b22bb701d32","meta":{"profile":["http://hl7.org/fhir/us/cqfmeasures/StructureDefinition/test-case-cqfm"]},"contained":[{"resourceType":"Parameters","id":"33f60b88-b00e-44b3-8149-3c89e8d43594-parameters","parameter":[{"name":"subject","valueString":"c1ac2e8a-6c58-4c63-943c-e73bc94e209a"}]}],"extension":[{"url":"http://hl7.org/fhir/us/cqfmeasures/StructureDefinition/cqfm-inputParameters","valueReference":{"reference":"#33f60b88-b00e-44b3-8149-3c89e8d43594-parameters"}},{"url":"http://hl7.org/fhir/us/cqfmeasures/StructureDefinition/cqfm-testCaseDescription","valueMarkdown":"Patient has an encounter each month and a VL test each month"}],"modifierExtension":[{"url":"http://hl7.org/fhir/us/cqfmeasures/StructureDefinition/cqfm-isTestCase","valueBoolean":true}],"status":"complete","type":"individual","measure":"https://madie.cms.gov/Measure/HIVRetentionFHIR","period":{"start":"2025-01-01","end":"2025-12-31"},"group":[{"population":[{"code":{"coding":[{"system":"http://terminology.hl7.org/CodeSystem/measure-population","code":"initial-population","display":"Initial Population"}]},"count":1},{"code":{"coding":[{"system":"http://terminology.hl7.org/CodeSystem/measure-population","code":"denominator","display":"Denominator"}]},"count":1},{"code":{"coding":[{"system":"http://terminology.hl7.org/CodeSystem/measure-population","code":"numerator","display":"Numerator"}]},"count":1}]}]},"request":{"method":"PUT","url":"MeasureReport/9e814a9b-b41e-410c-bfe3-8b22bb701d32"}}]}