{"resourceType":"Bundle","id":"tests-c1ac2e8a-6c58-4c63-943c-e73bc94e209a-bundle","type":"transaction","entry":[{"fullUrl":"https://madie.cms.gov/Patient/c1ac2e8a-6c58-4c63-943c-e73bc94e209a","resource":{"resourceType":"Patient","id":"c1ac2e8a-6c58-4c63-943c-e73bc94e209a","meta":{"profile":["http://hl7.org/fhir/us/qicore/StructureDefinition/qicore-patient"]},"extension":[{"url":"http://hl7.org/fhir/us/core/StructureDefinition/us-core-race","extension":[{"url":"ombCategory","valueCoding":{"system":"urn:oid:2.16.840.1.113883.6.238","code":"2106-3","display":"White","userSelected":true}},{"url":"text","valueString":"White"}]},{"url":"http://hl7.org/fhir/us/core/StructureDefinition/us-core-ethnicity","extension":[{"url":"ombCategory","valueCoding":{"system":"urn:oid:2.16.840.1.113883.6.238","code":"2186-5","display":"Not Hispanic or Latino","userSelected":true}},{"url":"text","valueString":"Not Hispanic or Latino"}]}],"identifier":[{"type":{"coding":[{"system":"http://terminology.hl7.org/CodeSystem/v2-0203","code":"MR"}]},"system":"https://bonnie-fhir.healthit.gov/","value":"64946654d09ece2c2e9bf919"}],"name":[{"family":"11NumPass","given":["EncEachMonthVLEachMonth"]}],"gender":"male","birthDate":"1976-10-01"},"request":{"method":"PUT","url":"Patient/c1ac2e8a-6c58-4c63-943c-e73bc94e209a"}},{"fullUrl":"https://madie.cms.gov/Condition/hiv-f91a","resource":{"resourceType":"Condition","id":"b66cf443-4b0c-4082-85a5-ebdeb62989bc","meta":{"profile":["http://hl7.org/fhir/us/qicore/StructureDefinition/qicore-condition"]},"clinicalStatus":{"coding":[{"system":"http://terminology.hl7.org/CodeSystem/condition-clinical","code":"active","display":"active","userSelected":true}]},"category":[{"coding":[{"system":"http://terminology.hl7.org/CodeSystem/condition-category","code":"problem-list-item","display":"Problem List Item"}]}],"code":{"coding":[{"system":"http://hl7.org/fhir/sid/icd-9-cm","version":"2013","code":"042","display":"Human immunodeficiency virus [HIV] disease","userSelected":true},{"system":"http://snomed.info/sct","code":"165816005","userSelected":true}]},"subject":{"reference":"Patient/c1ac2e8a-6c58-4c63-943c-e73bc94e209a"},"onsetDateTime":"2021-06-13T08:00:00.000+00:00","recordedDate":"2021-06-13T08:00:00.000+00:00"},"request":{"method":"PUT","url":"Condition/b66cf443-4b0c-4082-85a5-ebdeb62989bc"}},{"fullUrl":"https://madie.cms.gov/Encounter/face-to-face-interaction-f91b","resource":{"resourceType":"Encounter","id":"b3dfe846-7c84-4ecf-b38a-e871118ecda9","meta":{"profile":["http://hl7.org/fhir/us/qicore/StructureDefinition/qicore-encounter"]},"status":"finished","class":{"system":"http://terminology.hl7.org/CodeSystem/v3-ActCode","code":"AMB","display":"ambulatory"},"type":[{"coding":[{"system":"http://snomed.info/sct","version":"2022-09","code":"12843005","display":"Subsequent hospital visit by physician (procedure)","userSelected":true}]}],"subject":{"reference":"Patient/c1ac2e8a-6c58-4c63-943c-e73bc94e209a"},"period":{"start":"2025-01-01T08:00:00.000+00:00","end":"2025-01-01T08:15:00.000+00:00"}},"request":{"method":"PUT","url":"Encounter/b3dfe846-7c84-4ecf-b38a-e871118ecda9"}},{"fullUrl":"https://madie.cms.gov/Encounter/outpatient-consultation-f91c","resource":{"resourceType":"Encounter","id":"4fcf157a-deb6-424e-be86-b2242dd8d73d","meta":{"profile":["http://hl7.org/fhir/us/qicore/StructureDefinition/qicore-encounter"]},"status":"finished","class":{"system":"http://terminology.hl7.org/CodeSystem/v3-ActCode","code":"AMB","display":"ambulatory"},"type":[{"coding":[{"system":"http://snomed.info/sct","version":"2022-09","code":"281036007","display":"Follow-up consultation (procedure)","userSelected":true}]}],"subject":{"reference":"Patient/c1ac2e8a-6c58-4c63-943c-e73bc94e209a"},"period":{"start":"2025-02-01T08:00:00.000+00:00","end":"2025-02-01T08:15:00.000+00:00"}},"request":{"method":"PUT","url":"Encounter/4fcf157a-deb6-424e-be86-b2242dd8d73d"}},{"fullUrl":"https://madie.cms.gov/Encounter/outpatient-consultation-f91d","resource":{"resourceType":"Encounter","id":"8d22fba8-a169-44cd-b6ed-695d0443e1a7","meta":{"profile":["http://hl7.org/fhir/us/qicore/StructureDefinition/qicore-encounter"]},"status":"finished","class":{"system":"http://terminology.hl7.org/CodeSystem/v3-ActCode","code":"AMB","display":"ambulatory"},"type":[{"coding":[{"system":"http://snomed.info/sct","version":"2022-09","code":"281036007","display":"Follow-up consultation (procedure)","userSelected":true}]}],"subject":{"reference":"Patient/c1ac2e8a-6c58-4c63-943c-e73bc94e209a"},"period":{"start":"2025-03-01T08:00:00.000+00:00","end":"2025-03-01T08:15:00.000+00:00"}},"request":{"method":"PUT","url":"Encounter/8d22fba8-a169-44cd-b6ed-695d0443e1a7"}},{"fullUrl":"https://madie.cms.gov/Encounter/annual-wellness-visit-f91e","resource":{"resourceType":"Encounter","id":"615c4caa-5df8-4795-bf1b-1edbadaa5bcb","meta":{"profile":["http://hl7.org/fhir/us/qicore/StructureDefinition/qicore-encounter"]},"status":"finished","class":{"system":"http://terminology.hl7.org/CodeSystem/v3-ActCode","code":"AMB","display":"ambulatory"},"type":[{"coding":[{"system":"http://snomed.info/sct","version":"2022-09","code":"444971000124105","display":"Annual wellness visit (procedure)","userSelected":true}]}],"subject":{"reference":"Patient/c1ac2e8a-6c58-4c63-943c-e73bc94e209a"},"period":{"start":"2025-04-01T08:00:00.000+00:00","end":"2025-04-01T08:15:00.000+00:00"}},"request":{"method":"PUT","url":"Encounter/615c4caa-5df8-4795-bf1b-1edbadaa5bcb"}},{"fullUrl":"https://madie.cms.gov/Encounter/preventive-care-services-established-office-visit-18-and-up-f91f","resource":{"resourceType":"Encounter","id":"14ccee6a-19d7-47f3-a430-25ac8143aefc","meta":{"profile":["http://hl7.org/fhir/us/qicore/StructureDefinition/qicore-encounter"]},"status":"finished","class":{"system":"http://terminology.hl7.org/CodeSystem/v3-ActCode","code":"AMB","display":"ambulatory"},"type":[{"coding":[{"system":"http://www.ama-assn.org/go/cpt","version":"2023","code":"99395","display":"Periodic comprehensive preventive medicine reevaluation and management of an individual including an age and gender appropriate history, examination, counseling/anticipatory guidance/risk factor reduction interventions, and the ordering of laboratory/diagnostic procedures, established patient; 18-39 years","userSelected":true}]}],"subject":{"reference":"Patient/c1ac2e8a-6c58-4c63-943c-e73bc94e209a"},"period":{"start":"2025-05-01T08:00:00.000+00:00","end":"2025-05-01T08:15:00.000+00:00"}},"request":{"method":"PUT","url":"Encounter/14ccee6a-19d7-47f3-a430-25ac8143aefc"}},{"fullUrl":"https://madie.cms.gov/Encounter/preventive-care-services-established-office-visit-18-and-up-f920","resource":{"resourceType":"Encounter","id":"1042e638-e558-4e8b-baac-f74bfa1fa8b4","meta":{"profile":["http://hl7.org/fhir/us/qicore/StructureDefinition/qicore-encounter"]},"status":"finished","class":{"system":"http://terminology.hl7.org/CodeSystem/v3-ActCode","code":"AMB","display":"ambulatory"},"type":[{"coding":[{"system":"http://www.ama-assn.org/go/cpt","version":"2023","code":"99395","display":"Periodic comprehensive preventive medicine reevaluation and management of an individual including an age and gender appropriate history, examination, counseling/anticipatory guidance/risk factor reduction interventions, and the ordering of laboratory/diagnostic procedures, established patient; 18-39 years","userSelected":true}]}],"subject":{"reference":"Patient/c1ac2e8a-6c58-4c63-943c-e73bc94e209a"},"period":{"start":"2025-06-01T08:00:00.000+00:00","end":"2025-06-01T08:15:00.000+00:00"}},"request":{"method":"PUT","url":"Encounter/1042e638-e558-4e8b-baac-f74bfa1fa8b4"}},{"fullUrl":"https://madie.cms.gov/Encounter/telephone-visits-f921","resource":{"resourceType":"Encounter","id":"10f7b9ef-19a3-4899-90e1-885882a7fd20","meta":{"profile":["http://hl7.org/fhir/us/qicore/StructureDefinition/qicore-encounter"]},"status":"finished","class":{"system":"http://terminology.hl7.org/CodeSystem/v3-ActCode","code":"AMB","display":"ambulatory"},"type":[{"coding":[{"system":"http://snomed.info/sct","version":"2022-09","code":"185317003","display":"Telephone encounter (procedure)","userSelected":true}]}],"subject":{"reference":"Patient/c1ac2e8a-6c58-4c63-943c-e73bc94e209a"},"period":{"start":"2025-07-01T08:00:00.000+00:00","end":"2025-07-01T08:15:00.000+00:00"}},"request":{"method":"PUT","url":"Encounter/10f7b9ef-19a3-4899-90e1-885882a7fd20"}},{"fullUrl":"https://madie.cms.gov/Encounter/telephone-visits-f922","resource":{"resourceType":"Encounter","id":"edbbd1f4-5ed9-432e-ad83-3c5e15fad244","meta":{"profile":["http://hl7.org/fhir/us/qicore/StructureDefinition/qicore-encounter"]},"status":"finished","class":{"system":"http://terminology.hl7.org/CodeSystem/v3-ActCode","code":"AMB","display":"ambulatory"},"type":[{"coding":[{"system":"http://snomed.info/sct","version":"2022-09","code":"185317003","display":"Telephone encounter (procedure)","userSelected":true}]}],"subject":{"reference":"Patient/c1ac2e8a-6c58-4c63-943c-e73bc94e209a"},"period":{"start":"2025-08-01T08:00:00.000+00:00","end":"2025-08-01T08:15:00.000+00:00"}},"request":{"method":"PUT","url":"Encounter/edbbd1f4-5ed9-432e-ad83-3c5e15fad244"}},{"fullUrl":"https://madie.cms.gov/Encounter/encounter-inpatient-f923","resource":{"resourceType":"Encounter","id":"23857438-e156-4490-bfea-c2c1f73b756c","meta":{"profile":["http://hl7.org/fhir/us/qicore/StructureDefinition/qicore-encounter"]},"status":"finished","class":{"system":"http://terminology.hl7.org/CodeSystem/v3-ActCode","code":"EMER","display":"emergency"},"type":[{"coding":[{"system":"http://snomed.info/sct","version":"2022-09","code":"183452005","display":"Emergency hospital admission (procedure)","userSelected":true}]}],"subject":{"reference":"Patient/c1ac2e8a-6c58-4c63-943c-e73bc94e209a"},"period":{"start":"2025-09-01T08:00:00.000+00:00","end":"2025-09-01T08:15:00.000+00:00"}},"request":{"method":"PUT","url":"Encounter/23857438-e156-4490-bfea-c2c1f73b756c"}},{"fullUrl":"https://madie.cms.gov/Encounter/observation-services-f924","resource":{"resourceType":"Encounter","id":"cc1b7b45-f907-45f1-8a8d-76cb47ef5b18","meta":{"profile":["http://hl7.org/fhir/us/qicore/StructureDefinition/qicore-encounter"]},"status":"finished","class":{"system":"http://terminology.hl7.org/CodeSystem/v3-ActCode","code":"OBSENC","display":"observation encounter"},"type":[{"coding":[{"system":"http://snomed.info/sct","version":"2022-09","code":"448951000124107","display":"Admission to observation unit (procedure)","userSelected":true}]}],"subject":{"reference":"Patient/c1ac2e8a-6c58-4c63-943c-e73bc94e209a"},"period":{"start":"2025-10-01T08:00:00.000+00:00","end":"2025-10-01T08:15:00.000+00:00"}},"request":{"method":"PUT","url":"Encounter/cc1b7b45-f907-45f1-8a8d-76cb47ef5b18"}},{"fullUrl":"https://madie.cms.gov/Encounter/outpatient-surgery-service-f925","resource":{"resourceType":"Encounter","id":"bdeec59f-ebb9-4977-896c-daf121f17f14","meta":{"profile":["http://hl7.org/fhir/us/qicore/StructureDefinition/qicore-encounter"]},"status":"finished","class":{"system":"http://terminology.hl7.org/CodeSystem/v3-ActCode","code":"AMB","display":"ambulatory"},"type":[{"coding":[{"system":"http://snomed.info/sct","version":"2022-09","code":"110468005","display":"Ambulatory surgery (procedure)","userSelected":true}]}],"subject":{"reference":"Patient/c1ac2e8a-6c58-4c63-943c-e73bc94e209a"},"period":{"start":"2025-11-01T08:00:00.000+00:00","end":"2025-11-01T08:15:00.000+00:00"}},"request":{"method":"PUT","url":"Encounter/bdeec59f-ebb9-4977-896c-daf121f17f14"}},{"fullUrl":"https://madie.cms.gov/Encounter/encounter-inpatient-f926","resource":{"resourceType":"Encounter","id":"4ce9b951-d698-418b-929e-14aaa84f5f86","meta":{"profile":["http://hl7.org/fhir/us/qicore/StructureDefinition/qicore-encounter"]},"status":"finished","class":{"system":"http://terminology.hl7.org/CodeSystem/v3-ActCode","code":"EMER","display":"emergency"},"type":[{"coding":[{"system":"http://snomed.info/sct","version":"2022-09","code":"183452005","display":"Emergency hospital admission (procedure)","userSelected":true}]}],"subject":{"reference":"Patient/c1ac2e8a-6c58-4c63-943c-e73bc94e209a"},"period":{"start":"2025-12-01T08:00:00.000+00:00","end":"2025-12-01T08:15:00.000+00:00"}},"request":{"method":"PUT","url":"Encounter/4ce9b951-d698-418b-929e-14aaa84f5f86"}},{"fullUrl":"https://madie.cms.gov/Observation/hiv-viral-load-f927","resource":{"resourceType":"Observation","id":"09a04b81-79a8-4c52-b1d4-6b81bfadeb07","meta":{"profile":["http://hl7.org/fhir/us/qicore/StructureDefinition/qicore-observation"]},"status":"final","category":[{"coding":[{"system":"http://terminology.hl7.org/CodeSystem/observation-category"}]}],"code":{"coding":[{"system":"http://loinc.org","version":"2.73","code":"10351-5","display":"HIV 1 RNA [Units/volume] (viral load) in Serum or Plasma by Probe with amplification","userSelected":true}]},"subject":{"reference":"Patient/c1ac2e8a-6c58-4c63-943c-e73bc94e209a"},"effectivePeriod":{"start":"2025-06-02T10:30:10+01:00","end":"2025-06-05T10:30:10+01:00"},"issued":"2025-06-01T08:00:00.000+00:00"},"request":{"method":"PUT","url":"Observation/09a04b81-79a8-4c52-b1d4-6b81bfadeb07"}},{"fullUrl":"https://madie.cms.gov/Observation/hiv-viral-load-f928","resource":{"resourceType":"Observation","id":"0c54e4ac-c1e5-4435-82a0-b0f8d2992f81","meta":{"profile":["http://hl7.org/fhir/us/qicore/StructureDefinition/qicore-observation"]},"status":"final","category":[{"coding":[{"system":"http://terminology.hl7.org/CodeSystem/observation-category"}]}],"code":{"coding":[{"system":"http://loinc.org","version":"2.73","code":"10351-5","display":"HIV 1 RNA [Units/volume] (viral load) in Serum or Plasma by Probe with amplification","userSelected":true}]},"subject":{"reference":"Patient/c1ac2e8a-6c58-4c63-943c-e73bc94e209a"},"issued":"2025-02-01T08:00:00.000+00:00"},"request":{"method":"PUT","url":"Observation/0c54e4ac-c1e5-4435-82a0-b0f8d2992f81"}},{"fullUrl":"https://madie.cms.gov/Observation/hiv-viral-load-f929","resource":{"resourceType":"Observation","id":"b33d0787-2e83-4d6d-ba91-adfee9d17065","meta":{"profile":["http://hl7.org/fhir/us/qicore/StructureDefinition/qicore-observation"]},"status":"final","category":[{"coding":[{"system":"http://terminology.hl7.org/CodeSystem/observation-category"}]}],"code":{"coding":[{"system":"http://loinc.org","version":"2.73","code":"10351-5","display":"HIV 1 RNA [Units/volume] (viral load) in Serum or Plasma by Probe with amplification","userSelected":true}]},"subject":{"reference":"Patient/c1ac2e8a-6c58-4c63-943c-e73bc94e209a"},"issued":"2025-03-01T08:00:00.000+00:00"},"request":{"method":"PUT","url":"Observation/b33d0787-2e83-4d6d-ba91-adfee9d17065"}},{"fullUrl":"https://madie.cms.gov/Observation/hiv-viral-load-f92a","resource":{"resourceType":"Observation","id":"4aa8171e-9681-49da-8e3a-a08b6bc3e3a6","meta":{"profile":["http://hl7.org/fhir/us/qicore/StructureDefinition/qicore-observation"]},"status":"final","category":[{"coding":[{"system":"http://terminology.hl7.org/CodeSystem/observation-category"}]}],"code":{"coding":[{"system":"http://loinc.org","version":"2.73","code":"10351-5","display":"HIV 1 RNA [Units/volume] (viral load) in Serum or Plasma by Probe with amplification","userSelected":true}]},"subject":{"reference":"Patient/c1ac2e8a-6c58-4c63-943c-e73bc94e209a"},"issued":"2025-04-01T08:00:00.000+00:00"},"request":{"method":"PUT","url":"Observation/4aa8171e-9681-49da-8e3a-a08b6bc3e3a6"}},{"fullUrl":"https://madie.cms.gov/Observation/hiv-viral-load-f92b","resource":{"resourceType":"Observation","id":"c204442c-907e-4cb1-9281-3aabb42525fc","meta":{"profile":["http://hl7.org/fhir/us/qicore/StructureDefinition/qicore-observation"]},"status":"final","category":[{"coding":[{"system":"http://terminology.hl7.org/CodeSystem/observation-category"}]}],"code":{"coding":[{"system":"http://loinc.org","version":"2.73","code":"10351-5","display":"HIV 1 RNA [Units/volume] (viral load) in Serum or Plasma by Probe with amplification","userSelected":true}]},"subject":{"reference":"Patient/c1ac2e8a-6c58-4c63-943c-e73bc94e209a"},"issued":"2025-05-01T08:00:00.000+00:00"},"request":{"method":"PUT","url":"Observation/c204442c-907e-4cb1-9281-3aabb42525fc"}},{"fullUrl":"https://madie.cms.gov/Observation/hiv-viral-load-f92c","resource":{"resourceType":"Observation","id":"a59842fe-34a4-460b-8f8f-e066eea85c1c","meta":{"profile":["http://hl7.org/fhir/us/qicore/StructureDefinition/qicore-observation"]},"status":"final","category":[{"coding":[{"system":"http://terminology.hl7.org/CodeSystem/observation-category"}]}],"code":{"coding":[{"system":"http://loinc.org","version":"2.73","code":"10351-5","display":"HIV 1 RNA [Units/volume] (viral load) in Serum or Plasma by Probe with amplification","userSelected":true}]},"subject":{"reference":"Patient/c1ac2e8a-6c58-4c63-943c-e73bc94e209a"},"issued":"2025-06-01T08:00:00.000+00:00"},"request":{"method":"PUT","url":"Observation/a59842fe-34a4-460b-8f8f-e066eea85c1c"}},{"fullUrl":"https://madie.cms.gov/Observation/hiv-viral-load-f92d","resource":{"resourceType":"Observation","id":"e4899659-79ec-4d8d-94f8-6084481bf3fe","meta":{"profile":["http://hl7.org/fhir/us/qicore/StructureDefinition/qicore-observation"]},"status":"final","category":[{"coding":[{"system":"http://terminology.hl7.org/CodeSystem/observation-category"}]}],"code":{"coding":[{"system":"http://loinc.org","version":"2.73","code":"10351-5","display":"HIV 1 RNA [Units/volume] (viral load) in Serum or Plasma by Probe with amplification","userSelected":true}]},"subject":{"reference":"Patient/c1ac2e8a-6c58-4c63-943c-e73bc94e209a"},"issued":"2025-07-01T08:00:00.000+00:00"},"request":{"method":"PUT","url":"Observation/e4899659-79ec-4d8d-94f8-6084481bf3fe"}},{"fullUrl":"https://madie.cms.gov/Observation/hiv-viral-load-f92e","resource":{"resourceType":"Observation","id":"d70d5202-cfa2-4207-b435-3a6affa8c21e","meta":{"profile":["http://hl7.org/fhir/us/qicore/StructureDefinition/qicore-observation"]},"status":"final","category":[{"coding":[{"system":"http://terminology.hl7.org/CodeSystem/observation-category"}]}],"code":{"coding":[{"system":"http://loinc.org","version":"2.73","code":"10351-5","display":"HIV 1 RNA [Units/volume] (viral load) in Serum or Plasma by Probe with amplification","userSelected":true}]},"subject":{"reference":"Patient/c1ac2e8a-6c58-4c63-943c-e73bc94e209a"},"issued":"2025-08-01T08:00:00.000+00:00"},"request":{"method":"PUT","url":"Observation/d70d5202-cfa2-4207-b435-3a6affa8c21e"}},{"fullUrl":"https://madie.cms.gov/Observation/hiv-viral-load-f92f","resource":{"resourceType":"Observation","id":"cc00f20b-914f-49dc-883f-62e1814b5b09","meta":{"profile":["http://hl7.org/fhir/us/qicore/StructureDefinition/qicore-observation"]},"status":"final","category":[{"coding":[{"system":"http://terminology.hl7.org/CodeSystem/observation-category"}]}],"code":{"coding":[{"system":"http://loinc.org","version":"2.73","code":"10351-5","display":"HIV 1 RNA [Units/volume] (viral load) in Serum or Plasma by Probe with amplification","userSelected":true}]},"subject":{"reference":"Patient/c1ac2e8a-6c58-4c63-943c-e73bc94e209a"},"issued":"2025-09-01T08:00:00.000+00:00"},"request":{"method":"PUT","url":"Observation/cc00f20b-914f-49dc-883f-62e1814b5b09"}},{"fullUrl":"https://madie.cms.gov/Observation/hiv-viral-load-f930","resource":{"resourceType":"Observation","id":"87851593-4168-40b2-bd03-4aaac825f71f","meta":{"profile":["http://hl7.org/fhir/us/qicore/StructureDefinition/qicore-observation"]},"status":"final","category":[{"coding":[{"system":"http://terminology.hl7.org/CodeSystem/observation-category"}]}],"code":{"coding":[{"system":"http://loinc.org","version":"2.73","code":"10351-5","display":"HIV 1 RNA [Units/volume] (viral load) in Serum or Plasma by Probe with amplification","userSelected":true}]},"subject":{"reference":"Patient/c1ac2e8a-6c58-4c63-943c-e73bc94e209a"},"issued":"2025-10-01T08:00:00.000+00:00"},"request":{"method":"PUT","url":"Observation/87851593-4168-40b2-bd03-4aaac825f71f"}},{"fullUrl":"https://madie.cms.gov/Observation/hiv-viral-load-f931","resource":{"resourceType":"Observation","id":"c3e69f48-17dc-427d-82c8-215b108ea3ca","meta":{"profile":["http://hl7.org/fhir/us/qicore/StructureDefinition/qicore-observation"]},"status":"final","category":[{"coding":[{"system":"http://terminology.hl7.org/CodeSystem/observation-category"}]}],"code":{"coding":[{"system":"http://loinc.org","version":"2.73","code":"10351-5","display":"HIV 1 RNA [Units/volume] (viral load) in Serum or Plasma by Probe with amplification","userSelected":true}]},"subject":{"reference":"Patient/c1ac2e8a-6c58-4c63-943c-e73bc94e209a"},"issued":"2025-11-01T08:00:00.000+00:00"},"request":{"method":"PUT","url":"Observation/c3e69f48-17dc-427d-82c8-215b108ea3ca"}},{"fullUrl":"https://madie.cms.gov/Observation/hiv-viral-load-f932","resource":{"resourceType":"Observation","id":"a4e1c706-906a-4ec9-aace-b497f640f4bd","meta":{"profile":["http://hl7.org/fhir/us/qicore/StructureDefinition/qicore-observation"]},"status":"final","category":[{"coding":[{"system":"http://terminology.hl7.org/CodeSystem/observation-category"}]}],"code":{"coding":[{"system":"http://loinc.org","version":"2.73","code":"10351-5","display":"HIV 1 RNA [Units/volume] (viral load) in Serum or Plasma by Probe with amplification","userSelected":true}]},"subject":{"reference":"Patient/c1ac2e8a-6c58-4c63-943c-e73bc94e209a"},"issued":"2025-12-01T08:00:00.000+00:00"},"request":{"method":"PUT","url":"Observation/a4e1c706-906a-4ec9-aace-b497f640f4bd"}},{"fullUrl":"https://madie.cms.gov/Coverage/1","resource":{"resourceType":"Coverage","id":"dc49e21e-71f4-4a75-a923-d0f5d1d4f59a","meta":{"profile":["http://hl7.org/fhir/us/qicore/StructureDefinition/qicore-coverage"]},"status":"active","beneficiary":{"reference":"Patient/c1ac2e8a-6c58-4c63-943c-e73bc94e209a"},"payor":[{"reference":"Organization/5224cb12-ed64-4d6d-ab28-40a64f0800f1"}]},"request":{"method":"PUT","url":"Coverage/dc49e21e-71f4-4a75-a923-d0f5d1d4f59a"}},{"fullUrl":"https://madie.cms.gov/Organization/123456","resource":{"resourceType":"Organization","id":"5224cb12-ed64-4d6d-ab28-40a64f0800f1","meta":{"profile":["http://hl7.org/fhir/us/qicore/StructureDefinition/qicore-organization"]},"identifier":[{"use":"temp","system":"urn:oid:2.16.840.1.113883.4.4","value":"21-3259825"}],"active":true,"type":[{"coding":[{"system":"http://terminology.hl7.org/CodeSystem/organization-type","code":"pay","display":"Payer"}]}],"name":"Blue Cross Blue Shield of Texas","telecom":[{"system":"phone","value":"(+1) 972-766-6900"}],"address":[{"use":"billing","type":"postal","line":["P.O. Box 660044"],"city":"Dallas","state":"TX","postalCode":"75266-0044","country":"USA"}]},"request":{"method":"PUT","url":"Organization/5224cb12-ed64-4d6d-ab28-40a64f0800f1"}},{"fullUrl":"https://madie.cms.gov/Practitioner/practitioner-123456","resource":{"resourceType":"Practitioner","id":"5eec5fbc-6ef7-4f3a-83c4-27db4ffb31d3","meta":{"profile":["http://hl7.org/fhir/us/qicore/StructureDefinition/qicore-practitioner"]},"identifier":[{"system":"http://hl7.org/fhir/sid/us-npi","value":"123456"}],"name":[{"family":"Evil","prefix":["Dr"]}]},"request":{"method":"PUT","url":"Practitioner/5eec5fbc-6ef7-4f3a-83c4-27db4ffb31d3"}},{"fullUrl":"https://madie.cms.gov/MeasureReport/9e814a9b-b41e-410c-bfe3-8b22bb701d32","resource":{"resourceType":"MeasureReport","id":"9e814a9b-b41e-410c-bfe3-8b22bb701d32","meta":{"profile":["http://hl7.org/fhir/us/cqfmeasures/StructureDefinition/test-case-cqfm"]},"contained":[{"resourceType":"Parameters","id":"33f60b88-b00e-44b3-8149-3c89e8d43594-parameters","parameter":[{"name":"subject","valueString":"c1ac2e8a-6c58-4c63-943c-e73bc94e209a"}]}],"extension":[{"url":"http://hl7.org/fhir/us/cqfmeasures/StructureDefinition/cqfm-inputParameters","valueReference":{"reference":"#33f60b88-b00e-44b3-8149-3c89e8d43594-parameters"}},{"url":"http://hl7.org/fhir/us/cqfmeasures/StructureDefinition/cqfm-testCaseDescription","valueMarkdown":"Patient has an encounter each month and a VL test each month"}],"modifierExtension":[{"url":"http://hl7.org/fhir/us/cqfmeasures/StructureDefinition/cqfm-isTestCase","valueBoolean":true}],"status":"complete","type":"individual","measure":"https://madie.cms.gov/Measure/HIVRetentionFHIR","period":{"start":"2025-01-01","end":"2025-12-31"},"group":[{"population":[{"code":{"coding":[{"system":"http://terminology.hl7.org/CodeSystem/measure-population","code":"initial-population","display":"Initial Population"}]},"count":1},{"code":{"coding":[{"system":"http://terminology.hl7.org/CodeSystem/measure-population","code":"denominator","display":"Denominator"}]},"count":1},{"code":{"coding":[{"system":"http://terminology.hl7.org/CodeSystem/measure-population","code":"numerator","display":"Numerator"}]},"count":1}]}]},"request":{"method":"PUT","url":"MeasureReport/9e814a9b-b41e-410c-bfe3-8b22bb701d32"}}]}