{"resourceType":"Bundle","id":"tests-7d2ac41c-0346-43d9-b069-6418679074d5-bundle","type":"transaction","entry":[{"fullUrl":"https://madie.cms.gov/Patient/7d2ac41c-0346-43d9-b069-6418679074d5","resource":{"resourceType":"Patient","id":"7d2ac41c-0346-43d9-b069-6418679074d5","meta":{"profile":["http://hl7.org/fhir/us/qicore/StructureDefinition/qicore-patient"]},"extension":[{"url":"http://hl7.org/fhir/us/core/StructureDefinition/us-core-race","extension":[{"url":"ombCategory","valueCoding":{"system":"urn:oid:2.16.840.1.113883.6.238","code":"2106-3","display":"White","userSelected":true}},{"url":"text","valueString":"White"}]},{"url":"http://hl7.org/fhir/us/core/StructureDefinition/us-core-ethnicity","extension":[{"url":"ombCategory","valueCoding":{"system":"urn:oid:2.16.840.1.113883.6.238","code":"2186-5","display":"Not Hispanic or Latino","userSelected":true}},{"url":"text","valueString":"Not Hispanic or Latino"}]}],"identifier":[{"type":{"coding":[{"system":"http://terminology.hl7.org/CodeSystem/v2-0203","code":"MR"}]},"system":"https://bonnie-fhir.healthit.gov/","value":"64945a33d09ece2c2e9bf8ff"}],"name":[{"family":"5NumFail","given":["EncInMPVLafterMP"]}],"gender":"male","birthDate":"1990-05-08"},"request":{"method":"PUT","url":"Patient/7d2ac41c-0346-43d9-b069-6418679074d5"}},{"fullUrl":"https://madie.cms.gov/Condition/hiv-f900","resource":{"resourceType":"Condition","id":"7dfe0c2b-97b7-478d-9b97-8aa04fe8ee6c","meta":{"profile":["http://hl7.org/fhir/us/qicore/StructureDefinition/qicore-condition"]},"clinicalStatus":{"coding":[{"system":"http://terminology.hl7.org/CodeSystem/condition-clinical","code":"active","display":"active","userSelected":true}]},"category":[{"coding":[{"system":"http://terminology.hl7.org/CodeSystem/condition-category","code":"problem-list-item","display":"Problem List Item"}]}],"code":{"coding":[{"system":"http://hl7.org/fhir/sid/icd-9-cm","version":"2013","code":"042","display":"Human immunodeficiency virus [HIV] disease","userSelected":true}]},"subject":{"reference":"Patient/7d2ac41c-0346-43d9-b069-6418679074d5"},"onsetDateTime":"2001-09-08T10:00:00.000+00:00"},"request":{"method":"PUT","url":"Condition/7dfe0c2b-97b7-478d-9b97-8aa04fe8ee6c"}},{"fullUrl":"https://madie.cms.gov/Encounter/outpatient-consultation-f901","resource":{"resourceType":"Encounter","id":"5fe9ba55-a460-4507-a319-8e83a8d36f6c","meta":{"profile":["http://hl7.org/fhir/us/qicore/StructureDefinition/qicore-encounter"]},"status":"finished","class":{"system":"http://terminology.hl7.org/CodeSystem/v3-ActCode","code":"AMB","display":"ambulatory"},"type":[{"coding":[{"system":"http://snomed.info/sct","version":"2022-09","code":"281036007","display":"Follow-up consultation (procedure)","userSelected":true}]}],"subject":{"reference":"Patient/7d2ac41c-0346-43d9-b069-6418679074d5"},"period":{"start":"2025-02-01T08:00:00.000+00:00","end":"2025-02-01T08:35:00.000+00:00"}},"request":{"method":"PUT","url":"Encounter/5fe9ba55-a460-4507-a319-8e83a8d36f6c"}},{"fullUrl":"https://madie.cms.gov/Observation/hiv-viral-load-f902","resource":{"resourceType":"Observation","id":"e0daf0c5-19e3-402d-a52c-cc2c6980ba83","meta":{"profile":["http://hl7.org/fhir/us/qicore/StructureDefinition/qicore-observation"]},"status":"final","category":[{"coding":[{"system":"http://terminology.hl7.org/CodeSystem/observation-category"}]}],"code":{"coding":[{"system":"http://loinc.org","version":"2.73","code":"10351-5","display":"HIV 1 RNA [Units/volume] (viral load) in Serum or Plasma by Probe with amplification","userSelected":true},{"system":"http://loinc.org","code":"21333-0","userSelected":true}]},"subject":{"reference":"Patient/7d2ac41c-0346-43d9-b069-6418679074d5"},"issued":"2026-02-01T08:00:00.000+00:00"},"request":{"method":"PUT","url":"Observation/e0daf0c5-19e3-402d-a52c-cc2c6980ba83"}},{"fullUrl":"https://madie.cms.gov/Observation/hiv-viral-load-f903","resource":{"resourceType":"Observation","id":"3e7eb70a-75e8-4882-a211-be7fa393fc9a","meta":{"profile":["http://hl7.org/fhir/us/qicore/StructureDefinition/qicore-observation"]},"status":"final","category":[{"coding":[{"system":"http://terminology.hl7.org/CodeSystem/observation-category"}]}],"code":{"coding":[{"system":"http://loinc.org","version":"2.73","code":"10351-5","display":"HIV 1 RNA [Units/volume] (viral load) in Serum or Plasma by Probe with amplification","userSelected":true}]},"subject":{"reference":"Patient/7d2ac41c-0346-43d9-b069-6418679074d5"},"issued":"2025-02-01T08:00:00.000+00:00"},"request":{"method":"PUT","url":"Observation/3e7eb70a-75e8-4882-a211-be7fa393fc9a"}},{"fullUrl":"https://madie.cms.gov/Coverage/1","resource":{"resourceType":"Coverage","id":"d14ea191-d923-4f1e-a30e-1fc30c150490","meta":{"profile":["http://hl7.org/fhir/us/qicore/StructureDefinition/qicore-coverage"]},"status":"active","beneficiary":{"reference":"Patient/7d2ac41c-0346-43d9-b069-6418679074d5"},"payor":[{"reference":"Organization/84b56847-ad40-4bf6-b612-9e42ad2a84e5"}]},"request":{"method":"PUT","url":"Coverage/d14ea191-d923-4f1e-a30e-1fc30c150490"}},{"fullUrl":"https://madie.cms.gov/Organization/123456","resource":{"resourceType":"Organization","id":"84b56847-ad40-4bf6-b612-9e42ad2a84e5","meta":{"profile":["http://hl7.org/fhir/us/qicore/StructureDefinition/qicore-organization"]},"identifier":[{"use":"temp","system":"urn:oid:2.16.840.1.113883.4.4","value":"21-3259825"}],"active":true,"type":[{"coding":[{"system":"http://terminology.hl7.org/CodeSystem/organization-type","code":"pay","display":"Payer"}]}],"name":"Blue Cross Blue Shield of Texas","telecom":[{"system":"phone","value":"(+1) 972-766-6900"}],"address":[{"use":"billing","type":"postal","line":["P.O. Box 660044"],"city":"Dallas","state":"TX","postalCode":"75266-0044","country":"USA"}]},"request":{"method":"PUT","url":"Organization/84b56847-ad40-4bf6-b612-9e42ad2a84e5"}},{"fullUrl":"https://madie.cms.gov/Practitioner/practitioner-123456","resource":{"resourceType":"Practitioner","id":"890d2828-1c00-44a7-9cfd-0dd08b5ee580","meta":{"profile":["http://hl7.org/fhir/us/qicore/StructureDefinition/qicore-practitioner"]},"identifier":[{"system":"http://hl7.org/fhir/sid/us-npi","value":"123456"}],"name":[{"family":"Evil","prefix":["Dr"]}]},"request":{"method":"PUT","url":"Practitioner/890d2828-1c00-44a7-9cfd-0dd08b5ee580"}},{"fullUrl":"https://madie.cms.gov/MeasureReport/ff7ff9f1-e1e4-448f-8282-fd390cd6fa5d","resource":{"resourceType":"MeasureReport","id":"ff7ff9f1-e1e4-448f-8282-fd390cd6fa5d","meta":{"profile":["http://hl7.org/fhir/us/cqfmeasures/StructureDefinition/test-case-cqfm"]},"contained":[{"resourceType":"Parameters","id":"eeb5494c-c9ae-4b45-859f-5c66f923b54f-parameters","parameter":[{"name":"subject","valueString":"7d2ac41c-0346-43d9-b069-6418679074d5"}]}],"extension":[{"url":"http://hl7.org/fhir/us/cqfmeasures/StructureDefinition/cqfm-inputParameters","valueReference":{"reference":"#eeb5494c-c9ae-4b45-859f-5c66f923b54f-parameters"}},{"url":"http://hl7.org/fhir/us/cqfmeasures/StructureDefinition/cqfm-testCaseDescription","valueMarkdown":"Patient has an encounter in the MP and the Viral Load Test is on outside edge, after the MP"}],"modifierExtension":[{"url":"http://hl7.org/fhir/us/cqfmeasures/StructureDefinition/cqfm-isTestCase","valueBoolean":true}],"status":"complete","type":"individual","measure":"https://madie.cms.gov/Measure/HIVRetentionFHIR","period":{"start":"2025-01-01","end":"2025-12-31"},"group":[{"population":[{"code":{"coding":[{"system":"http://terminology.hl7.org/CodeSystem/measure-population","code":"initial-population","display":"Initial Population"}]},"count":0},{"code":{"coding":[{"system":"http://terminology.hl7.org/CodeSystem/measure-population","code":"denominator","display":"Denominator"}]},"count":0},{"code":{"coding":[{"system":"http://terminology.hl7.org/CodeSystem/measure-population","code":"numerator","display":"Numerator"}]},"count":0}]}]},"request":{"method":"PUT","url":"MeasureReport/ff7ff9f1-e1e4-448f-8282-fd390cd6fa5d"}}]}