{"resourceType":"Bundle","id":"tests-4f318d2b-56a8-4fad-ad95-858a17d6d0e3-bundle","type":"transaction","entry":[{"fullUrl":"https://madie.cms.gov/Patient/4f318d2b-56a8-4fad-ad95-858a17d6d0e3","resource":{"resourceType":"Patient","id":"4f318d2b-56a8-4fad-ad95-858a17d6d0e3","meta":{"profile":["http://hl7.org/fhir/us/qicore/StructureDefinition/qicore-patient"]},"extension":[{"url":"http://hl7.org/fhir/us/core/StructureDefinition/us-core-race","extension":[{"url":"ombCategory","valueCoding":{"system":"urn:oid:2.16.840.1.113883.6.238","code":"1002-5","display":"American Indian or Alaska Native","userSelected":true}},{"url":"text","valueString":"American Indian or Alaska Native"}]},{"url":"http://hl7.org/fhir/us/core/StructureDefinition/us-core-ethnicity","extension":[{"url":"ombCategory","valueCoding":{"system":"urn:oid:2.16.840.1.113883.6.238","code":"2135-2","display":"Hispanic or Latino","userSelected":true}},{"url":"text","valueString":"Hispanic or Latino"}]}],"identifier":[{"type":{"coding":[{"system":"http://terminology.hl7.org/CodeSystem/v2-0203","code":"MR"}]},"system":"https://bonnie-fhir.healthit.gov/","value":"649471d3d09ece2c2e9bf95c"}],"name":[{"family":"24NumPass","given":["AdolescentWithMultipleEncAndVL"]}],"gender":"female","birthDate":"2020-02-02"},"request":{"method":"PUT","url":"Patient/4f318d2b-56a8-4fad-ad95-858a17d6d0e3"}},{"fullUrl":"https://madie.cms.gov/Condition/hiv-f95d","resource":{"resourceType":"Condition","id":"c74fcf00-ab3d-4bcc-aa38-95a900f195ce","meta":{"profile":["http://hl7.org/fhir/us/qicore/StructureDefinition/qicore-condition"]},"clinicalStatus":{"coding":[{"system":"http://terminology.hl7.org/CodeSystem/condition-clinical","code":"active","display":"active","userSelected":true}]},"category":[{"coding":[{"system":"http://terminology.hl7.org/CodeSystem/condition-category","code":"problem-list-item","display":"Problem List Item"}]}],"code":{"coding":[{"system":"http://hl7.org/fhir/sid/icd-9-cm","version":"2013","code":"042","display":"Human immunodeficiency virus [HIV] disease","userSelected":true},{"system":"http://snomed.info/sct","code":"165816005","userSelected":true}]},"subject":{"reference":"Patient/4f318d2b-56a8-4fad-ad95-858a17d6d0e3"},"onsetDateTime":"2020-06-22T08:00:00.000+00:00","recordedDate":"2020-06-22T08:00:00.000+00:00"},"request":{"method":"PUT","url":"Condition/c74fcf00-ab3d-4bcc-aa38-95a900f195ce"}},{"fullUrl":"https://madie.cms.gov/Encounter/preventive-care-services-initial-office-visit-0-to-17-f95e","resource":{"resourceType":"Encounter","id":"9113eb44-be5a-47b8-863e-4aa2c690fefb","meta":{"profile":["http://hl7.org/fhir/us/qicore/StructureDefinition/qicore-encounter"]},"status":"finished","class":{"system":"http://terminology.hl7.org/CodeSystem/v3-ActCode","code":"AMB","display":"ambulatory"},"type":[{"coding":[{"system":"http://www.ama-assn.org/go/cpt","version":"2023","code":"99381","display":"Initial comprehensive preventive medicine evaluation and management of an individual including an age and gender appropriate history, examination, counseling/anticipatory guidance/risk factor reduction interventions, and the ordering of laboratory/diagnostic procedures, new patient; infant (age younger than 1 year)","userSelected":true}]}],"subject":{"reference":"Patient/4f318d2b-56a8-4fad-ad95-858a17d6d0e3"},"period":{"start":"2025-06-22T08:00:00.000+00:00","end":"2025-06-22T08:15:00.000+00:00"}},"request":{"method":"PUT","url":"Encounter/9113eb44-be5a-47b8-863e-4aa2c690fefb"}},{"fullUrl":"https://madie.cms.gov/Encounter/preventive-care-established-office-visit-0-to-17-f95f","resource":{"resourceType":"Encounter","id":"411dda60-7a67-42f7-b250-f3795a12a7d2","meta":{"profile":["http://hl7.org/fhir/us/qicore/StructureDefinition/qicore-encounter"]},"status":"finished","class":{"system":"http://terminology.hl7.org/CodeSystem/v3-ActCode","code":"AMB","display":"ambulatory"},"type":[{"coding":[{"system":"http://www.ama-assn.org/go/cpt","version":"2023","code":"99391","display":"Periodic comprehensive preventive medicine reevaluation and management of an individual including an age and gender appropriate history, examination, counseling/anticipatory guidance/risk factor reduction interventions, and the ordering of laboratory/diagnostic procedures, established patient; infant (age younger than 1 year)","userSelected":true}]}],"subject":{"reference":"Patient/4f318d2b-56a8-4fad-ad95-858a17d6d0e3"},"period":{"start":"2025-07-22T08:00:00.000+00:00","end":"2025-07-22T08:15:00.000+00:00"}},"request":{"method":"PUT","url":"Encounter/411dda60-7a67-42f7-b250-f3795a12a7d2"}},{"fullUrl":"https://madie.cms.gov/Encounter/emergency-department-visit-f961","resource":{"resourceType":"Encounter","id":"ef35618f-effd-4313-bf98-69e12687d214","meta":{"profile":["http://hl7.org/fhir/us/qicore/StructureDefinition/qicore-encounter"]},"status":"finished","class":{"system":"http://terminology.hl7.org/CodeSystem/v3-ActCode","code":"EMER","display":"emergency"},"type":[{"coding":[{"system":"http://snomed.info/sct","version":"2022-09","code":"4525004","display":"Emergency department patient visit (procedure)","userSelected":true}]}],"subject":{"reference":"Patient/4f318d2b-56a8-4fad-ad95-858a17d6d0e3"},"period":{"start":"2025-12-22T08:00:00.000+00:00","end":"2025-12-22T08:15:00.000+00:00"}},"request":{"method":"PUT","url":"Encounter/ef35618f-effd-4313-bf98-69e12687d214"}},{"fullUrl":"https://madie.cms.gov/Encounter/outpatient-surgery-service-f962","resource":{"resourceType":"Encounter","id":"4f03c24e-4a0a-4ff7-8d97-a2f0a243e89f","meta":{"profile":["http://hl7.org/fhir/us/qicore/StructureDefinition/qicore-encounter"]},"status":"finished","class":{"system":"http://terminology.hl7.org/CodeSystem/v3-ActCode","code":"AMB","display":"ambulatory"},"type":[{"coding":[{"system":"http://snomed.info/sct","version":"2022-09","code":"110468005","display":"Ambulatory surgery (procedure)","userSelected":true}]}],"subject":{"reference":"Patient/4f318d2b-56a8-4fad-ad95-858a17d6d0e3"},"period":{"start":"2025-11-22T08:00:00.000+00:00","end":"2025-11-22T08:15:00.000+00:00"}},"request":{"method":"PUT","url":"Encounter/4f03c24e-4a0a-4ff7-8d97-a2f0a243e89f"}},{"fullUrl":"https://madie.cms.gov/Observation/hiv-viral-load-f936","resource":{"resourceType":"Observation","id":"32a901a8-5233-482c-a212-05bd2784f762","meta":{"profile":["http://hl7.org/fhir/us/qicore/StructureDefinition/qicore-observation"]},"status":"final","category":[{"coding":[{"system":"http://terminology.hl7.org/CodeSystem/observation-category"}]}],"code":{"coding":[{"system":"http://loinc.org","code":"20447-9","userSelected":true}]},"subject":{"reference":"Patient/4f318d2b-56a8-4fad-ad95-858a17d6d0e3"},"effectiveDateTime":"2025-01-01T08:00:00.000+00:00"},"request":{"method":"PUT","url":"Observation/32a901a8-5233-482c-a212-05bd2784f762"}},{"fullUrl":"https://madie.cms.gov/Coverage/1","resource":{"resourceType":"Coverage","id":"23905b46-c289-486e-afdc-8789529174cf","meta":{"profile":["http://hl7.org/fhir/us/qicore/StructureDefinition/qicore-coverage"]},"status":"active","beneficiary":{"reference":"Patient/4f318d2b-56a8-4fad-ad95-858a17d6d0e3"},"payor":[{"reference":"Organization/ec8cac12-7dd8-4c6e-8c44-d6c645085c80"}]},"request":{"method":"PUT","url":"Coverage/23905b46-c289-486e-afdc-8789529174cf"}},{"fullUrl":"https://madie.cms.gov/Organization/123456","resource":{"resourceType":"Organization","id":"ec8cac12-7dd8-4c6e-8c44-d6c645085c80","meta":{"profile":["http://hl7.org/fhir/us/qicore/StructureDefinition/qicore-organization"]},"identifier":[{"use":"temp","system":"urn:oid:2.16.840.1.113883.4.4","value":"21-3259825"}],"active":true,"type":[{"coding":[{"system":"http://terminology.hl7.org/CodeSystem/organization-type","code":"pay","display":"Payer"}]}],"name":"Blue Cross Blue Shield of Texas","telecom":[{"system":"phone","value":"(+1) 972-766-6900"}],"address":[{"use":"billing","type":"postal","line":["P.O. Box 660044"],"city":"Dallas","state":"TX","postalCode":"75266-0044","country":"USA"}]},"request":{"method":"PUT","url":"Organization/ec8cac12-7dd8-4c6e-8c44-d6c645085c80"}},{"fullUrl":"https://madie.cms.gov/Practitioner/practitioner-123456","resource":{"resourceType":"Practitioner","id":"d0d07972-4208-4576-a64c-ad76d51d24c5","meta":{"profile":["http://hl7.org/fhir/us/qicore/StructureDefinition/qicore-practitioner"]},"identifier":[{"system":"http://hl7.org/fhir/sid/us-npi","value":"123456"}],"name":[{"family":"Evil","prefix":["Dr"]}]},"request":{"method":"PUT","url":"Practitioner/d0d07972-4208-4576-a64c-ad76d51d24c5"}},{"fullUrl":"https://madie.cms.gov/MeasureReport/9d719ce5-e8bf-44f6-9e01-456a8f1e4de2","resource":{"resourceType":"MeasureReport","id":"9d719ce5-e8bf-44f6-9e01-456a8f1e4de2","meta":{"profile":["http://hl7.org/fhir/us/cqfmeasures/StructureDefinition/test-case-cqfm"]},"contained":[{"resourceType":"Parameters","id":"bf9c0618-2962-4888-bd5f-c16a296c9e14-parameters","parameter":[{"name":"subject","valueString":"4f318d2b-56a8-4fad-ad95-858a17d6d0e3"}]}],"extension":[{"url":"http://hl7.org/fhir/us/cqfmeasures/StructureDefinition/cqfm-inputParameters","valueReference":{"reference":"#bf9c0618-2962-4888-bd5f-c16a296c9e14-parameters"}},{"url":"http://hl7.org/fhir/us/cqfmeasures/StructureDefinition/cqfm-testCaseDescription","valueMarkdown":"Adolescent patient with multiple encounter types conducted during MP."}],"modifierExtension":[{"url":"http://hl7.org/fhir/us/cqfmeasures/StructureDefinition/cqfm-isTestCase","valueBoolean":true}],"status":"complete","type":"individual","measure":"https://madie.cms.gov/Measure/HIVRetentionFHIR","period":{"start":"2025-01-01","end":"2025-12-31"},"group":[{"population":[{"code":{"coding":[{"system":"http://terminology.hl7.org/CodeSystem/measure-population","code":"initial-population","display":"Initial Population"}]},"count":1},{"code":{"coding":[{"system":"http://terminology.hl7.org/CodeSystem/measure-population","code":"denominator","display":"Denominator"}]},"count":1},{"code":{"coding":[{"system":"http://terminology.hl7.org/CodeSystem/measure-population","code":"numerator","display":"Numerator"}]},"count":1}]}]},"request":{"method":"PUT","url":"MeasureReport/9d719ce5-e8bf-44f6-9e01-456a8f1e4de2"}}]}