{"resourceType":"Bundle","id":"tests-89de85c7-996d-40f2-bbdb-2495c659b959-bundle","type":"transaction","entry":[{"fullUrl":"https://madie.cms.gov/Patient/89de85c7-996d-40f2-bbdb-2495c659b959","resource":{"resourceType":"Patient","id":"89de85c7-996d-40f2-bbdb-2495c659b959","meta":{"profile":["http://hl7.org/fhir/us/qicore/StructureDefinition/qicore-patient"]},"extension":[{"url":"http://hl7.org/fhir/us/core/StructureDefinition/us-core-race","extension":[{"url":"ombCategory","valueCoding":{"system":"urn:oid:2.16.840.1.113883.6.238","code":"1002-5","display":"American Indian or Alaska Native","userSelected":true}},{"url":"text","valueString":"American Indian or Alaska Native"}]},{"url":"http://hl7.org/fhir/us/core/StructureDefinition/us-core-ethnicity","extension":[{"url":"ombCategory","valueCoding":{"system":"urn:oid:2.16.840.1.113883.6.238","code":"2135-2","display":"Hispanic or Latino","userSelected":true}},{"url":"text","valueString":"Hispanic or Latino"}]}],"identifier":[{"type":{"coding":[{"system":"http://terminology.hl7.org/CodeSystem/v2-0203","code":"MR"}]},"system":"https://bonnie-fhir.healthit.gov/","value":"64945f79d09ece2c2e9bf904"}],"name":[{"family":"6NumFail","given":["TwoEncLessThan90DaysApart"]}],"gender":"female","birthDate":"1946-01-05"},"request":{"method":"PUT","url":"Patient/89de85c7-996d-40f2-bbdb-2495c659b959"}},{"fullUrl":"https://madie.cms.gov/Condition/hiv-f905","resource":{"resourceType":"Condition","id":"01bafcec-40e2-4a7e-ac25-b6e9ee477c4a","meta":{"profile":["http://hl7.org/fhir/us/qicore/StructureDefinition/qicore-condition"]},"clinicalStatus":{"coding":[{"system":"http://terminology.hl7.org/CodeSystem/condition-clinical","code":"active","display":"active","userSelected":true}]},"category":[{"coding":[{"system":"http://terminology.hl7.org/CodeSystem/condition-category","code":"problem-list-item","display":"Problem List Item"}]}],"code":{"coding":[{"system":"http://hl7.org/fhir/sid/icd-9-cm","version":"2013","code":"042","display":"Human immunodeficiency virus [HIV] disease","userSelected":true},{"system":"http://snomed.info/sct","code":"165816005","userSelected":true}]},"subject":{"reference":"Patient/89de85c7-996d-40f2-bbdb-2495c659b959"},"onsetDateTime":"2022-01-08T08:00:00.000+00:00","recordedDate":"2022-01-08T08:00:00.000+00:00"},"request":{"method":"PUT","url":"Condition/01bafcec-40e2-4a7e-ac25-b6e9ee477c4a"}},{"fullUrl":"https://madie.cms.gov/Encounter/preventive-care-services-initial-office-visit-18-and-up-f906","resource":{"resourceType":"Encounter","id":"a9b12139-b3ae-4696-8c61-7c989d4f1dc9","meta":{"profile":["http://hl7.org/fhir/us/qicore/StructureDefinition/qicore-encounter"]},"status":"finished","class":{"system":"http://terminology.hl7.org/CodeSystem/v3-ActCode","code":"AMB","display":"ambulatory"},"type":[{"coding":[{"system":"http://www.ama-assn.org/go/cpt","version":"2023","code":"99395","display":"Periodic comprehensive preventive medicine reevaluation and management of an individual including an age and gender appropriate history, examination, counseling/anticipatory guidance/risk factor reduction interventions, and the ordering of laboratory/diagnostic procedures, established patient; 18-39 years","userSelected":true}]}],"subject":{"reference":"Patient/89de85c7-996d-40f2-bbdb-2495c659b959"},"period":{"start":"2025-02-01T08:00:00.000+00:00","end":"2025-02-01T08:15:00.000+00:00"}},"request":{"method":"PUT","url":"Encounter/a9b12139-b3ae-4696-8c61-7c989d4f1dc9"}},{"fullUrl":"https://madie.cms.gov/Encounter/home-visits-f907","resource":{"resourceType":"Encounter","id":"6469cfd0-53d1-4475-8c8c-c3007c49e19b","meta":{"profile":["http://hl7.org/fhir/us/qicore/StructureDefinition/qicore-encounter"]},"status":"finished","class":{"system":"http://terminology.hl7.org/CodeSystem/v3-ActCode","code":"AMB","display":"ambulatory"},"type":[{"coding":[{"system":"http://snomed.info/sct","version":"2022-09","code":"439708006","display":"Home visit (procedure)","userSelected":true}]}],"subject":{"reference":"Patient/89de85c7-996d-40f2-bbdb-2495c659b959"},"period":{"start":"2025-04-01T08:00:00.000+00:00","end":"2025-04-01T08:35:00.000+00:00"}},"request":{"method":"PUT","url":"Encounter/6469cfd0-53d1-4475-8c8c-c3007c49e19b"}},{"fullUrl":"https://madie.cms.gov/Coverage/1","resource":{"resourceType":"Coverage","id":"0b0e9fc7-483c-496b-acf9-1bdd98dd55de","meta":{"profile":["http://hl7.org/fhir/us/qicore/StructureDefinition/qicore-coverage"]},"status":"active","beneficiary":{"reference":"Patient/89de85c7-996d-40f2-bbdb-2495c659b959"},"payor":[{"reference":"Organization/024e2731-b045-43bf-80d2-684774c5b51c"}]},"request":{"method":"PUT","url":"Coverage/0b0e9fc7-483c-496b-acf9-1bdd98dd55de"}},{"fullUrl":"https://madie.cms.gov/Organization/123456","resource":{"resourceType":"Organization","id":"024e2731-b045-43bf-80d2-684774c5b51c","meta":{"profile":["http://hl7.org/fhir/us/qicore/StructureDefinition/qicore-organization"]},"identifier":[{"use":"temp","system":"urn:oid:2.16.840.1.113883.4.4","value":"21-3259825"}],"active":true,"type":[{"coding":[{"system":"http://terminology.hl7.org/CodeSystem/organization-type","code":"pay","display":"Payer"}]}],"name":"Blue Cross Blue Shield of Texas","telecom":[{"system":"phone","value":"(+1) 972-766-6900"}],"address":[{"use":"billing","type":"postal","line":["P.O. Box 660044"],"city":"Dallas","state":"TX","postalCode":"75266-0044","country":"USA"}]},"request":{"method":"PUT","url":"Organization/024e2731-b045-43bf-80d2-684774c5b51c"}},{"fullUrl":"https://madie.cms.gov/Practitioner/practitioner-123456","resource":{"resourceType":"Practitioner","id":"c01e4d66-6219-46d6-b8fa-75b347ef9a7a","meta":{"profile":["http://hl7.org/fhir/us/qicore/StructureDefinition/qicore-practitioner"]},"identifier":[{"system":"http://hl7.org/fhir/sid/us-npi","value":"123456"}],"name":[{"family":"Evil","prefix":["Dr"]}]},"request":{"method":"PUT","url":"Practitioner/c01e4d66-6219-46d6-b8fa-75b347ef9a7a"}},{"fullUrl":"https://madie.cms.gov/MeasureReport/584e2a7e-04f1-433c-bc57-2a4b952e5258","resource":{"resourceType":"MeasureReport","id":"584e2a7e-04f1-433c-bc57-2a4b952e5258","meta":{"profile":["http://hl7.org/fhir/us/cqfmeasures/StructureDefinition/test-case-cqfm"]},"contained":[{"resourceType":"Parameters","id":"c83f984c-23f2-4746-b966-e2b030322f19-parameters","parameter":[{"name":"subject","valueString":"89de85c7-996d-40f2-bbdb-2495c659b959"}]}],"extension":[{"url":"http://hl7.org/fhir/us/cqfmeasures/StructureDefinition/cqfm-inputParameters","valueReference":{"reference":"#c83f984c-23f2-4746-b966-e2b030322f19-parameters"}},{"url":"http://hl7.org/fhir/us/cqfmeasures/StructureDefinition/cqfm-testCaseDescription","valueMarkdown":"The patient has two encounters in less than 60 days. Expect numerator to fail."}],"modifierExtension":[{"url":"http://hl7.org/fhir/us/cqfmeasures/StructureDefinition/cqfm-isTestCase","valueBoolean":true}],"status":"complete","type":"individual","measure":"https://madie.cms.gov/Measure/HIVRetentionFHIR","period":{"start":"2025-01-01","end":"2025-12-31"},"group":[{"population":[{"code":{"coding":[{"system":"http://terminology.hl7.org/CodeSystem/measure-population","code":"initial-population","display":"Initial Population"}]},"count":1},{"code":{"coding":[{"system":"http://terminology.hl7.org/CodeSystem/measure-population","code":"denominator","display":"Denominator"}]},"count":1},{"code":{"coding":[{"system":"http://terminology.hl7.org/CodeSystem/measure-population","code":"numerator","display":"Numerator"}]},"count":0}]}]},"request":{"method":"PUT","url":"MeasureReport/584e2a7e-04f1-433c-bc57-2a4b952e5258"}}]}