{"resourceType":"Bundle","id":"tests-60fa3554-b650-43fe-b23e-604acc5e4bbf-bundle","type":"transaction","entry":[{"fullUrl":"https://madie.cms.gov/Patient/60fa3554-b650-43fe-b23e-604acc5e4bbf","resource":{"resourceType":"Patient","id":"60fa3554-b650-43fe-b23e-604acc5e4bbf","meta":{"profile":["http://hl7.org/fhir/us/qicore/StructureDefinition/qicore-patient"]},"extension":[{"url":"http://hl7.org/fhir/us/core/StructureDefinition/us-core-race","extension":[{"url":"ombCategory","valueCoding":{"system":"urn:oid:2.16.840.1.113883.6.238","code":"2106-3","display":"White","userSelected":true}},{"url":"text","valueString":"White"}]},{"url":"http://hl7.org/fhir/us/core/StructureDefinition/us-core-ethnicity","extension":[{"url":"ombCategory","valueCoding":{"system":"urn:oid:2.16.840.1.113883.6.238","code":"2186-5","display":"Not Hispanic or Latino","userSelected":true}},{"url":"text","valueString":"Not Hispanic or Latino"}]}],"identifier":[{"type":{"coding":[{"system":"http://terminology.hl7.org/CodeSystem/v2-0203","code":"MR"}]},"system":"https://bonnie-fhir.healthit.gov/","value":"64946533d09ece2c2e9bf915"}],"name":[{"family":"10NumFail","given":["VLduringMPwithEncAfterUnder90days"]}],"gender":"female","birthDate":"1990-05-09"},"request":{"method":"PUT","url":"Patient/60fa3554-b650-43fe-b23e-604acc5e4bbf"}},{"fullUrl":"https://madie.cms.gov/Condition/hiv-f916","resource":{"resourceType":"Condition","id":"f9949e56-4bc0-4449-ba39-e5abdcf9464d","meta":{"profile":["http://hl7.org/fhir/us/qicore/StructureDefinition/qicore-condition"]},"clinicalStatus":{"coding":[{"system":"http://terminology.hl7.org/CodeSystem/condition-clinical","code":"active","display":"active","userSelected":true}]},"category":[{"coding":[{"system":"http://terminology.hl7.org/CodeSystem/condition-category","code":"problem-list-item","display":"Problem List Item"}]}],"code":{"coding":[{"system":"http://hl7.org/fhir/sid/icd-9-cm","version":"2013","code":"042","display":"Human immunodeficiency virus [HIV] disease","userSelected":true},{"system":"http://snomed.info/sct","code":"165816005","userSelected":true}]},"subject":{"reference":"Patient/60fa3554-b650-43fe-b23e-604acc5e4bbf"},"onsetDateTime":"2021-09-08T08:00:00.000+00:00","recordedDate":"2021-09-08T08:00:00.000+00:00"},"request":{"method":"PUT","url":"Condition/f9949e56-4bc0-4449-ba39-e5abdcf9464d"}},{"fullUrl":"https://madie.cms.gov/Encounter/outpatient-consultation-f917","resource":{"resourceType":"Encounter","id":"e3e1752b-105b-48ba-892b-4b749a7e5865","meta":{"profile":["http://hl7.org/fhir/us/qicore/StructureDefinition/qicore-encounter"]},"status":"finished","class":{"system":"http://terminology.hl7.org/CodeSystem/v3-ActCode","code":"AMB","display":"ambulatory"},"type":[{"coding":[{"system":"http://snomed.info/sct","version":"2022-09","code":"281036007","display":"Follow-up consultation (procedure)","userSelected":true}]}],"subject":{"reference":"Patient/60fa3554-b650-43fe-b23e-604acc5e4bbf"},"period":{"start":"2025-05-01T08:00:00.000+00:00","end":"2025-05-01T08:15:00.000+00:00"}},"request":{"method":"PUT","url":"Encounter/e3e1752b-105b-48ba-892b-4b749a7e5865"}},{"fullUrl":"https://madie.cms.gov/Observation/hiv-viral-load-f918","resource":{"resourceType":"Observation","id":"7a1e8beb-f6ed-40df-9fcd-03bdd0023e64","meta":{"profile":["http://hl7.org/fhir/us/qicore/StructureDefinition/qicore-observation"]},"status":"final","category":[{"coding":[{"system":"http://terminology.hl7.org/CodeSystem/observation-category"}]}],"code":{"coding":[{"system":"http://loinc.org","version":"2.73","code":"10351-5","display":"HIV 1 RNA [Units/volume] (viral load) in Serum or Plasma by Probe with amplification","userSelected":true}]},"subject":{"reference":"Patient/60fa3554-b650-43fe-b23e-604acc5e4bbf"},"issued":"2025-07-29T08:00:00.000+00:00"},"request":{"method":"PUT","url":"Observation/7a1e8beb-f6ed-40df-9fcd-03bdd0023e64"}},{"fullUrl":"https://madie.cms.gov/Coverage/1","resource":{"resourceType":"Coverage","id":"369f234c-d592-4457-acf5-cd31e05b3bc2","meta":{"profile":["http://hl7.org/fhir/us/qicore/StructureDefinition/qicore-coverage"]},"status":"active","beneficiary":{"reference":"Patient/60fa3554-b650-43fe-b23e-604acc5e4bbf"},"payor":[{"reference":"Organization/e75793c9-fdf6-463a-8c1d-4ee44320dc25"}]},"request":{"method":"PUT","url":"Coverage/369f234c-d592-4457-acf5-cd31e05b3bc2"}},{"fullUrl":"https://madie.cms.gov/Organization/123456","resource":{"resourceType":"Organization","id":"e75793c9-fdf6-463a-8c1d-4ee44320dc25","meta":{"profile":["http://hl7.org/fhir/us/qicore/StructureDefinition/qicore-organization"]},"identifier":[{"use":"temp","system":"urn:oid:2.16.840.1.113883.4.4","value":"21-3259825"}],"active":true,"type":[{"coding":[{"system":"http://terminology.hl7.org/CodeSystem/organization-type","code":"pay","display":"Payer"}]}],"name":"Blue Cross Blue Shield of Texas","telecom":[{"system":"phone","value":"(+1) 972-766-6900"}],"address":[{"use":"billing","type":"postal","line":["P.O. Box 660044"],"city":"Dallas","state":"TX","postalCode":"75266-0044","country":"USA"}]},"request":{"method":"PUT","url":"Organization/e75793c9-fdf6-463a-8c1d-4ee44320dc25"}},{"fullUrl":"https://madie.cms.gov/Practitioner/practitioner-123456","resource":{"resourceType":"Practitioner","id":"10b10dda-83d8-4c99-bc9e-fe80d24fc359","meta":{"profile":["http://hl7.org/fhir/us/qicore/StructureDefinition/qicore-practitioner"]},"identifier":[{"system":"http://hl7.org/fhir/sid/us-npi","value":"123456"}],"name":[{"family":"Evil","prefix":["Dr"]}]},"request":{"method":"PUT","url":"Practitioner/10b10dda-83d8-4c99-bc9e-fe80d24fc359"}},{"fullUrl":"https://madie.cms.gov/MeasureReport/5be63606-ea5b-4a0a-bdc3-a8c1265ebd9e","resource":{"resourceType":"MeasureReport","id":"5be63606-ea5b-4a0a-bdc3-a8c1265ebd9e","meta":{"profile":["http://hl7.org/fhir/us/cqfmeasures/StructureDefinition/test-case-cqfm"]},"contained":[{"resourceType":"Parameters","id":"a2d67cd0-ecff-4ab0-8b86-a0b73e983df5-parameters","parameter":[{"name":"subject","valueString":"60fa3554-b650-43fe-b23e-604acc5e4bbf"}]}],"extension":[{"url":"http://hl7.org/fhir/us/cqfmeasures/StructureDefinition/cqfm-inputParameters","valueReference":{"reference":"#a2d67cd0-ecff-4ab0-8b86-a0b73e983df5-parameters"}},{"url":"http://hl7.org/fhir/us/cqfmeasures/StructureDefinition/cqfm-testCaseDescription","valueMarkdown":"Patient has a viral load test before enc (under 90 days apart)"}],"modifierExtension":[{"url":"http://hl7.org/fhir/us/cqfmeasures/StructureDefinition/cqfm-isTestCase","valueBoolean":true}],"status":"complete","type":"individual","measure":"https://madie.cms.gov/Measure/HIVRetentionFHIR","period":{"start":"2025-01-01","end":"2025-12-31"},"group":[{"population":[{"code":{"coding":[{"system":"http://terminology.hl7.org/CodeSystem/measure-population","code":"initial-population","display":"Initial Population"}]},"count":1},{"code":{"coding":[{"system":"http://terminology.hl7.org/CodeSystem/measure-population","code":"denominator","display":"Denominator"}]},"count":1},{"code":{"coding":[{"system":"http://terminology.hl7.org/CodeSystem/measure-population","code":"numerator","display":"Numerator"}]},"count":0}]}]},"request":{"method":"PUT","url":"MeasureReport/5be63606-ea5b-4a0a-bdc3-a8c1265ebd9e"}}]}