{"resourceType":"Bundle","id":"tests-61c642a2-4490-482e-a21a-e0ab8715dae4-bundle","type":"transaction","entry":[{"fullUrl":"https://madie.cms.gov/Patient/61c642a2-4490-482e-a21a-e0ab8715dae4","resource":{"resourceType":"Patient","id":"61c642a2-4490-482e-a21a-e0ab8715dae4","meta":{"profile":["http://hl7.org/fhir/us/qicore/StructureDefinition/qicore-patient"]},"extension":[{"url":"http://hl7.org/fhir/us/core/StructureDefinition/us-core-race","extension":[{"url":"ombCategory","valueCoding":{"system":"urn:oid:2.16.840.1.113883.6.238","code":"2106-3","display":"White","userSelected":true}},{"url":"text","valueString":"White"}]},{"url":"http://hl7.org/fhir/us/core/StructureDefinition/us-core-ethnicity","extension":[{"url":"ombCategory","valueCoding":{"system":"urn:oid:2.16.840.1.113883.6.238","code":"2186-5","display":"Not Hispanic or Latino","userSelected":true}},{"url":"text","valueString":"Not Hispanic or Latino"}]}],"identifier":[{"type":{"coding":[{"system":"http://terminology.hl7.org/CodeSystem/v2-0203","code":"MR"}]},"system":"https://bonnie-fhir.healthit.gov/","value":"64946f2fd09ece2c2e9bf950"}],"name":[{"family":"20IPFail","given":["HIVDiagAfterFirst240DaysOfMP"]}],"gender":"male","birthDate":"2005-10-21"},"request":{"method":"PUT","url":"Patient/61c642a2-4490-482e-a21a-e0ab8715dae4"}},{"fullUrl":"https://madie.cms.gov/Condition/hiv-f951","resource":{"resourceType":"Condition","id":"ecf6b9c4-1bf2-4c8b-bb1f-da1d09b41a2f","meta":{"profile":["http://hl7.org/fhir/us/qicore/StructureDefinition/qicore-condition"]},"clinicalStatus":{"coding":[{"system":"http://terminology.hl7.org/CodeSystem/condition-clinical","code":"active","display":"active","userSelected":true}]},"category":[{"coding":[{"system":"http://terminology.hl7.org/CodeSystem/condition-category","code":"problem-list-item","display":"Problem List Item"}]}],"code":{"coding":[{"system":"http://hl7.org/fhir/sid/icd-9-cm","version":"2013","code":"042","display":"Human immunodeficiency virus [HIV] disease","userSelected":true},{"system":"http://snomed.info/sct","code":"165816005","userSelected":true}]},"subject":{"reference":"Patient/61c642a2-4490-482e-a21a-e0ab8715dae4"},"onsetDateTime":"2025-11-22T08:00:00.000+00:00","recordedDate":"2025-11-22T08:00:00.000+00:00"},"request":{"method":"PUT","url":"Condition/ecf6b9c4-1bf2-4c8b-bb1f-da1d09b41a2f"}},{"fullUrl":"https://madie.cms.gov/Coverage/1","resource":{"resourceType":"Coverage","id":"2a4473d4-73ed-42e5-a5ab-27d64a21a10d","meta":{"profile":["http://hl7.org/fhir/us/qicore/StructureDefinition/qicore-coverage"]},"status":"active","beneficiary":{"reference":"Patient/61c642a2-4490-482e-a21a-e0ab8715dae4"},"payor":[{"reference":"Organization/80573fa1-cf83-4e9a-8f21-86a018689678"}]},"request":{"method":"PUT","url":"Coverage/2a4473d4-73ed-42e5-a5ab-27d64a21a10d"}},{"fullUrl":"https://madie.cms.gov/Organization/123456","resource":{"resourceType":"Organization","id":"80573fa1-cf83-4e9a-8f21-86a018689678","meta":{"profile":["http://hl7.org/fhir/us/qicore/StructureDefinition/qicore-organization"]},"identifier":[{"use":"temp","system":"urn:oid:2.16.840.1.113883.4.4","value":"21-3259825"}],"active":true,"type":[{"coding":[{"system":"http://terminology.hl7.org/CodeSystem/organization-type","code":"pay","display":"Payer"}]}],"name":"Blue Cross Blue Shield of Texas","telecom":[{"system":"phone","value":"(+1) 972-766-6900"}],"address":[{"use":"billing","type":"postal","line":["P.O. Box 660044"],"city":"Dallas","state":"TX","postalCode":"75266-0044","country":"USA"}]},"request":{"method":"PUT","url":"Organization/80573fa1-cf83-4e9a-8f21-86a018689678"}},{"fullUrl":"https://madie.cms.gov/Practitioner/practitioner-123456","resource":{"resourceType":"Practitioner","id":"cc0aee9c-2541-469b-a15e-f77fb0cd4ee6","meta":{"profile":["http://hl7.org/fhir/us/qicore/StructureDefinition/qicore-practitioner"]},"identifier":[{"system":"http://hl7.org/fhir/sid/us-npi","value":"123456"}],"name":[{"family":"Evil","prefix":["Dr"]}]},"request":{"method":"PUT","url":"Practitioner/cc0aee9c-2541-469b-a15e-f77fb0cd4ee6"}},{"fullUrl":"https://madie.cms.gov/MeasureReport/95acb0a5-c39d-417f-8316-b8df5f48d8c9","resource":{"resourceType":"MeasureReport","id":"95acb0a5-c39d-417f-8316-b8df5f48d8c9","meta":{"profile":["http://hl7.org/fhir/us/cqfmeasures/StructureDefinition/test-case-cqfm"]},"contained":[{"resourceType":"Parameters","id":"1300d37e-8fc7-4c8a-ba6a-cd2b5264aed3-parameters","parameter":[{"name":"subject","valueString":"61c642a2-4490-482e-a21a-e0ab8715dae4"}]}],"extension":[{"url":"http://hl7.org/fhir/us/cqfmeasures/StructureDefinition/cqfm-inputParameters","valueReference":{"reference":"#1300d37e-8fc7-4c8a-ba6a-cd2b5264aed3-parameters"}},{"url":"http://hl7.org/fhir/us/cqfmeasures/StructureDefinition/cqfm-testCaseDescription","valueMarkdown":"Patient is diagnosed with HIV more than 240 days after the start of MP."}],"modifierExtension":[{"url":"http://hl7.org/fhir/us/cqfmeasures/StructureDefinition/cqfm-isTestCase","valueBoolean":true}],"status":"complete","type":"individual","measure":"https://madie.cms.gov/Measure/HIVRetentionFHIR","period":{"start":"2025-01-01","end":"2025-12-31"},"group":[{"population":[{"code":{"coding":[{"system":"http://terminology.hl7.org/CodeSystem/measure-population","code":"initial-population","display":"Initial Population"}]},"count":0},{"code":{"coding":[{"system":"http://terminology.hl7.org/CodeSystem/measure-population","code":"denominator","display":"Denominator"}]},"count":0},{"code":{"coding":[{"system":"http://terminology.hl7.org/CodeSystem/measure-population","code":"numerator","display":"Numerator"}]},"count":0}]}]},"request":{"method":"PUT","url":"MeasureReport/95acb0a5-c39d-417f-8316-b8df5f48d8c9"}}]}