{"resourceType":"Bundle","id":"tests-ba27b68f-b183-4b1e-8ba4-7b3b895f9607-bundle","type":"transaction","entry":[{"fullUrl":"https://madie.cms.gov/Patient/ba27b68f-b183-4b1e-8ba4-7b3b895f9607","resource":{"resourceType":"Patient","id":"ba27b68f-b183-4b1e-8ba4-7b3b895f9607","meta":{"profile":["http://hl7.org/fhir/us/qicore/StructureDefinition/qicore-patient"]},"extension":[{"url":"http://hl7.org/fhir/us/core/StructureDefinition/us-core-race","extension":[{"url":"ombCategory","valueCoding":{"system":"urn:oid:2.16.840.1.113883.6.238","code":"2054-5","display":"Black or African American","userSelected":true}},{"url":"text","valueString":"Black or African American"}]},{"url":"http://hl7.org/fhir/us/core/StructureDefinition/us-core-ethnicity","extension":[{"url":"ombCategory","valueCoding":{"system":"urn:oid:2.16.840.1.113883.6.238","code":"2135-2","display":"Hispanic or Latino","userSelected":true}},{"url":"text","valueString":"Hispanic or Latino"}]}],"identifier":[{"type":{"coding":[{"system":"http://terminology.hl7.org/CodeSystem/v2-0203","code":"MR"}]},"system":"https://bonnie-fhir.healthit.gov/","value":"6491c6728187991eac996937"}],"name":[{"family":"4NumFail","given":["EncInMPVLafterEncDuringMP"]}],"gender":"male","birthDate":"1989-09-29"},"request":{"method":"PUT","url":"Patient/ba27b68f-b183-4b1e-8ba4-7b3b895f9607"}},{"fullUrl":"https://madie.cms.gov/Condition/hiv-6938","resource":{"resourceType":"Condition","id":"a753a5e1-7719-45b1-b844-cef0785b7640","meta":{"profile":["http://hl7.org/fhir/us/qicore/StructureDefinition/qicore-condition"]},"clinicalStatus":{"coding":[{"system":"http://terminology.hl7.org/CodeSystem/condition-clinical","code":"active","display":"active","userSelected":true}]},"category":[{"coding":[{"system":"http://terminology.hl7.org/CodeSystem/condition-category","code":"problem-list-item","display":"Problem List Item"}]}],"code":{"coding":[{"system":"http://hl7.org/fhir/sid/icd-9-cm","version":"2013","code":"042","display":"Human immunodeficiency virus [HIV] disease","userSelected":true},{"system":"http://snomed.info/sct","code":"165816005","userSelected":true}]},"subject":{"reference":"Patient/ba27b68f-b183-4b1e-8ba4-7b3b895f9607"},"onsetDateTime":"1999-05-20T01:00:00.000+00:00","recordedDate":"1999-05-20T08:00:00.000+00:00"},"request":{"method":"PUT","url":"Condition/a753a5e1-7719-45b1-b844-cef0785b7640"}},{"fullUrl":"https://madie.cms.gov/Encounter/outpatient-consultation-6939","resource":{"resourceType":"Encounter","id":"8089ee40-23e9-4255-bf55-d15c82698f6d","meta":{"profile":["http://hl7.org/fhir/us/qicore/StructureDefinition/qicore-encounter"]},"status":"finished","class":{"system":"http://terminology.hl7.org/CodeSystem/v3-ActCode","code":"AMB","display":"ambulatory"},"type":[{"coding":[{"system":"http://snomed.info/sct","version":"2022-09","code":"281036007","display":"Follow-up consultation (procedure)","userSelected":true}]}],"subject":{"reference":"Patient/ba27b68f-b183-4b1e-8ba4-7b3b895f9607"},"period":{"start":"2025-05-19T08:00:00.000+00:00","end":"2025-05-19T08:55:00.000+00:00"}},"request":{"method":"PUT","url":"Encounter/8089ee40-23e9-4255-bf55-d15c82698f6d"}},{"fullUrl":"https://madie.cms.gov/Observation/hiv-viral-load-693a","resource":{"resourceType":"Observation","id":"7844ce8b-a1ea-4fe3-8976-aa2561578e9a","meta":{"profile":["http://hl7.org/fhir/us/qicore/StructureDefinition/qicore-observation"]},"status":"final","category":[{"coding":[{"system":"http://terminology.hl7.org/CodeSystem/observation-category","code":"laboratory","display":"Laboratory"}],"text":"Laboratory"}],"code":{"coding":[{"system":"http://loinc.org","version":"2.73","code":"10351-5","display":"HIV 1 RNA [Units/volume] (viral load) in Serum or Plasma by Probe with amplification","userSelected":true}]},"subject":{"reference":"Patient/ba27b68f-b183-4b1e-8ba4-7b3b895f9607"},"effectiveDateTime":"2025-04-30T08:00:00.000+00:00"},"request":{"method":"PUT","url":"Observation/7844ce8b-a1ea-4fe3-8976-aa2561578e9a"}},{"fullUrl":"https://madie.cms.gov/Coverage/1","resource":{"resourceType":"Coverage","id":"34c4921c-0e75-44ae-ae9a-fcc101e79c3b","meta":{"profile":["http://hl7.org/fhir/us/qicore/StructureDefinition/qicore-coverage"]},"status":"active","beneficiary":{"reference":"Patient/ba27b68f-b183-4b1e-8ba4-7b3b895f9607"},"payor":[{"reference":"Organization/80573fa1-cf83-4e9a-8f21-86a018689678"}]},"request":{"method":"PUT","url":"Coverage/34c4921c-0e75-44ae-ae9a-fcc101e79c3b"}},{"fullUrl":"https://madie.cms.gov/Organization/123456","resource":{"resourceType":"Organization","id":"80573fa1-cf83-4e9a-8f21-86a018689678","meta":{"profile":["http://hl7.org/fhir/us/qicore/StructureDefinition/qicore-organization"]},"identifier":[{"use":"temp","system":"urn:oid:2.16.840.1.113883.4.4","value":"21-3259825"}],"active":true,"type":[{"coding":[{"system":"http://terminology.hl7.org/CodeSystem/organization-type","code":"pay","display":"Payer"}]}],"name":"Blue Cross Blue Shield of Texas","telecom":[{"system":"phone","value":"(+1) 972-766-6900"}],"address":[{"use":"billing","type":"postal","line":["P.O. Box 660044"],"city":"Dallas","state":"TX","postalCode":"75266-0044","country":"USA"}]},"request":{"method":"PUT","url":"Organization/80573fa1-cf83-4e9a-8f21-86a018689678"}},{"fullUrl":"https://madie.cms.gov/Practitioner/practitioner-123456","resource":{"resourceType":"Practitioner","id":"902a682b-53eb-4edf-aaeb-c0766beef351","meta":{"profile":["http://hl7.org/fhir/us/qicore/StructureDefinition/qicore-practitioner"]},"identifier":[{"system":"http://hl7.org/fhir/sid/us-npi","value":"123456"}],"name":[{"family":"Evil","prefix":["Dr"]}]},"request":{"method":"PUT","url":"Practitioner/902a682b-53eb-4edf-aaeb-c0766beef351"}},{"fullUrl":"https://madie.cms.gov/MeasureReport/5b8e529e-fdca-484a-be0b-8be2c2fb1967","resource":{"resourceType":"MeasureReport","id":"5b8e529e-fdca-484a-be0b-8be2c2fb1967","meta":{"profile":["http://hl7.org/fhir/us/cqfmeasures/StructureDefinition/test-case-cqfm"]},"contained":[{"resourceType":"Parameters","id":"3670e3ca-e57e-494d-b6c7-df8b619c3873-parameters","parameter":[{"name":"subject","valueString":"ba27b68f-b183-4b1e-8ba4-7b3b895f9607"}]}],"extension":[{"url":"http://hl7.org/fhir/us/cqfmeasures/StructureDefinition/cqfm-inputParameters","valueReference":{"reference":"#3670e3ca-e57e-494d-b6c7-df8b619c3873-parameters"}},{"url":"http://hl7.org/fhir/us/cqfmeasures/StructureDefinition/cqfm-testCaseDescription","valueMarkdown":"Patient has an encounter during the first 240 days of the MP and a VL test on 4/30 (not more than 90 days after Enc)"}],"modifierExtension":[{"url":"http://hl7.org/fhir/us/cqfmeasures/StructureDefinition/cqfm-isTestCase","valueBoolean":true}],"status":"complete","type":"individual","measure":"https://madie.cms.gov/Measure/HIVRetentionFHIR","period":{"start":"2025-01-01","end":"2025-12-31"},"group":[{"population":[{"code":{"coding":[{"system":"http://terminology.hl7.org/CodeSystem/measure-population","code":"initial-population","display":"Initial Population"}]},"count":1},{"code":{"coding":[{"system":"http://terminology.hl7.org/CodeSystem/measure-population","code":"denominator","display":"Denominator"}]},"count":1},{"code":{"coding":[{"system":"http://terminology.hl7.org/CodeSystem/measure-population","code":"numerator","display":"Numerator"}]},"count":0}]}]},"request":{"method":"PUT","url":"MeasureReport/5b8e529e-fdca-484a-be0b-8be2c2fb1967"}}]}