{"resourceType":"Bundle","id":"tests-e2b6e56e-7af4-4500-ab26-8cf4178ab76e-bundle","type":"transaction","entry":[{"fullUrl":"https://madie.cms.gov/Patient/e2b6e56e-7af4-4500-ab26-8cf4178ab76e","resource":{"resourceType":"Patient","id":"e2b6e56e-7af4-4500-ab26-8cf4178ab76e","meta":{"profile":["http://hl7.org/fhir/us/qicore/StructureDefinition/qicore-patient"]},"extension":[{"url":"http://hl7.org/fhir/us/core/StructureDefinition/us-core-race","extension":[{"url":"ombCategory","valueCoding":{"system":"urn:oid:2.16.840.1.113883.6.238","code":"2106-3","display":"White","userSelected":true}},{"url":"text","valueString":"White"}]},{"url":"http://hl7.org/fhir/us/core/StructureDefinition/us-core-ethnicity","extension":[{"url":"ombCategory","valueCoding":{"system":"urn:oid:2.16.840.1.113883.6.238","code":"2186-5","display":"Not Hispanic or Latino","userSelected":true}},{"url":"text","valueString":"Not Hispanic or Latino"}]}],"identifier":[{"type":{"coding":[{"system":"http://terminology.hl7.org/CodeSystem/v2-0203","code":"MR"}]},"system":"https://bonnie-fhir.healthit.gov/","value":"64946e8dd09ece2c2e9bf94c"}],"name":[{"family":"19NumFail","given":["OneEncOutOfMP"]}],"gender":"female","birthDate":"1999-03-16"},"request":{"method":"PUT","url":"Patient/e2b6e56e-7af4-4500-ab26-8cf4178ab76e"}},{"fullUrl":"https://madie.cms.gov/Condition/hiv-f94d","resource":{"resourceType":"Condition","id":"31a9f032-6e40-405b-a372-ee8444d9f7a2","meta":{"profile":["http://hl7.org/fhir/us/qicore/StructureDefinition/qicore-condition"]},"clinicalStatus":{"coding":[{"system":"http://terminology.hl7.org/CodeSystem/condition-clinical","code":"active","display":"active","userSelected":true}]},"category":[{"coding":[{"system":"http://terminology.hl7.org/CodeSystem/condition-category","code":"problem-list-item","display":"Problem List Item"}]}],"code":{"coding":[{"system":"http://hl7.org/fhir/sid/icd-9-cm","version":"2013","code":"042","display":"Human immunodeficiency virus [HIV] disease","userSelected":true},{"system":"http://snomed.info/sct","code":"165816005","userSelected":true}]},"subject":{"reference":"Patient/e2b6e56e-7af4-4500-ab26-8cf4178ab76e"},"onsetDateTime":"2000-06-22T08:00:00.000+00:00","recordedDate":"2000-06-22T08:00:00.000+00:00"},"request":{"method":"PUT","url":"Condition/31a9f032-6e40-405b-a372-ee8444d9f7a2"}},{"fullUrl":"https://madie.cms.gov/Encounter/outpatient-consultation-f94e","resource":{"resourceType":"Encounter","id":"0abfaa20-310c-49a0-af6e-70336b1ff7f8","meta":{"profile":["http://hl7.org/fhir/us/qicore/StructureDefinition/qicore-encounter"]},"status":"finished","class":{"system":"http://terminology.hl7.org/CodeSystem/v3-ActCode","code":"AMB","display":"ambulatory"},"type":[{"coding":[{"system":"http://snomed.info/sct","version":"2022-09","code":"281036007","display":"Follow-up consultation (procedure)","userSelected":true}]}],"subject":{"reference":"Patient/e2b6e56e-7af4-4500-ab26-8cf4178ab76e"},"period":{"start":"2025-06-22T08:00:00.000+00:00","end":"2025-06-22T08:15:00.000+00:00"}},"request":{"method":"PUT","url":"Encounter/0abfaa20-310c-49a0-af6e-70336b1ff7f8"}},{"fullUrl":"https://madie.cms.gov/Encounter/face-to-face-interaction-f94f","resource":{"resourceType":"Encounter","id":"eab5d1ba-7850-44e8-82a1-6f7c1530a1ce","meta":{"profile":["http://hl7.org/fhir/us/qicore/StructureDefinition/qicore-encounter"]},"status":"finished","class":{"system":"http://terminology.hl7.org/CodeSystem/v3-ActCode","code":"IMP","display":"inpatient encounter"},"type":[{"coding":[{"system":"http://snomed.info/sct","version":"2022-09","code":"12843005","display":"Subsequent hospital visit by physician (procedure)","userSelected":true}]}],"subject":{"reference":"Patient/e2b6e56e-7af4-4500-ab26-8cf4178ab76e"},"period":{"start":"2024-12-31T08:00:00.000+00:00","end":"2024-12-31T08:15:00.000+00:00"}},"request":{"method":"PUT","url":"Encounter/eab5d1ba-7850-44e8-82a1-6f7c1530a1ce"}},{"fullUrl":"https://madie.cms.gov/Coverage/1","resource":{"resourceType":"Coverage","id":"a76ed452-569b-4568-a855-6707415be174","meta":{"profile":["http://hl7.org/fhir/us/qicore/StructureDefinition/qicore-coverage"]},"status":"active","beneficiary":{"reference":"Patient/e2b6e56e-7af4-4500-ab26-8cf4178ab76e"},"payor":[{"reference":"Organization/f4907415-83c5-4eae-ab0b-cb63a840880d"}]},"request":{"method":"PUT","url":"Coverage/a76ed452-569b-4568-a855-6707415be174"}},{"fullUrl":"https://madie.cms.gov/Organization/123456","resource":{"resourceType":"Organization","id":"f4907415-83c5-4eae-ab0b-cb63a840880d","meta":{"profile":["http://hl7.org/fhir/us/qicore/StructureDefinition/qicore-organization"]},"identifier":[{"use":"temp","system":"urn:oid:2.16.840.1.113883.4.4","value":"21-3259825"}],"active":true,"type":[{"coding":[{"system":"http://terminology.hl7.org/CodeSystem/organization-type","code":"pay","display":"Payer"}]}],"name":"Blue Cross Blue Shield of Texas","telecom":[{"system":"phone","value":"(+1) 972-766-6900"}],"address":[{"use":"billing","type":"postal","line":["P.O. Box 660044"],"city":"Dallas","state":"TX","postalCode":"75266-0044","country":"USA"}]},"request":{"method":"PUT","url":"Organization/f4907415-83c5-4eae-ab0b-cb63a840880d"}},{"fullUrl":"https://madie.cms.gov/Practitioner/practitioner-123456","resource":{"resourceType":"Practitioner","id":"3c9b8000-64ad-4c2f-bdad-477e25a538e0","meta":{"profile":["http://hl7.org/fhir/us/qicore/StructureDefinition/qicore-practitioner"]},"identifier":[{"system":"http://hl7.org/fhir/sid/us-npi","value":"123456"}],"name":[{"family":"Evil","prefix":["Dr"]}]},"request":{"method":"PUT","url":"Practitioner/3c9b8000-64ad-4c2f-bdad-477e25a538e0"}},{"fullUrl":"https://madie.cms.gov/MeasureReport/2e7313b4-ad6f-4444-9479-322a4acf977c","resource":{"resourceType":"MeasureReport","id":"2e7313b4-ad6f-4444-9479-322a4acf977c","meta":{"profile":["http://hl7.org/fhir/us/cqfmeasures/StructureDefinition/test-case-cqfm"]},"contained":[{"resourceType":"Parameters","id":"e84780dd-835b-4540-8261-9f3db1489583-parameters","parameter":[{"name":"subject","valueString":"e2b6e56e-7af4-4500-ab26-8cf4178ab76e"}]}],"extension":[{"url":"http://hl7.org/fhir/us/cqfmeasures/StructureDefinition/cqfm-inputParameters","valueReference":{"reference":"#e84780dd-835b-4540-8261-9f3db1489583-parameters"}},{"url":"http://hl7.org/fhir/us/cqfmeasures/StructureDefinition/cqfm-testCaseDescription","valueMarkdown":"Patient has one encounter during MP and others outside of MP. No VL."}],"modifierExtension":[{"url":"http://hl7.org/fhir/us/cqfmeasures/StructureDefinition/cqfm-isTestCase","valueBoolean":true}],"status":"complete","type":"individual","measure":"https://madie.cms.gov/Measure/HIVRetentionFHIR","period":{"start":"2025-01-01","end":"2025-12-31"},"group":[{"population":[{"code":{"coding":[{"system":"http://terminology.hl7.org/CodeSystem/measure-population","code":"initial-population","display":"Initial Population"}]},"count":1},{"code":{"coding":[{"system":"http://terminology.hl7.org/CodeSystem/measure-population","code":"denominator","display":"Denominator"}]},"count":1},{"code":{"coding":[{"system":"http://terminology.hl7.org/CodeSystem/measure-population","code":"numerator","display":"Numerator"}]},"count":0}]}]},"request":{"method":"PUT","url":"MeasureReport/2e7313b4-ad6f-4444-9479-322a4acf977c"}}]}