{"resourceType":"Bundle","id":"tests-5d20c03f-3fa1-422f-913a-a58e8db09444-bundle","type":"transaction","entry":[{"fullUrl":"https://madie.cms.gov/Patient/5d20c03f-3fa1-422f-913a-a58e8db09444","resource":{"resourceType":"Patient","id":"5d20c03f-3fa1-422f-913a-a58e8db09444","meta":{"profile":["http://hl7.org/fhir/us/qicore/StructureDefinition/qicore-patient"]},"extension":[{"url":"http://hl7.org/fhir/us/core/StructureDefinition/us-core-race","extension":[{"url":"ombCategory","valueCoding":{"system":"urn:oid:2.16.840.1.113883.6.238","code":"2054-5","display":"Black or African American","userSelected":true}},{"url":"text","valueString":"Black or African American"}]},{"url":"http://hl7.org/fhir/us/core/StructureDefinition/us-core-ethnicity","extension":[{"url":"ombCategory","valueCoding":{"system":"urn:oid:2.16.840.1.113883.6.238","code":"2135-2","display":"Hispanic or Latino","userSelected":true}},{"url":"text","valueString":"Hispanic or Latino"}]}],"identifier":[{"type":{"coding":[{"system":"http://terminology.hl7.org/CodeSystem/v2-0203","code":"MR"}]},"system":"https://bonnie-fhir.healthit.gov/","value":"64946a32d09ece2c2e9bf943"}],"name":[{"family":"16NumPass","given":["TwoEncOver90DaysApart"]}],"gender":"male","birthDate":"1958-09-29"},"request":{"method":"PUT","url":"Patient/5d20c03f-3fa1-422f-913a-a58e8db09444"}},{"fullUrl":"https://madie.cms.gov/Condition/hiv-f944","resource":{"resourceType":"Condition","id":"4de8a8c4-8c32-463c-b57d-fbd6241e05e3","meta":{"profile":["http://hl7.org/fhir/us/qicore/StructureDefinition/qicore-condition"]},"clinicalStatus":{"coding":[{"system":"http://terminology.hl7.org/CodeSystem/condition-clinical","code":"active","display":"active","userSelected":true}]},"category":[{"coding":[{"system":"http://terminology.hl7.org/CodeSystem/condition-category","code":"problem-list-item","display":"Problem List Item"}]}],"code":{"coding":[{"system":"http://hl7.org/fhir/sid/icd-9-cm","version":"2013","code":"042","display":"Human immunodeficiency virus [HIV] disease","userSelected":true},{"system":"http://snomed.info/sct","code":"165816005","userSelected":true}]},"subject":{"reference":"Patient/5d20c03f-3fa1-422f-913a-a58e8db09444"},"onsetDateTime":"2022-01-08T08:00:00.000+00:00","recordedDate":"2022-01-08T10:00:00.000+00:00"},"request":{"method":"PUT","url":"Condition/4de8a8c4-8c32-463c-b57d-fbd6241e05e3"}},{"fullUrl":"https://madie.cms.gov/Encounter/office-visit-f945","resource":{"resourceType":"Encounter","id":"2476a5e4-4791-406f-a618-e183169a3dab","meta":{"profile":["http://hl7.org/fhir/us/qicore/StructureDefinition/qicore-encounter"]},"status":"finished","class":{"system":"http://terminology.hl7.org/CodeSystem/v3-ActCode","code":"AMB","display":"ambulatory"},"type":[{"coding":[{"system":"http://snomed.info/sct","version":"2022-09","code":"185463005","display":"Visit out of hours (procedure)","userSelected":true}]}],"subject":{"reference":"Patient/5d20c03f-3fa1-422f-913a-a58e8db09444"},"period":{"start":"2025-02-01T08:00:00.000+00:00","end":"2025-02-01T08:15:00.000+00:00"}},"request":{"method":"PUT","url":"Encounter/2476a5e4-4791-406f-a618-e183169a3dab"}},{"fullUrl":"https://madie.cms.gov/Encounter/annual-wellness-visit-f946","resource":{"resourceType":"Encounter","id":"5cb7df3c-1816-48ab-bf51-4c7cc9c9921a","meta":{"profile":["http://hl7.org/fhir/us/qicore/StructureDefinition/qicore-encounter"]},"status":"finished","class":{"system":"http://terminology.hl7.org/CodeSystem/v3-ActCode","code":"AMB","display":"ambulatory"},"type":[{"coding":[{"system":"http://snomed.info/sct","version":"2022-09","code":"444971000124105","display":"Annual wellness visit (procedure)","userSelected":true}]}],"subject":{"reference":"Patient/5d20c03f-3fa1-422f-913a-a58e8db09444"},"period":{"start":"2025-06-01T00:00:00.000+00:00","end":"2025-06-01T08:15:00.000+00:00"}},"request":{"method":"PUT","url":"Encounter/5cb7df3c-1816-48ab-bf51-4c7cc9c9921a"}},{"fullUrl":"https://madie.cms.gov/Coverage/1","resource":{"resourceType":"Coverage","id":"6bd47237-a8f7-4c7d-810a-b178b4c4ce55","meta":{"profile":["http://hl7.org/fhir/us/qicore/StructureDefinition/qicore-coverage"]},"status":"active","beneficiary":{"reference":"Patient/5d20c03f-3fa1-422f-913a-a58e8db09444"},"payor":[{"reference":"Organization/890316dc-a4ad-43b4-ba6f-9fb9e6eca282"}]},"request":{"method":"PUT","url":"Coverage/6bd47237-a8f7-4c7d-810a-b178b4c4ce55"}},{"fullUrl":"https://madie.cms.gov/Organization/123456","resource":{"resourceType":"Organization","id":"890316dc-a4ad-43b4-ba6f-9fb9e6eca282","meta":{"profile":["http://hl7.org/fhir/us/qicore/StructureDefinition/qicore-organization"]},"identifier":[{"use":"temp","system":"urn:oid:2.16.840.1.113883.4.4","value":"21-3259825"}],"active":true,"type":[{"coding":[{"system":"http://terminology.hl7.org/CodeSystem/organization-type","code":"pay","display":"Payer"}]}],"name":"Blue Cross Blue Shield of Texas","telecom":[{"system":"phone","value":"(+1) 972-766-6900"}],"address":[{"use":"billing","type":"postal","line":["P.O. Box 660044"],"city":"Dallas","state":"TX","postalCode":"75266-0044","country":"USA"}]},"request":{"method":"PUT","url":"Organization/890316dc-a4ad-43b4-ba6f-9fb9e6eca282"}},{"fullUrl":"https://madie.cms.gov/Practitioner/practitioner-123456","resource":{"resourceType":"Practitioner","id":"65c82f81-4f8e-4aa5-a87d-15fd48532863","meta":{"profile":["http://hl7.org/fhir/us/qicore/StructureDefinition/qicore-practitioner"]},"identifier":[{"system":"http://hl7.org/fhir/sid/us-npi","value":"123456"}],"name":[{"family":"Evil","prefix":["Dr"]}]},"request":{"method":"PUT","url":"Practitioner/65c82f81-4f8e-4aa5-a87d-15fd48532863"}},{"fullUrl":"https://madie.cms.gov/MeasureReport/89aace16-5479-4585-bfe3-863a7905d472","resource":{"resourceType":"MeasureReport","id":"89aace16-5479-4585-bfe3-863a7905d472","meta":{"profile":["http://hl7.org/fhir/us/cqfmeasures/StructureDefinition/test-case-cqfm"]},"contained":[{"resourceType":"Parameters","id":"4118725a-405a-48e4-be77-85717a8ea03b-parameters","parameter":[{"name":"subject","valueString":"5d20c03f-3fa1-422f-913a-a58e8db09444"}]}],"extension":[{"url":"http://hl7.org/fhir/us/cqfmeasures/StructureDefinition/cqfm-inputParameters","valueReference":{"reference":"#4118725a-405a-48e4-be77-85717a8ea03b-parameters"}},{"url":"http://hl7.org/fhir/us/cqfmeasures/StructureDefinition/cqfm-testCaseDescription","valueMarkdown":"Patient has two encounters over 90 days apart during MP (edge case test)."}],"modifierExtension":[{"url":"http://hl7.org/fhir/us/cqfmeasures/StructureDefinition/cqfm-isTestCase","valueBoolean":true}],"status":"complete","type":"individual","measure":"https://madie.cms.gov/Measure/HIVRetentionFHIR","period":{"start":"2025-01-01","end":"2025-12-31"},"group":[{"population":[{"code":{"coding":[{"system":"http://terminology.hl7.org/CodeSystem/measure-population","code":"initial-population","display":"Initial Population"}]},"count":1},{"code":{"coding":[{"system":"http://terminology.hl7.org/CodeSystem/measure-population","code":"denominator","display":"Denominator"}]},"count":1},{"code":{"coding":[{"system":"http://terminology.hl7.org/CodeSystem/measure-population","code":"numerator","display":"Numerator"}]},"count":1}]}]},"request":{"method":"PUT","url":"MeasureReport/89aace16-5479-4585-bfe3-863a7905d472"}}]}