{"resourceType":"Bundle","id":"tests-55918f04-a1a3-480a-8d79-c2a2208481fe-bundle","type":"transaction","entry":[{"fullUrl":"https://madie.cms.gov/Patient/55918f04-a1a3-480a-8d79-c2a2208481fe","resource":{"resourceType":"Patient","id":"55918f04-a1a3-480a-8d79-c2a2208481fe","meta":{"profile":["http://hl7.org/fhir/us/qicore/StructureDefinition/qicore-patient"]},"extension":[{"url":"http://hl7.org/fhir/us/core/StructureDefinition/us-core-race","extension":[{"url":"ombCategory","valueCoding":{"system":"urn:oid:2.16.840.1.113883.6.238","code":"2106-3","display":"White","userSelected":true}},{"url":"text","valueString":"White"}]},{"url":"http://hl7.org/fhir/us/core/StructureDefinition/us-core-ethnicity","extension":[{"url":"ombCategory","valueCoding":{"system":"urn:oid:2.16.840.1.113883.6.238","code":"2186-5","display":"Not Hispanic or Latino","userSelected":true}},{"url":"text","valueString":"Not Hispanic or Latino"}]}],"identifier":[{"type":{"coding":[{"system":"http://terminology.hl7.org/CodeSystem/v2-0203","code":"MR"}]},"system":"https://bonnie-fhir.healthit.gov/","value":"64945a33d09ece2c2e9bf8ff"}],"name":[{"family":"5NumFail","given":["EncInMPVLafterMP"]}],"gender":"male","birthDate":"1990-05-08"},"request":{"method":"PUT","url":"Patient/55918f04-a1a3-480a-8d79-c2a2208481fe"}},{"fullUrl":"https://madie.cms.gov/Condition/hiv-f900","resource":{"resourceType":"Condition","id":"bbb002cd-6584-42b1-bfec-b0d0deed230b","meta":{"profile":["http://hl7.org/fhir/us/qicore/StructureDefinition/qicore-condition"]},"clinicalStatus":{"coding":[{"system":"http://terminology.hl7.org/CodeSystem/condition-clinical","code":"active","display":"active","userSelected":true}]},"category":[{"coding":[{"system":"http://terminology.hl7.org/CodeSystem/condition-category","code":"problem-list-item","display":"Problem List Item"}]}],"code":{"coding":[{"system":"http://hl7.org/fhir/sid/icd-9-cm","version":"2013","code":"042","display":"Human immunodeficiency virus [HIV] disease","userSelected":true},{"system":"http://snomed.info/sct","code":"165816005","userSelected":true}]},"subject":{"reference":"Patient/55918f04-a1a3-480a-8d79-c2a2208481fe"},"onsetDateTime":"2001-06-08T08:00:00.000+00:00","recordedDate":"2001-06-08T08:00:00.000+00:00"},"request":{"method":"PUT","url":"Condition/bbb002cd-6584-42b1-bfec-b0d0deed230b"}},{"fullUrl":"https://madie.cms.gov/Encounter/annual-wellness-visit-f901","resource":{"resourceType":"Encounter","id":"b57f2653-57ee-4463-ab02-0084d9eec35f","meta":{"profile":["http://hl7.org/fhir/us/qicore/StructureDefinition/qicore-encounter"]},"status":"finished","class":{"system":"http://terminology.hl7.org/CodeSystem/v3-ActCode","code":"AMB","display":"ambulatory"},"type":[{"coding":[{"system":"http://snomed.info/sct","version":"2022-09","code":"444971000124105","display":"Annual wellness visit (procedure)","userSelected":true}]}],"subject":{"reference":"Patient/55918f04-a1a3-480a-8d79-c2a2208481fe"},"period":{"start":"2025-02-01T08:00:00.000+00:00","end":"2025-02-01T08:35:00.000+00:00"}},"request":{"method":"PUT","url":"Encounter/b57f2653-57ee-4463-ab02-0084d9eec35f"}},{"fullUrl":"https://madie.cms.gov/Observation/hiv-viral-load-f902","resource":{"resourceType":"Observation","id":"3cab798f-b1c3-4a35-bcd4-bda88f5d5867","meta":{"profile":["http://hl7.org/fhir/us/qicore/StructureDefinition/qicore-observation"]},"status":"final","category":[{"coding":[{"system":"http://terminology.hl7.org/CodeSystem/observation-category"}]}],"code":{"coding":[{"system":"http://loinc.org","version":"2.73","code":"10351-5","display":"HIV 1 RNA [Units/volume] (viral load) in Serum or Plasma by Probe with amplification","userSelected":true},{"system":"http://loinc.org","code":"21333-0","userSelected":true}]},"subject":{"reference":"Patient/55918f04-a1a3-480a-8d79-c2a2208481fe"},"issued":"2026-02-01T08:00:00.000+00:00"},"request":{"method":"PUT","url":"Observation/3cab798f-b1c3-4a35-bcd4-bda88f5d5867"}},{"fullUrl":"https://madie.cms.gov/Observation/hiv-viral-load-f903","resource":{"resourceType":"Observation","id":"ec1b23ae-4b81-4464-9d03-76f57e4b2943","meta":{"profile":["http://hl7.org/fhir/us/qicore/StructureDefinition/qicore-observation"]},"status":"final","category":[{"coding":[{"system":"http://terminology.hl7.org/CodeSystem/observation-category"}]}],"code":{"coding":[{"system":"http://loinc.org","version":"2.73","code":"10351-5","display":"HIV 1 RNA [Units/volume] (viral load) in Serum or Plasma by Probe with amplification","userSelected":true}]},"subject":{"reference":"Patient/55918f04-a1a3-480a-8d79-c2a2208481fe"},"issued":"2025-02-01T08:00:00.000+00:00"},"request":{"method":"PUT","url":"Observation/ec1b23ae-4b81-4464-9d03-76f57e4b2943"}},{"fullUrl":"https://madie.cms.gov/Coverage/1","resource":{"resourceType":"Coverage","id":"f8ff76e8-9861-496e-9dda-0330d30f3dde","meta":{"profile":["http://hl7.org/fhir/us/qicore/StructureDefinition/qicore-coverage"]},"status":"active","beneficiary":{"reference":"Patient/55918f04-a1a3-480a-8d79-c2a2208481fe"},"payor":[{"reference":"Organization/4da248b0-6e59-49b7-b80e-338aa21d299f"}]},"request":{"method":"PUT","url":"Coverage/f8ff76e8-9861-496e-9dda-0330d30f3dde"}},{"fullUrl":"https://madie.cms.gov/Organization/123456","resource":{"resourceType":"Organization","id":"4da248b0-6e59-49b7-b80e-338aa21d299f","meta":{"profile":["http://hl7.org/fhir/us/qicore/StructureDefinition/qicore-organization"]},"identifier":[{"use":"temp","system":"urn:oid:2.16.840.1.113883.4.4","value":"21-3259825"}],"active":true,"type":[{"coding":[{"system":"http://terminology.hl7.org/CodeSystem/organization-type","code":"pay","display":"Payer"}]}],"name":"Blue Cross Blue Shield of Texas","telecom":[{"system":"phone","value":"(+1) 972-766-6900"}],"address":[{"use":"billing","type":"postal","line":["P.O. Box 660044"],"city":"Dallas","state":"TX","postalCode":"75266-0044","country":"USA"}]},"request":{"method":"PUT","url":"Organization/4da248b0-6e59-49b7-b80e-338aa21d299f"}},{"fullUrl":"https://madie.cms.gov/Practitioner/practitioner-123456","resource":{"resourceType":"Practitioner","id":"842f7299-49db-4b46-8c19-d01285a2a88a","meta":{"profile":["http://hl7.org/fhir/us/qicore/StructureDefinition/qicore-practitioner"]},"identifier":[{"system":"http://hl7.org/fhir/sid/us-npi","value":"123456"}],"name":[{"family":"Evil","prefix":["Dr"]}]},"request":{"method":"PUT","url":"Practitioner/842f7299-49db-4b46-8c19-d01285a2a88a"}},{"fullUrl":"https://madie.cms.gov/MeasureReport/57699f2d-b85f-4132-b27c-3ec6012d808d","resource":{"resourceType":"MeasureReport","id":"57699f2d-b85f-4132-b27c-3ec6012d808d","meta":{"profile":["http://hl7.org/fhir/us/cqfmeasures/StructureDefinition/test-case-cqfm"]},"contained":[{"resourceType":"Parameters","id":"10e6d5b4-4b2b-40a7-a173-d64a5cef4f58-parameters","parameter":[{"name":"subject","valueString":"55918f04-a1a3-480a-8d79-c2a2208481fe"}]}],"extension":[{"url":"http://hl7.org/fhir/us/cqfmeasures/StructureDefinition/cqfm-inputParameters","valueReference":{"reference":"#10e6d5b4-4b2b-40a7-a173-d64a5cef4f58-parameters"}},{"url":"http://hl7.org/fhir/us/cqfmeasures/StructureDefinition/cqfm-testCaseDescription","valueMarkdown":"Patient with HIV diagnosed After Encounter (IP Enc, not num)"}],"modifierExtension":[{"url":"http://hl7.org/fhir/us/cqfmeasures/StructureDefinition/cqfm-isTestCase","valueBoolean":true}],"status":"complete","type":"individual","measure":"https://madie.cms.gov/Measure/HIVRetentionFHIR","period":{"start":"2025-01-01","end":"2025-12-31"},"group":[{"population":[{"code":{"coding":[{"system":"http://terminology.hl7.org/CodeSystem/measure-population","code":"initial-population","display":"Initial Population"}]},"count":1},{"code":{"coding":[{"system":"http://terminology.hl7.org/CodeSystem/measure-population","code":"denominator","display":"Denominator"}]},"count":1},{"code":{"coding":[{"system":"http://terminology.hl7.org/CodeSystem/measure-population","code":"numerator","display":"Numerator"}]},"count":0}]}]},"request":{"method":"PUT","url":"MeasureReport/57699f2d-b85f-4132-b27c-3ec6012d808d"}}]}