{"resourceType":"Bundle","id":"tests-60fa3554-b650-43fe-b23e-604acc5e4bbf-bundle","type":"transaction","entry":[{"fullUrl":"https://madie.cms.gov/Patient/60fa3554-b650-43fe-b23e-604acc5e4bbf","resource":{"resourceType":"Patient","id":"60fa3554-b650-43fe-b23e-604acc5e4bbf","meta":{"profile":["http://hl7.org/fhir/us/qicore/StructureDefinition/qicore-patient"]},"extension":[{"url":"http://hl7.org/fhir/us/core/StructureDefinition/us-core-race","extension":[{"url":"ombCategory","valueCoding":{"system":"urn:oid:2.16.840.1.113883.6.238","code":"2106-3","display":"White","userSelected":true}},{"url":"text","valueString":"White"}]},{"url":"http://hl7.org/fhir/us/core/StructureDefinition/us-core-ethnicity","extension":[{"url":"ombCategory","valueCoding":{"system":"urn:oid:2.16.840.1.113883.6.238","code":"2186-5","display":"Not Hispanic or Latino","userSelected":true}},{"url":"text","valueString":"Not Hispanic or Latino"}]}],"identifier":[{"type":{"coding":[{"system":"http://terminology.hl7.org/CodeSystem/v2-0203","code":"MR"}]},"system":"https://bonnie-fhir.healthit.gov/","value":"64946533d09ece2c2e9bf915"}],"name":[{"family":"10NumFail","given":["VLduringMPwithEncAfterUnder90days"]}],"gender":"female","birthDate":"1990-05-09"},"request":{"method":"PUT","url":"Patient/60fa3554-b650-43fe-b23e-604acc5e4bbf"}},{"fullUrl":"https://madie.cms.gov/Condition/hiv-f916","resource":{"resourceType":"Condition","id":"c7f102df-6545-44b1-9cb7-918e9c170d39","meta":{"profile":["http://hl7.org/fhir/us/qicore/StructureDefinition/qicore-condition"]},"clinicalStatus":{"coding":[{"system":"http://terminology.hl7.org/CodeSystem/condition-clinical","code":"active","display":"active","userSelected":true}]},"category":[{"coding":[{"system":"http://terminology.hl7.org/CodeSystem/condition-category","code":"problem-list-item","display":"Problem List Item"}]}],"code":{"coding":[{"system":"http://hl7.org/fhir/sid/icd-9-cm","version":"2013","code":"042","display":"Human immunodeficiency virus [HIV] disease","userSelected":true},{"system":"http://snomed.info/sct","code":"165816005","userSelected":true}]},"subject":{"reference":"Patient/60fa3554-b650-43fe-b23e-604acc5e4bbf"},"onsetDateTime":"2021-09-08T08:00:00.000+00:00","recordedDate":"2021-09-08T08:00:00.000+00:00"},"request":{"method":"PUT","url":"Condition/c7f102df-6545-44b1-9cb7-918e9c170d39"}},{"fullUrl":"https://madie.cms.gov/Encounter/outpatient-consultation-f917","resource":{"resourceType":"Encounter","id":"0e2317c3-37d3-4711-a127-79d123cd9c29","meta":{"profile":["http://hl7.org/fhir/us/qicore/StructureDefinition/qicore-encounter"]},"status":"finished","class":{"system":"http://terminology.hl7.org/CodeSystem/v3-ActCode","code":"AMB","display":"ambulatory"},"type":[{"coding":[{"system":"http://snomed.info/sct","version":"2022-09","code":"281036007","display":"Follow-up consultation (procedure)","userSelected":true}]}],"subject":{"reference":"Patient/60fa3554-b650-43fe-b23e-604acc5e4bbf"},"period":{"start":"2025-05-01T08:00:00.000+00:00","end":"2025-05-01T08:15:00.000+00:00"}},"request":{"method":"PUT","url":"Encounter/0e2317c3-37d3-4711-a127-79d123cd9c29"}},{"fullUrl":"https://madie.cms.gov/Observation/hiv-viral-load-f918","resource":{"resourceType":"Observation","id":"fb4210a6-0485-476b-b83d-9dd8ef9c9a06","meta":{"profile":["http://hl7.org/fhir/us/qicore/StructureDefinition/qicore-observation"]},"status":"final","category":[{"coding":[{"system":"http://terminology.hl7.org/CodeSystem/observation-category"}]}],"code":{"coding":[{"system":"http://loinc.org","version":"2.73","code":"10351-5","display":"HIV 1 RNA [Units/volume] (viral load) in Serum or Plasma by Probe with amplification","userSelected":true}]},"subject":{"reference":"Patient/60fa3554-b650-43fe-b23e-604acc5e4bbf"},"issued":"2025-07-29T08:00:00.000+00:00"},"request":{"method":"PUT","url":"Observation/fb4210a6-0485-476b-b83d-9dd8ef9c9a06"}},{"fullUrl":"https://madie.cms.gov/Coverage/1","resource":{"resourceType":"Coverage","id":"9d822fab-10cd-45d2-9ad9-00826cf0ff64","meta":{"profile":["http://hl7.org/fhir/us/qicore/StructureDefinition/qicore-coverage"]},"status":"active","beneficiary":{"reference":"Patient/60fa3554-b650-43fe-b23e-604acc5e4bbf"},"payor":[{"reference":"Organization/4da248b0-6e59-49b7-b80e-338aa21d299f"}]},"request":{"method":"PUT","url":"Coverage/9d822fab-10cd-45d2-9ad9-00826cf0ff64"}},{"fullUrl":"https://madie.cms.gov/Organization/123456","resource":{"resourceType":"Organization","id":"4da248b0-6e59-49b7-b80e-338aa21d299f","meta":{"profile":["http://hl7.org/fhir/us/qicore/StructureDefinition/qicore-organization"]},"identifier":[{"use":"temp","system":"urn:oid:2.16.840.1.113883.4.4","value":"21-3259825"}],"active":true,"type":[{"coding":[{"system":"http://terminology.hl7.org/CodeSystem/organization-type","code":"pay","display":"Payer"}]}],"name":"Blue Cross Blue Shield of Texas","telecom":[{"system":"phone","value":"(+1) 972-766-6900"}],"address":[{"use":"billing","type":"postal","line":["P.O. Box 660044"],"city":"Dallas","state":"TX","postalCode":"75266-0044","country":"USA"}]},"request":{"method":"PUT","url":"Organization/4da248b0-6e59-49b7-b80e-338aa21d299f"}},{"fullUrl":"https://madie.cms.gov/Practitioner/practitioner-123456","resource":{"resourceType":"Practitioner","id":"c711371f-00bc-4abc-865f-0cb6ff4c2e96","meta":{"profile":["http://hl7.org/fhir/us/qicore/StructureDefinition/qicore-practitioner"]},"identifier":[{"system":"http://hl7.org/fhir/sid/us-npi","value":"123456"}],"name":[{"family":"Evil","prefix":["Dr"]}]},"request":{"method":"PUT","url":"Practitioner/c711371f-00bc-4abc-865f-0cb6ff4c2e96"}},{"fullUrl":"https://madie.cms.gov/MeasureReport/5be63606-ea5b-4a0a-bdc3-a8c1265ebd9e","resource":{"resourceType":"MeasureReport","id":"5be63606-ea5b-4a0a-bdc3-a8c1265ebd9e","meta":{"profile":["http://hl7.org/fhir/us/cqfmeasures/StructureDefinition/test-case-cqfm"]},"contained":[{"resourceType":"Parameters","id":"a2d67cd0-ecff-4ab0-8b86-a0b73e983df5-parameters","parameter":[{"name":"subject","valueString":"60fa3554-b650-43fe-b23e-604acc5e4bbf"}]}],"extension":[{"url":"http://hl7.org/fhir/us/cqfmeasures/StructureDefinition/cqfm-inputParameters","valueReference":{"reference":"#a2d67cd0-ecff-4ab0-8b86-a0b73e983df5-parameters"}},{"url":"http://hl7.org/fhir/us/cqfmeasures/StructureDefinition/cqfm-testCaseDescription","valueMarkdown":"Patient has a viral load test before enc (under 90 days apart)"}],"modifierExtension":[{"url":"http://hl7.org/fhir/us/cqfmeasures/StructureDefinition/cqfm-isTestCase","valueBoolean":true}],"status":"complete","type":"individual","measure":"https://madie.cms.gov/Measure/HIVRetentionFHIR","period":{"start":"2025-01-01","end":"2025-12-31"},"group":[{"population":[{"code":{"coding":[{"system":"http://terminology.hl7.org/CodeSystem/measure-population","code":"initial-population","display":"Initial Population"}]},"count":1},{"code":{"coding":[{"system":"http://terminology.hl7.org/CodeSystem/measure-population","code":"denominator","display":"Denominator"}]},"count":1},{"code":{"coding":[{"system":"http://terminology.hl7.org/CodeSystem/measure-population","code":"numerator","display":"Numerator"}]},"count":0}]}]},"request":{"method":"PUT","url":"MeasureReport/5be63606-ea5b-4a0a-bdc3-a8c1265ebd9e"}}]}