{"resourceType":"Bundle","id":"tests-4fb37f38-8be8-4963-8386-38c98cc095c8-bundle","type":"transaction","entry":[{"fullUrl":"https://madie.cms.gov/Patient/4fb37f38-8be8-4963-8386-38c98cc095c8","resource":{"resourceType":"Patient","id":"4fb37f38-8be8-4963-8386-38c98cc095c8","meta":{"profile":["http://hl7.org/fhir/us/qicore/StructureDefinition/qicore-patient"]},"extension":[{"url":"http://hl7.org/fhir/us/core/StructureDefinition/us-core-race","extension":[{"url":"ombCategory","valueCoding":{"system":"urn:oid:2.16.840.1.113883.6.238","code":"2054-5","display":"Black or African American","userSelected":true}},{"url":"text","valueString":"Black or African American"}]},{"url":"http://hl7.org/fhir/us/core/StructureDefinition/us-core-ethnicity","extension":[{"url":"ombCategory","valueCoding":{"system":"urn:oid:2.16.840.1.113883.6.238","code":"2186-5","display":"Not Hispanic or Latino","userSelected":true}},{"url":"text","valueString":"Not Hispanic or Latino"}]}],"identifier":[{"type":{"coding":[{"system":"http://terminology.hl7.org/CodeSystem/v2-0203","code":"MR"}]},"system":"https://bonnie-fhir.healthit.gov/","value":"64947021d09ece2c2e9bf955"}],"name":[{"family":"22IPFail","given":["LV240DaysIntoMP"]}],"gender":"female","birthDate":"1987-08-04"},"request":{"method":"PUT","url":"Patient/4fb37f38-8be8-4963-8386-38c98cc095c8"}},{"fullUrl":"https://madie.cms.gov/Condition/hiv-f956","resource":{"resourceType":"Condition","id":"3b447aaf-e29f-43a5-91ad-96015d906470","meta":{"profile":["http://hl7.org/fhir/us/qicore/StructureDefinition/qicore-condition"]},"clinicalStatus":{"coding":[{"system":"http://terminology.hl7.org/CodeSystem/condition-clinical","code":"active","display":"active","userSelected":true}]},"category":[{"coding":[{"system":"http://terminology.hl7.org/CodeSystem/condition-category","code":"problem-list-item","display":"Problem List Item"}]}],"code":{"coding":[{"system":"http://hl7.org/fhir/sid/icd-9-cm","version":"2013","code":"042","display":"Human immunodeficiency virus [HIV] disease","userSelected":true},{"system":"http://snomed.info/sct","code":"165816005","userSelected":true}]},"subject":{"reference":"Patient/4fb37f38-8be8-4963-8386-38c98cc095c8"},"onsetDateTime":"2000-06-22T08:00:00.000+00:00","recordedDate":"2000-06-22T08:00:00.000+00:00"},"request":{"method":"PUT","url":"Condition/3b447aaf-e29f-43a5-91ad-96015d906470"}},{"fullUrl":"https://madie.cms.gov/Observation/hiv-viral-load-f957","resource":{"resourceType":"Observation","id":"c587ffd3-d27c-4ee5-a7e1-5d58b41c7b57","meta":{"profile":["http://hl7.org/fhir/us/qicore/StructureDefinition/qicore-observation"]},"status":"final","category":[{"coding":[{"system":"http://terminology.hl7.org/CodeSystem/observation-category"}]}],"code":{"coding":[{"system":"http://loinc.org","version":"2.73","code":"10351-5","display":"HIV 1 RNA [Units/volume] (viral load) in Serum or Plasma by Probe with amplification","userSelected":true}]},"subject":{"reference":"Patient/4fb37f38-8be8-4963-8386-38c98cc095c8"},"effectiveDateTime":"2025-11-22T08:00:00.000+00:00"},"request":{"method":"PUT","url":"Observation/c587ffd3-d27c-4ee5-a7e1-5d58b41c7b57"}},{"fullUrl":"https://madie.cms.gov/Coverage/1","resource":{"resourceType":"Coverage","id":"578d16dc-f7f0-45ce-9154-ba8df72a58f8","meta":{"profile":["http://hl7.org/fhir/us/qicore/StructureDefinition/qicore-coverage"]},"status":"active","beneficiary":{"reference":"Patient/4fb37f38-8be8-4963-8386-38c98cc095c8"},"payor":[{"reference":"Organization/88fe5347-bc11-46bc-b22c-c233ad09637b"}]},"request":{"method":"PUT","url":"Coverage/578d16dc-f7f0-45ce-9154-ba8df72a58f8"}},{"fullUrl":"https://madie.cms.gov/Organization/123456","resource":{"resourceType":"Organization","id":"88fe5347-bc11-46bc-b22c-c233ad09637b","meta":{"profile":["http://hl7.org/fhir/us/qicore/StructureDefinition/qicore-organization"]},"identifier":[{"use":"temp","system":"urn:oid:2.16.840.1.113883.4.4","value":"21-3259825"}],"active":true,"type":[{"coding":[{"system":"http://terminology.hl7.org/CodeSystem/organization-type","code":"pay","display":"Payer"}]}],"name":"Blue Cross Blue Shield of Texas","telecom":[{"system":"phone","value":"(+1) 972-766-6900"}],"address":[{"use":"billing","type":"postal","line":["P.O. Box 660044"],"city":"Dallas","state":"TX","postalCode":"75266-0044","country":"USA"}]},"request":{"method":"PUT","url":"Organization/88fe5347-bc11-46bc-b22c-c233ad09637b"}},{"fullUrl":"https://madie.cms.gov/Practitioner/practitioner-123456","resource":{"resourceType":"Practitioner","id":"d8b5e92f-a155-45de-8ff7-f76a449ead81","meta":{"profile":["http://hl7.org/fhir/us/qicore/StructureDefinition/qicore-practitioner"]},"identifier":[{"system":"http://hl7.org/fhir/sid/us-npi","value":"123456"}],"name":[{"family":"Evil","prefix":["Dr"]}]},"request":{"method":"PUT","url":"Practitioner/d8b5e92f-a155-45de-8ff7-f76a449ead81"}},{"fullUrl":"https://madie.cms.gov/MeasureReport/e8bd7645-384c-4b5c-a27e-4a991f7d9427","resource":{"resourceType":"MeasureReport","id":"e8bd7645-384c-4b5c-a27e-4a991f7d9427","meta":{"profile":["http://hl7.org/fhir/us/cqfmeasures/StructureDefinition/test-case-cqfm"]},"contained":[{"resourceType":"Parameters","id":"4e1f88d7-9ff6-49e3-b556-143546bd52fd-parameters","parameter":[{"name":"subject","valueString":"4fb37f38-8be8-4963-8386-38c98cc095c8"}]}],"extension":[{"url":"http://hl7.org/fhir/us/cqfmeasures/StructureDefinition/cqfm-inputParameters","valueReference":{"reference":"#4e1f88d7-9ff6-49e3-b556-143546bd52fd-parameters"}},{"url":"http://hl7.org/fhir/us/cqfmeasures/StructureDefinition/cqfm-testCaseDescription","valueMarkdown":"Patient has VL test more than 240 days after start of MP and no other encounters."}],"modifierExtension":[{"url":"http://hl7.org/fhir/us/cqfmeasures/StructureDefinition/cqfm-isTestCase","valueBoolean":true}],"status":"complete","type":"individual","measure":"https://madie.cms.gov/Measure/HIVRetentionFHIR","period":{"start":"2025-01-01","end":"2025-12-31"},"group":[{"population":[{"code":{"coding":[{"system":"http://terminology.hl7.org/CodeSystem/measure-population","code":"initial-population","display":"Initial Population"}]},"count":0},{"code":{"coding":[{"system":"http://terminology.hl7.org/CodeSystem/measure-population","code":"denominator","display":"Denominator"}]},"count":0},{"code":{"coding":[{"system":"http://terminology.hl7.org/CodeSystem/measure-population","code":"numerator","display":"Numerator"}]},"count":0}]}]},"request":{"method":"PUT","url":"MeasureReport/e8bd7645-384c-4b5c-a27e-4a991f7d9427"}}]}