{"resourceType":"Bundle","id":"tests-4f318d2b-56a8-4fad-ad95-858a17d6d0e3-bundle","type":"transaction","entry":[{"fullUrl":"https://madie.cms.gov/Patient/4f318d2b-56a8-4fad-ad95-858a17d6d0e3","resource":{"resourceType":"Patient","id":"4f318d2b-56a8-4fad-ad95-858a17d6d0e3","meta":{"profile":["http://hl7.org/fhir/us/qicore/StructureDefinition/qicore-patient"]},"extension":[{"url":"http://hl7.org/fhir/us/core/StructureDefinition/us-core-race","extension":[{"url":"ombCategory","valueCoding":{"system":"urn:oid:2.16.840.1.113883.6.238","code":"1002-5","display":"American Indian or Alaska Native","userSelected":true}},{"url":"text","valueString":"American Indian or Alaska Native"}]},{"url":"http://hl7.org/fhir/us/core/StructureDefinition/us-core-ethnicity","extension":[{"url":"ombCategory","valueCoding":{"system":"urn:oid:2.16.840.1.113883.6.238","code":"2135-2","display":"Hispanic or Latino","userSelected":true}},{"url":"text","valueString":"Hispanic or Latino"}]}],"identifier":[{"type":{"coding":[{"system":"http://terminology.hl7.org/CodeSystem/v2-0203","code":"MR"}]},"system":"https://bonnie-fhir.healthit.gov/","value":"649471d3d09ece2c2e9bf95c"}],"name":[{"family":"24NumPass","given":["AdolescentWithMultipleEncAndVL"]}],"gender":"female","birthDate":"2020-02-02"},"request":{"method":"PUT","url":"Patient/4f318d2b-56a8-4fad-ad95-858a17d6d0e3"}},{"fullUrl":"https://madie.cms.gov/Condition/hiv-f95d","resource":{"resourceType":"Condition","id":"a5ab6b27-4c47-4f31-8727-41648eeb4400","meta":{"profile":["http://hl7.org/fhir/us/qicore/StructureDefinition/qicore-condition"]},"clinicalStatus":{"coding":[{"system":"http://terminology.hl7.org/CodeSystem/condition-clinical","code":"active","display":"active","userSelected":true}]},"category":[{"coding":[{"system":"http://terminology.hl7.org/CodeSystem/condition-category","code":"problem-list-item","display":"Problem List Item"}]}],"code":{"coding":[{"system":"http://hl7.org/fhir/sid/icd-9-cm","version":"2013","code":"042","display":"Human immunodeficiency virus [HIV] disease","userSelected":true},{"system":"http://snomed.info/sct","code":"165816005","userSelected":true}]},"subject":{"reference":"Patient/4f318d2b-56a8-4fad-ad95-858a17d6d0e3"},"onsetDateTime":"2020-06-22T08:00:00.000+00:00","recordedDate":"2020-06-22T08:00:00.000+00:00"},"request":{"method":"PUT","url":"Condition/a5ab6b27-4c47-4f31-8727-41648eeb4400"}},{"fullUrl":"https://madie.cms.gov/Encounter/preventive-care-services-initial-office-visit-0-to-17-f95e","resource":{"resourceType":"Encounter","id":"d693dbd1-967a-4419-83fd-414e143f9318","meta":{"profile":["http://hl7.org/fhir/us/qicore/StructureDefinition/qicore-encounter"]},"status":"finished","class":{"system":"http://terminology.hl7.org/CodeSystem/v3-ActCode","code":"AMB","display":"ambulatory"},"type":[{"coding":[{"system":"http://www.ama-assn.org/go/cpt","version":"2023","code":"99381","display":"Initial comprehensive preventive medicine evaluation and management of an individual including an age and gender appropriate history, examination, counseling/anticipatory guidance/risk factor reduction interventions, and the ordering of laboratory/diagnostic procedures, new patient; infant (age younger than 1 year)","userSelected":true}]}],"subject":{"reference":"Patient/4f318d2b-56a8-4fad-ad95-858a17d6d0e3"},"period":{"start":"2025-06-22T08:00:00.000+00:00","end":"2025-06-22T08:15:00.000+00:00"}},"request":{"method":"PUT","url":"Encounter/d693dbd1-967a-4419-83fd-414e143f9318"}},{"fullUrl":"https://madie.cms.gov/Encounter/preventive-care-established-office-visit-0-to-17-f95f","resource":{"resourceType":"Encounter","id":"e556469e-10af-43d1-8cf9-918d0569f746","meta":{"profile":["http://hl7.org/fhir/us/qicore/StructureDefinition/qicore-encounter"]},"status":"finished","class":{"system":"http://terminology.hl7.org/CodeSystem/v3-ActCode","code":"AMB","display":"ambulatory"},"type":[{"coding":[{"system":"http://www.ama-assn.org/go/cpt","version":"2023","code":"99391","display":"Periodic comprehensive preventive medicine reevaluation and management of an individual including an age and gender appropriate history, examination, counseling/anticipatory guidance/risk factor reduction interventions, and the ordering of laboratory/diagnostic procedures, established patient; infant (age younger than 1 year)","userSelected":true}]}],"subject":{"reference":"Patient/4f318d2b-56a8-4fad-ad95-858a17d6d0e3"},"period":{"start":"2025-07-22T08:00:00.000+00:00","end":"2025-07-22T08:15:00.000+00:00"}},"request":{"method":"PUT","url":"Encounter/e556469e-10af-43d1-8cf9-918d0569f746"}},{"fullUrl":"https://madie.cms.gov/Encounter/emergency-department-visit-f961","resource":{"resourceType":"Encounter","id":"c5939c2c-cf7a-452b-92ac-e4b2602835ce","meta":{"profile":["http://hl7.org/fhir/us/qicore/StructureDefinition/qicore-encounter"]},"status":"finished","class":{"system":"http://terminology.hl7.org/CodeSystem/v3-ActCode","code":"EMER","display":"emergency"},"type":[{"coding":[{"system":"http://snomed.info/sct","version":"2022-09","code":"4525004","display":"Emergency department patient visit (procedure)","userSelected":true}]}],"subject":{"reference":"Patient/4f318d2b-56a8-4fad-ad95-858a17d6d0e3"},"period":{"start":"2025-12-22T08:00:00.000+00:00","end":"2025-12-22T08:15:00.000+00:00"}},"request":{"method":"PUT","url":"Encounter/c5939c2c-cf7a-452b-92ac-e4b2602835ce"}},{"fullUrl":"https://madie.cms.gov/Encounter/outpatient-surgery-service-f962","resource":{"resourceType":"Encounter","id":"9a48b817-1fc7-494c-8e29-f95c3993721a","meta":{"profile":["http://hl7.org/fhir/us/qicore/StructureDefinition/qicore-encounter"]},"status":"finished","class":{"system":"http://terminology.hl7.org/CodeSystem/v3-ActCode","code":"AMB","display":"ambulatory"},"type":[{"coding":[{"system":"http://snomed.info/sct","version":"2022-09","code":"110468005","display":"Ambulatory surgery (procedure)","userSelected":true}]}],"subject":{"reference":"Patient/4f318d2b-56a8-4fad-ad95-858a17d6d0e3"},"period":{"start":"2025-11-22T08:00:00.000+00:00","end":"2025-11-22T08:15:00.000+00:00"}},"request":{"method":"PUT","url":"Encounter/9a48b817-1fc7-494c-8e29-f95c3993721a"}},{"fullUrl":"https://madie.cms.gov/Observation/hiv-viral-load-f936","resource":{"resourceType":"Observation","id":"542c83a5-5b5d-4ffa-90b7-4650b743bae4","meta":{"profile":["http://hl7.org/fhir/us/qicore/StructureDefinition/qicore-observation"]},"status":"final","category":[{"coding":[{"system":"http://terminology.hl7.org/CodeSystem/observation-category"}]}],"code":{"coding":[{"system":"http://loinc.org","code":"20447-9","userSelected":true}]},"subject":{"reference":"Patient/4f318d2b-56a8-4fad-ad95-858a17d6d0e3"},"effectiveDateTime":"2025-01-01T08:00:00.000+00:00"},"request":{"method":"PUT","url":"Observation/542c83a5-5b5d-4ffa-90b7-4650b743bae4"}},{"fullUrl":"https://madie.cms.gov/Coverage/1","resource":{"resourceType":"Coverage","id":"f6e9a24a-3333-4c04-b389-aae0295a7b03","meta":{"profile":["http://hl7.org/fhir/us/qicore/StructureDefinition/qicore-coverage"]},"status":"active","beneficiary":{"reference":"Patient/4f318d2b-56a8-4fad-ad95-858a17d6d0e3"},"payor":[{"reference":"Organization/84b56847-ad40-4bf6-b612-9e42ad2a84e5"}]},"request":{"method":"PUT","url":"Coverage/f6e9a24a-3333-4c04-b389-aae0295a7b03"}},{"fullUrl":"https://madie.cms.gov/Organization/123456","resource":{"resourceType":"Organization","id":"84b56847-ad40-4bf6-b612-9e42ad2a84e5","meta":{"profile":["http://hl7.org/fhir/us/qicore/StructureDefinition/qicore-organization"]},"identifier":[{"use":"temp","system":"urn:oid:2.16.840.1.113883.4.4","value":"21-3259825"}],"active":true,"type":[{"coding":[{"system":"http://terminology.hl7.org/CodeSystem/organization-type","code":"pay","display":"Payer"}]}],"name":"Blue Cross Blue Shield of Texas","telecom":[{"system":"phone","value":"(+1) 972-766-6900"}],"address":[{"use":"billing","type":"postal","line":["P.O. Box 660044"],"city":"Dallas","state":"TX","postalCode":"75266-0044","country":"USA"}]},"request":{"method":"PUT","url":"Organization/84b56847-ad40-4bf6-b612-9e42ad2a84e5"}},{"fullUrl":"https://madie.cms.gov/Practitioner/practitioner-123456","resource":{"resourceType":"Practitioner","id":"dcc82e49-5d28-470b-8488-37e5af78753d","meta":{"profile":["http://hl7.org/fhir/us/qicore/StructureDefinition/qicore-practitioner"]},"identifier":[{"system":"http://hl7.org/fhir/sid/us-npi","value":"123456"}],"name":[{"family":"Evil","prefix":["Dr"]}]},"request":{"method":"PUT","url":"Practitioner/dcc82e49-5d28-470b-8488-37e5af78753d"}},{"fullUrl":"https://madie.cms.gov/MeasureReport/9d719ce5-e8bf-44f6-9e01-456a8f1e4de2","resource":{"resourceType":"MeasureReport","id":"9d719ce5-e8bf-44f6-9e01-456a8f1e4de2","meta":{"profile":["http://hl7.org/fhir/us/cqfmeasures/StructureDefinition/test-case-cqfm"]},"contained":[{"resourceType":"Parameters","id":"bf9c0618-2962-4888-bd5f-c16a296c9e14-parameters","parameter":[{"name":"subject","valueString":"4f318d2b-56a8-4fad-ad95-858a17d6d0e3"}]}],"extension":[{"url":"http://hl7.org/fhir/us/cqfmeasures/StructureDefinition/cqfm-inputParameters","valueReference":{"reference":"#bf9c0618-2962-4888-bd5f-c16a296c9e14-parameters"}},{"url":"http://hl7.org/fhir/us/cqfmeasures/StructureDefinition/cqfm-testCaseDescription","valueMarkdown":"Adolescent patient with multiple encounter types conducted during MP."}],"modifierExtension":[{"url":"http://hl7.org/fhir/us/cqfmeasures/StructureDefinition/cqfm-isTestCase","valueBoolean":true}],"status":"complete","type":"individual","measure":"https://madie.cms.gov/Measure/HIVRetentionFHIR","period":{"start":"2025-01-01","end":"2025-12-31"},"group":[{"population":[{"code":{"coding":[{"system":"http://terminology.hl7.org/CodeSystem/measure-population","code":"initial-population","display":"Initial Population"}]},"count":1},{"code":{"coding":[{"system":"http://terminology.hl7.org/CodeSystem/measure-population","code":"denominator","display":"Denominator"}]},"count":1},{"code":{"coding":[{"system":"http://terminology.hl7.org/CodeSystem/measure-population","code":"numerator","display":"Numerator"}]},"count":1}]}]},"request":{"method":"PUT","url":"MeasureReport/9d719ce5-e8bf-44f6-9e01-456a8f1e4de2"}}]}