{"resourceType":"Bundle","id":"tests-e329c762-8076-4006-9d9d-e5c1d6132d97-bundle","type":"transaction","entry":[{"fullUrl":"https://madie.cms.gov/Patient/e329c762-8076-4006-9d9d-e5c1d6132d97","resource":{"resourceType":"Patient","id":"e329c762-8076-4006-9d9d-e5c1d6132d97","meta":{"profile":["http://hl7.org/fhir/us/qicore/StructureDefinition/qicore-patient"]},"extension":[{"url":"http://hl7.org/fhir/us/core/StructureDefinition/us-core-race","extension":[{"url":"ombCategory","valueCoding":{"system":"urn:oid:2.16.840.1.113883.6.238","code":"1002-5","display":"American Indian or Alaska Native","userSelected":true}},{"url":"text","valueString":"American Indian or Alaska Native"},{"url":"detailed","valueCoding":{"system":"urn:oid:2.16.840.1.113883.6.238","code":"1653-5","display":"Tohono O'Odham"}}]},{"url":"http://hl7.org/fhir/us/core/StructureDefinition/us-core-ethnicity","extension":[{"url":"ombCategory","valueCoding":{"system":"urn:oid:2.16.840.1.113883.6.238","code":"2135-2","display":"Hispanic or Latino","userSelected":true}},{"url":"text","valueString":"Not Hispanic or Latino"},{"url":"detailed","valueCoding":{"system":"urn:oid:2.16.840.1.113883.6.238","code":"2153-5","display":"Mexican American Indian"}}]}],"identifier":[{"type":{"coding":[{"system":"http://terminology.hl7.org/CodeSystem/v2-0203","code":"MR"}]},"system":"https://bonnie-fhir.healthit.gov/","value":"64946048d09ece2c2e9bf908"}],"name":[{"family":"7NumFail","given":["TwoEncOneAfterMP"]}],"gender":"female","birthDate":"1946-01-05"},"request":{"method":"PUT","url":"Patient/e329c762-8076-4006-9d9d-e5c1d6132d97"}},{"fullUrl":"https://madie.cms.gov/Condition/hiv-f909","resource":{"resourceType":"Condition","id":"63aa7dcc-aec8-4a8b-8330-c9a44b793d73","meta":{"profile":["http://hl7.org/fhir/us/qicore/StructureDefinition/qicore-condition"]},"clinicalStatus":{"coding":[{"system":"http://terminology.hl7.org/CodeSystem/condition-clinical","code":"active","display":"active","userSelected":true}]},"category":[{"coding":[{"system":"http://terminology.hl7.org/CodeSystem/condition-category","code":"problem-list-item","display":"Problem List Item"}]}],"code":{"coding":[{"system":"http://hl7.org/fhir/sid/icd-9-cm","version":"2013","code":"042","display":"Human immunodeficiency virus [HIV] disease","userSelected":true},{"system":"http://snomed.info/sct","code":"165816005","userSelected":true}]},"subject":{"reference":"Patient/e329c762-8076-4006-9d9d-e5c1d6132d97"},"onsetDateTime":"2021-01-08T10:00:00.000+00:00","recordedDate":"2021-01-08T11:00:00.000+00:00"},"request":{"method":"PUT","url":"Condition/63aa7dcc-aec8-4a8b-8330-c9a44b793d73"}},{"fullUrl":"https://madie.cms.gov/Encounter/preventive-care-services-initial-office-visit-18-and-up-f90a","resource":{"resourceType":"Encounter","id":"a2f3f217-8f0d-4693-be1b-de978449cdc5","meta":{"profile":["http://hl7.org/fhir/us/qicore/StructureDefinition/qicore-encounter"]},"status":"finished","class":{"system":"http://terminology.hl7.org/CodeSystem/v3-ActCode","code":"AMB","display":"ambulatory"},"type":[{"coding":[{"system":"http://www.ama-assn.org/go/cpt","version":"2023","code":"99385","display":"Initial comprehensive preventive medicine evaluation and management of an individual including an age and gender appropriate history, examination, counseling/anticipatory guidance/risk factor reduction interventions, and the ordering of laboratory/diagnostic procedures, new patient; 18-39 years","userSelected":true}]}],"subject":{"reference":"Patient/e329c762-8076-4006-9d9d-e5c1d6132d97"},"period":{"start":"2025-01-01T08:00:00.000+00:00","end":"2025-01-01T08:45:00.000+00:00"}},"request":{"method":"PUT","url":"Encounter/a2f3f217-8f0d-4693-be1b-de978449cdc5"}},{"fullUrl":"https://madie.cms.gov/Encounter/encounter-inpatient-f90b","resource":{"resourceType":"Encounter","id":"a39cfcae-aa11-4d02-ab35-dd0337918153","meta":{"profile":["http://hl7.org/fhir/us/qicore/StructureDefinition/qicore-encounter"]},"status":"finished","class":{"system":"http://terminology.hl7.org/CodeSystem/v3-ActCode","code":"EMER","display":"emergency"},"type":[{"coding":[{"system":"http://snomed.info/sct","version":"2022-09","code":"183452005","display":"Emergency hospital admission (procedure)","userSelected":true}]}],"subject":{"reference":"Patient/e329c762-8076-4006-9d9d-e5c1d6132d97"},"period":{"start":"2025-06-22T08:00:00.000+00:00","end":"2025-06-22T08:15:00.000+00:00"}},"request":{"method":"PUT","url":"Encounter/a39cfcae-aa11-4d02-ab35-dd0337918153"}},{"fullUrl":"https://madie.cms.gov/Coverage/encounter-inpatient-f90","resource":{"resourceType":"Coverage","id":"a18083ee-5aed-4985-bfab-883f71e08585","meta":{"profile":["http://hl7.org/fhir/us/qicore/StructureDefinition/qicore-coverage"]},"status":"active","type":{"coding":[{"system":"https://nahdo.org/sopt","code":"1","display":"MEDICARE"}]},"beneficiary":{"reference":"Patient/e329c762-8076-4006-9d9d-e5c1d6132d97"},"period":{"start":"2023-12-01T00:00:00+00:00"},"payor":[{"reference":"Organization/80573fa1-cf83-4e9a-8f21-86a018689678"}]},"request":{"method":"PUT","url":"Coverage/a18083ee-5aed-4985-bfab-883f71e08585"}},{"fullUrl":"https://madie.cms.gov/Organization/123456","resource":{"resourceType":"Organization","id":"80573fa1-cf83-4e9a-8f21-86a018689678","meta":{"profile":["http://hl7.org/fhir/us/qicore/StructureDefinition/qicore-organization"]},"identifier":[{"use":"temp","system":"urn:oid:2.16.840.1.113883.4.4","value":"21-3259825"}],"active":true,"type":[{"coding":[{"system":"http://terminology.hl7.org/CodeSystem/organization-type","code":"pay","display":"Payer"}]}],"name":"Blue Cross Blue Shield of Texas","telecom":[{"system":"phone","value":"(+1) 972-766-6900"}],"address":[{"use":"billing","type":"postal","line":["P.O. Box 660044"],"city":"Dallas","state":"TX","postalCode":"75266-0044","country":"USA"}]},"request":{"method":"PUT","url":"Organization/80573fa1-cf83-4e9a-8f21-86a018689678"}},{"fullUrl":"https://madie.cms.gov/Practitioner/practitioner-123456","resource":{"resourceType":"Practitioner","id":"2b1722be-459e-439a-b32b-0b7d17aa5dc5","meta":{"profile":["http://hl7.org/fhir/us/qicore/StructureDefinition/qicore-practitioner"]},"identifier":[{"system":"http://hl7.org/fhir/sid/us-npi","value":"123456"}],"name":[{"family":"Evil","prefix":["Dr"]}]},"request":{"method":"PUT","url":"Practitioner/2b1722be-459e-439a-b32b-0b7d17aa5dc5"}},{"fullUrl":"https://madie.cms.gov/MeasureReport/a466d7f5-5bcc-4511-b953-d7e56af8d83c","resource":{"resourceType":"MeasureReport","id":"a466d7f5-5bcc-4511-b953-d7e56af8d83c","meta":{"profile":["http://hl7.org/fhir/us/cqfmeasures/StructureDefinition/test-case-cqfm"]},"contained":[{"resourceType":"Parameters","id":"53b12bcd-5447-4748-a3de-ff329fb98ed5-parameters","parameter":[{"name":"subject","valueString":"e329c762-8076-4006-9d9d-e5c1d6132d97"}]}],"extension":[{"url":"http://hl7.org/fhir/us/cqfmeasures/StructureDefinition/cqfm-inputParameters","valueReference":{"reference":"#53b12bcd-5447-4748-a3de-ff329fb98ed5-parameters"}},{"url":"http://hl7.org/fhir/us/cqfmeasures/StructureDefinition/cqfm-testCaseDescription","valueMarkdown":"Patient has two encounters, one which falls after the measurement period. No HIV viral load test."}],"modifierExtension":[{"url":"http://hl7.org/fhir/us/cqfmeasures/StructureDefinition/cqfm-isTestCase","valueBoolean":true}],"status":"complete","type":"individual","measure":"https://madie.cms.gov/Measure/HIVRetentionFHIR","period":{"start":"2025-01-01","end":"2025-12-31"},"group":[{"population":[{"code":{"coding":[{"system":"http://terminology.hl7.org/CodeSystem/measure-population","code":"initial-population","display":"Initial Population"}]},"count":1},{"code":{"coding":[{"system":"http://terminology.hl7.org/CodeSystem/measure-population","code":"denominator","display":"Denominator"}]},"count":1},{"code":{"coding":[{"system":"http://terminology.hl7.org/CodeSystem/measure-population","code":"numerator","display":"Numerator"}]},"count":0}]}]},"request":{"method":"PUT","url":"MeasureReport/a466d7f5-5bcc-4511-b953-d7e56af8d83c"}}]}