{
  "resourceType": "Bundle",
  "id": "6129131d02c62a011f2e5d35",
  "type": "transaction",
  "entry": [ {
    "fullUrl": "https://madie.cms.gov/Patient/88c4fed3-bef0-450a-b9ff-d736d4568838",
    "resource": {
      "resourceType": "Patient",
      "id": "88c4fed3-bef0-450a-b9ff-d736d4568838",
      "meta": {
        "profile": [ "http://hl7.org/fhir/us/qicore/StructureDefinition/qicore-patient" ]
      },
      "text": {
        "status": "generated",
        "div": "<div xmlns=\"http://www.w3.org/1999/xhtml\"><div class=\"hapiHeaderText\">PrincDxIsIschemicStk <b>IPPASS </b></div><table class=\"hapiPropertyTable\"><tbody><tr><td>Identifier</td><td>2c3c10ba2a2d77bc6e8e12b35ac2acc7</td></tr><tr><td>Date of birth</td><td><span>21 August 1994</span></td></tr></tbody></table></div>"
      },
      "extension": [ {
        "url": "http://hl7.org/fhir/us/core/StructureDefinition/us-core-race",
        "extension": [ {
          "url": "ombCategory",
          "valueCoding": {
            "system": "urn:oid:2.16.840.1.113883.6.238",
            "code": "1002-5",
            "display": "American Indian or Alaska Native",
            "userSelected": true
          }
        }, {
          "url": "text",
          "valueString": "American Indian or Alaska Native"
        } ]
      }, {
        "url": "http://hl7.org/fhir/us/core/StructureDefinition/us-core-ethnicity",
        "extension": [ {
          "url": "ombCategory",
          "valueCoding": {
            "system": "urn:oid:2.16.840.1.113883.6.238",
            "code": "2135-2",
            "display": "Hispanic or Latino",
            "userSelected": true
          }
        }, {
          "url": "text",
          "valueString": "Hispanic or Latino"
        } ]
      } ],
      "identifier": [ {
        "type": {
          "coding": [ {
            "system": "http://terminology.hl7.org/CodeSystem/v2-0203",
            "code": "MR"
          } ]
        },
        "system": "https://bonnie-fhir.healthit.gov/",
        "value": "6129131d02c62a011f2e5d35"
      } ],
      "active": true,
      "name": [ {
        "use": "usual",
        "family": "IPPass",
        "given": [ "PrincDxIsIschemicStk" ]
      } ],
      "gender": "male",
      "birthDate": "2004-08-21"
    },
    "request": {
      "method": "PUT",
      "url": "Patient/88c4fed3-bef0-450a-b9ff-d736d4568838"
    }
  }, {
    "fullUrl": "https://madie.cms.gov/Encounter/9b3b7589-ac9e-44ba-9447-6e05786d5f95",
    "resource": {
      "resourceType": "Encounter",
      "id": "9b3b7589-ac9e-44ba-9447-6e05786d5f95",
      "meta": {
        "profile": [ "http://hl7.org/fhir/us/qicore/StructureDefinition/qicore-encounter" ]
      },
      "status": "finished",
      "class": {
        "system": "http://terminology.hl7.org/CodeSystem/v3-ActCode",
        "code": "IMP",
        "display": "inpatient encounter",
        "userSelected": true
      },
      "type": [ {
        "coding": [ {
          "system": "http://snomed.info/sct",
          "code": "32485007"
        } ]
      } ],
      "subject": {
        "reference": "Patient/88c4fed3-bef0-450a-b9ff-d736d4568838"
      },
      "period": {
        "start": "2026-08-21T08:00:00.000+00:00",
        "end": "2026-12-19T08:15:00.000+00:00"
      },
      "length": {
        "value": 120,
        "unit": "days"
      },
      "diagnosis": [ {
        "condition": {
          "reference": "Condition/b5172b56-27c2-442d-9b2b-8a1858e51eae"
        },
        "use": {
          "coding": [ {
            "system": "http://terminology.hl7.org/CodeSystem/diagnosis-role",
            "code": "billing",
            "display": "Billing"
          } ]
        },
        "rank": 1
      } ]
    },
    "request": {
      "method": "PUT",
      "url": "Encounter/9b3b7589-ac9e-44ba-9447-6e05786d5f95"
    }
  }, {
    "fullUrl": "https://madie.cms.gov/Condition/b5172b56-27c2-442d-9b2b-8a1858e51eae",
    "resource": {
      "resourceType": "Condition",
      "id": "b5172b56-27c2-442d-9b2b-8a1858e51eae",
      "meta": {
        "profile": [ "http://hl7.org/fhir/us/qicore/StructureDefinition/qicore-condition" ]
      },
      "clinicalStatus": {
        "coding": [ {
          "system": "http://terminology.hl7.org/CodeSystem/condition-clinical",
          "code": "active"
        } ]
      },
      "verificationStatus": {
        "coding": [ {
          "system": "http://terminology.hl7.org/CodeSystem/condition-ver-status",
          "code": "confirmed"
        } ]
      },
      "category": [ {
        "coding": [ {
          "system": "http://terminology.hl7.org/CodeSystem/condition-category",
          "code": "encounter-diagnosis",
          "display": "Encounter Diagnosis"
        } ]
      } ],
      "code": {
        "coding": [ {
          "system": "http://snomed.info/sct",
          "version": "2020-09",
          "code": "111297002",
          "display": "Nonparalytic stroke (disorder)",
          "userSelected": true
        } ]
      },
      "subject": {
        "reference": "Patient/88c4fed3-bef0-450a-b9ff-d736d4568838"
      },
      "recordedDate": "2026-07-15T08:00:00.000+00:00"
    },
    "request": {
      "method": "PUT",
      "url": "Condition/b5172b56-27c2-442d-9b2b-8a1858e51eae"
    }
  }, {
    "fullUrl": "https://madie.cms.gov/Coverage/d03c3bb5-37f8-47cd-8b53-6bc8becd2e79",
    "resource": {
      "resourceType": "Coverage",
      "id": "d03c3bb5-37f8-47cd-8b53-6bc8becd2e79",
      "meta": {
        "profile": [ "http://hl7.org/fhir/us/qicore/StructureDefinition/qicore-coverage" ]
      },
      "status": "active",
      "beneficiary": {
        "reference": "Patient/88c4fed3-bef0-450a-b9ff-d736d4568838"
      },
      "payor": [ {
        "reference": "Organization/ce2c1a8e-bf6c-4a3a-93a1-e40675f83b9e"
      } ]
    },
    "request": {
      "method": "PUT",
      "url": "Coverage/d03c3bb5-37f8-47cd-8b53-6bc8becd2e79"
    }
  }, {
    "fullUrl": "https://madie.cms.gov/Organization/ce2c1a8e-bf6c-4a3a-93a1-e40675f83b9e",
    "resource": {
      "resourceType": "Organization",
      "id": "ce2c1a8e-bf6c-4a3a-93a1-e40675f83b9e",
      "meta": {
        "profile": [ "http://hl7.org/fhir/us/qicore/StructureDefinition/qicore-organization" ]
      },
      "identifier": [ {
        "use": "temp",
        "system": "urn:oid:2.16.840.1.113883.4.4",
        "value": "21-3259825"
      } ],
      "active": true,
      "type": [ {
        "coding": [ {
          "system": "http://terminology.hl7.org/CodeSystem/organization-type",
          "code": "pay",
          "display": "Payer"
        } ]
      } ],
      "name": "Blue Cross Blue Shield of Texas",
      "telecom": [ {
        "system": "phone",
        "value": "(+1) 972-766-6900"
      } ],
      "address": [ {
        "use": "billing",
        "type": "postal",
        "line": [ "P.O. Box 660044" ],
        "city": "Dallas",
        "state": "TX",
        "postalCode": "75266-0044",
        "country": "USA"
      } ]
    },
    "request": {
      "method": "PUT",
      "url": "Organization/ce2c1a8e-bf6c-4a3a-93a1-e40675f83b9e"
    }
  }, {
    "fullUrl": "https://madie.cms.gov/MeasureReport/5dc52cb0-5766-48ae-8236-6ce10f2f4e4b",
    "resource": {
      "resourceType": "MeasureReport",
      "id": "5dc52cb0-5766-48ae-8236-6ce10f2f4e4b",
      "meta": {
        "profile": [ "http://hl7.org/fhir/us/cqfmeasures/StructureDefinition/test-case-cqfm" ]
      },
      "contained": [ {
        "resourceType": "Parameters",
        "id": "d2dd93fe-105a-47ab-8e30-4306ac0de040-parameters",
        "parameter": [ {
          "name": "subject",
          "valueString": "88c4fed3-bef0-450a-b9ff-d736d4568838"
        } ]
      } ],
      "extension": [ {
        "url": "http://hl7.org/fhir/us/cqfmeasures/StructureDefinition/cqfm-inputParameters",
        "valueReference": {
          "reference": "#d2dd93fe-105a-47ab-8e30-4306ac0de040-parameters"
        }
      }, {
        "url": "http://hl7.org/fhir/us/cqfmeasures/StructureDefinition/cqfm-testCaseDescription",
        "valueMarkdown": "Patient is 18 with Non-Elective Inpatient Encounter (LOS 120 days) with principal diagnosis of ischemic stroke ends during MP\n"
      } ],
      "modifierExtension": [ {
        "url": "http://hl7.org/fhir/us/cqfmeasures/StructureDefinition/cqfm-isTestCase",
        "valueBoolean": true
      } ],
      "status": "complete",
      "type": "individual",
      "measure": "https://madie.cms.gov/Measure/CMS104FHIRSTKDCAntithrombotic",
      "period": {
        "start": "2026-01-01",
        "end": "2026-12-31"
      },
      "group": [ {
        "population": [ {
          "code": {
            "coding": [ {
              "system": "http://terminology.hl7.org/CodeSystem/measure-population",
              "code": "initial-population",
              "display": "Initial Population"
            } ]
          },
          "count": 1
        }, {
          "code": {
            "coding": [ {
              "system": "http://terminology.hl7.org/CodeSystem/measure-population",
              "code": "denominator",
              "display": "Denominator"
            } ]
          },
          "count": 1
        }, {
          "code": {
            "coding": [ {
              "system": "http://terminology.hl7.org/CodeSystem/measure-population",
              "code": "denominator-exclusion",
              "display": "Denominator Exclusion"
            } ]
          },
          "count": 0
        }, {
          "code": {
            "coding": [ {
              "system": "http://terminology.hl7.org/CodeSystem/measure-population",
              "code": "numerator",
              "display": "Numerator"
            } ]
          },
          "count": 0
        }, {
          "code": {
            "coding": [ {
              "system": "http://terminology.hl7.org/CodeSystem/measure-population",
              "code": "denominator-exception",
              "display": "Denominator Exception"
            } ]
          },
          "count": 0
        } ]
      } ],
      "evaluatedResource": [ {
        "reference": "Patient/88c4fed3-bef0-450a-b9ff-d736d4568838"
      }, {
        "reference": "Encounter/9b3b7589-ac9e-44ba-9447-6e05786d5f95"
      }, {
        "reference": "Condition/b5172b56-27c2-442d-9b2b-8a1858e51eae"
      }, {
        "reference": "Coverage/d03c3bb5-37f8-47cd-8b53-6bc8becd2e79"
      }, {
        "reference": "Organization/ce2c1a8e-bf6c-4a3a-93a1-e40675f83b9e"
      } ]
    },
    "request": {
      "method": "PUT",
      "url": "MeasureReport/5dc52cb0-5766-48ae-8236-6ce10f2f4e4b"
    }
  } ]
}