{"resourceType":"Bundle","id":"tests-8eca4ab8-49f0-45e4-b1ee-dc34e54dd430-bundle","type":"transaction","entry":[{"fullUrl":"https://madie.cms.gov/Patient/8eca4ab8-49f0-45e4-b1ee-dc34e54dd430","resource":{"resourceType":"Patient","id":"8eca4ab8-49f0-45e4-b1ee-dc34e54dd430","meta":{"profile":["http://hl7.org/fhir/us/qicore/StructureDefinition/qicore-patient"]},"text":{"status":"generated","div":"<div xmlns=\"http://www.w3.org/1999/xhtml\"><div class=\"hapiHeaderText\">LabTestLT40 <b>NUMERPASS </b></div><table class=\"hapiPropertyTable\"><tbody><tr><td>Identifier</td><td>586d4a6e02bdc77ad4ccc45b11df2e6217c10e5956f9696833b6e57a5da29f4d</td></tr><tr><td>Date of birth</td><td><span>31 July 1992</span></td></tr></tbody></table></div>"},"extension":[{"url":"http://hl7.org/fhir/us/core/StructureDefinition/us-core-race","extension":[{"url":"ombCategory","valueCoding":{"system":"urn:oid:2.16.840.1.113883.6.238","code":"1002-5","display":"American Indian or Alaska Native","userSelected":true}},{"url":"text","valueString":"American Indian or Alaska Native"}]},{"url":"http://hl7.org/fhir/us/core/StructureDefinition/us-core-ethnicity","extension":[{"url":"ombCategory","valueCoding":{"system":"urn:oid:2.16.840.1.113883.6.238","code":"2135-2","display":"Hispanic or Latino","userSelected":true}},{"url":"text","valueString":"Hispanic or Latino"}]}],"identifier":[{"type":{"coding":[{"system":"http://terminology.hl7.org/CodeSystem/v2-0203","code":"MR"}]},"system":"https://bonnie-fhir.healthit.gov/","value":"61152a3b98086b7a79cbd7c1"}],"active":true,"name":[{"use":"usual","family":"NUMERPass","given":["LabTestLT40"]}],"gender":"female","birthDate":"1992-07-31"},"request":{"method":"PUT","url":"Patient/8eca4ab8-49f0-45e4-b1ee-dc34e54dd430"}},{"fullUrl":"https://madie.cms.gov/Coverage/Coverage-1","resource":{"resourceType":"Coverage","id":"55cfaa4b-b4bb-4637-b9df-61bf35dfccc6","meta":{"profile":["http://hl7.org/fhir/us/qicore/StructureDefinition/qicore-coverage"]},"identifier":[{"system":"http://benefitsinc.com/certificate","value":"12345"}],"status":"active","type":{"coding":[{"system":"https://nahdo.org/sopt","code":"59","display":"Other Private Insurance"}]},"policyHolder":{"reference":"Patient/8eca4ab8-49f0-45e4-b1ee-dc34e54dd430"},"subscriber":{"reference":"Patient/8eca4ab8-49f0-45e4-b1ee-dc34e54dd430"},"beneficiary":{"reference":"Patient/8eca4ab8-49f0-45e4-b1ee-dc34e54dd430"},"dependent":"0","relationship":{"coding":[{"system":"http://terminology.hl7.org/CodeSystem/subscriber-relationship","code":"self"}]},"period":{"start":"2025-01-01T08:00:00+00:00","end":"2025-12-31T08:00:00+00:00"},"payor":[{"reference":"Organization/41c75c00-82d9-4ab2-98f6-cfaf7fc3381d"}],"order":9},"request":{"method":"PUT","url":"Coverage/55cfaa4b-b4bb-4637-b9df-61bf35dfccc6"}},{"fullUrl":"https://madie.cms.gov/Encounter/5bfc28feb8484648d6d7523b","resource":{"resourceType":"Encounter","id":"7f6cbc29-bbaa-4f1d-b79b-c5cafc1ea8e6","meta":{"profile":["http://hl7.org/fhir/us/qicore/StructureDefinition/qicore-encounter"]},"status":"finished","class":{"system":"http://terminology.hl7.org/CodeSystem/v3-ActCode","code":"IMP","display":"inpatient encounter"},"type":[{"coding":[{"system":"http://snomed.info/sct","code":"183452005"}]}],"subject":{"reference":"Patient/8eca4ab8-49f0-45e4-b1ee-dc34e54dd430"},"period":{"start":"2025-07-11T08:00:00+00:00","end":"2025-07-15T21:00:00+00:00"},"length":{"value":0.0,"unit":"days"}},"request":{"method":"PUT","url":"Encounter/7f6cbc29-bbaa-4f1d-b79b-c5cafc1ea8e6"}},{"fullUrl":"https://madie.cms.gov/MedicationAdministration/60130f0378b8e50000642ab8","resource":{"resourceType":"MedicationAdministration","id":"f45c57b6-d4ac-4c80-9975-1e6d246f872d","meta":{"profile":["http://hl7.org/fhir/us/qicore/StructureDefinition/qicore-medicationadministration"]},"status":"completed","medicationCodeableConcept":{"coding":[{"system":"http://www.nlm.nih.gov/research/umls/rxnorm","code":"1361493","display":"glimepiride 6 MG Oral Tablet","userSelected":true}]},"subject":{"reference":"Patient/8eca4ab8-49f0-45e4-b1ee-dc34e54dd430"},"effectivePeriod":{"start":"2025-07-11T08:00:00+00:00","end":"2025-07-11T09:00:00+00:00"}},"request":{"method":"PUT","url":"MedicationAdministration/f45c57b6-d4ac-4c80-9975-1e6d246f872d"}},{"fullUrl":"https://madie.cms.gov/Observation/glucose-lab-test-mass-per-volume-22f7","resource":{"resourceType":"Observation","id":"51067fe1-56ab-4b1f-b076-3eadbd18fa89","meta":{"profile":["http://hl7.org/fhir/us/qicore/StructureDefinition/qicore-observation"]},"status":"final","category":[{"coding":[{"system":"http://terminology.hl7.org/CodeSystem/observation-category","code":"laboratory","display":"Laboratory"}]}],"code":{"coding":[{"system":"http://loinc.org","version":"2.72","code":"1556-0","display":"Fasting glucose [Mass/volume] in Capillary blood","userSelected":true}]},"subject":{"reference":"Patient/8eca4ab8-49f0-45e4-b1ee-dc34e54dd430"},"effectiveDateTime":"2025-07-12T07:00:00.000+00:00","valueQuantity":{"value":39.0,"unit":"mg/dL"}},"request":{"method":"PUT","url":"Observation/51067fe1-56ab-4b1f-b076-3eadbd18fa89"}},{"fullUrl":"https://madie.cms.gov/MeasureReport/704dee40-f768-42f1-8b13-85913b3a9351","resource":{"resourceType":"MeasureReport","id":"704dee40-f768-42f1-8b13-85913b3a9351","meta":{"profile":["http://hl7.org/fhir/us/cqfmeasures/StructureDefinition/test-case-cqfm"]},"contained":[{"resourceType":"Parameters","id":"2c75daae-7f1b-4338-89ce-697fdab0a4b0-parameters","parameter":[{"name":"subject","valueString":"8eca4ab8-49f0-45e4-b1ee-dc34e54dd430"}]}],"extension":[{"url":"http://hl7.org/fhir/us/cqfmeasures/StructureDefinition/cqfm-inputParameters","valueReference":{"reference":"#2c75daae-7f1b-4338-89ce-697fdab0a4b0-parameters"}},{"url":"http://hl7.org/fhir/us/cqfmeasures/StructureDefinition/cqfm-testCaseDescription","valueMarkdown":"IP encounter, hypoglycemic administered, 1 glucose lab test with result LT 40. Meets Numerator."}],"modifierExtension":[{"url":"http://hl7.org/fhir/us/cqfmeasures/StructureDefinition/cqfm-isTestCase","valueBoolean":true}],"status":"complete","type":"individual","measure":"https://madie.cms.gov/Measure/HospitalHarmSevereHypoglycemiaFHIR","period":{"start":"2025-01-01","end":"2025-12-31"},"group":[{"population":[{"code":{"coding":[{"system":"http://terminology.hl7.org/CodeSystem/measure-population","code":"initial-population","display":"Initial Population"}]},"count":1},{"code":{"coding":[{"system":"http://terminology.hl7.org/CodeSystem/measure-population","code":"denominator","display":"Denominator"}]},"count":1},{"code":{"coding":[{"system":"http://terminology.hl7.org/CodeSystem/measure-population","code":"numerator","display":"Numerator"}]},"count":1}]}]},"request":{"method":"PUT","url":"MeasureReport/704dee40-f768-42f1-8b13-85913b3a9351"}}]}