{"resourceType":"Bundle","id":"tests-8eca4ab8-49f0-45e4-b1ee-dc34e54dd430-bundle","type":"transaction","entry":[{"fullUrl":"https://madie.cms.gov/Patient/8eca4ab8-49f0-45e4-b1ee-dc34e54dd430","resource":{"resourceType":"Patient","id":"8eca4ab8-49f0-45e4-b1ee-dc34e54dd430","meta":{"profile":["http://hl7.org/fhir/us/qicore/StructureDefinition/qicore-patient"]},"text":{"status":"generated","div":"<div xmlns=\"http://www.w3.org/1999/xhtml\"><div class=\"hapiHeaderText\">LabTestLT40 <b>NUMERPASS </b></div><table class=\"hapiPropertyTable\"><tbody><tr><td>Identifier</td><td>586d4a6e02bdc77ad4ccc45b11df2e6217c10e5956f9696833b6e57a5da29f4d</td></tr><tr><td>Date of birth</td><td><span>31 July 1992</span></td></tr></tbody></table></div>"},"extension":[{"url":"http://hl7.org/fhir/us/core/StructureDefinition/us-core-race","extension":[{"url":"ombCategory","valueCoding":{"system":"urn:oid:2.16.840.1.113883.6.238","code":"1002-5","display":"American Indian or Alaska Native","userSelected":true}},{"url":"text","valueString":"American Indian or Alaska Native"}]},{"url":"http://hl7.org/fhir/us/core/StructureDefinition/us-core-ethnicity","extension":[{"url":"ombCategory","valueCoding":{"system":"urn:oid:2.16.840.1.113883.6.238","code":"2135-2","display":"Hispanic or Latino","userSelected":true}},{"url":"text","valueString":"Hispanic or Latino"}]}],"identifier":[{"type":{"coding":[{"system":"http://terminology.hl7.org/CodeSystem/v2-0203","code":"MR"}]},"system":"https://bonnie-fhir.healthit.gov/","value":"61152a3b98086b7a79cbd7c1"}],"active":true,"name":[{"use":"usual","family":"NUMERPass","given":["LabTestLT40"]}],"gender":"female","birthDate":"1993-07-31"},"request":{"method":"PUT","url":"Patient/8eca4ab8-49f0-45e4-b1ee-dc34e54dd430"}},{"fullUrl":"https://madie.cms.gov/Coverage/9615145f-d1a7-459c-bdad-280f9913688a","resource":{"resourceType":"Coverage","id":"9615145f-d1a7-459c-bdad-280f9913688a","meta":{"profile":["http://hl7.org/fhir/us/qicore/StructureDefinition/qicore-coverage"]},"identifier":[{"system":"http://benefitsinc.com/certificate","value":"12345"}],"status":"active","type":{"coding":[{"system":"https://nahdo.org/sopt","code":"59","display":"Other Private Insurance"}]},"policyHolder":{"reference":"Patient/8eca4ab8-49f0-45e4-b1ee-dc34e54dd430"},"subscriber":{"reference":"Patient/8eca4ab8-49f0-45e4-b1ee-dc34e54dd430"},"beneficiary":{"reference":"Patient/8eca4ab8-49f0-45e4-b1ee-dc34e54dd430"},"dependent":"0","relationship":{"coding":[{"system":"http://terminology.hl7.org/CodeSystem/subscriber-relationship","code":"self"}]},"period":{"start":"2026-01-01T08:00:00+00:00","end":"2026-12-31T08:00:00+00:00"},"payor":[{"reference":"Organization/890316dc-a4ad-43b4-ba6f-9fb9e6eca282"}],"order":9},"request":{"method":"PUT","url":"Coverage/9615145f-d1a7-459c-bdad-280f9913688a"}},{"fullUrl":"https://madie.cms.gov/Encounter/f67bdeb4-3e84-44b4-9437-adb004a8da39","resource":{"resourceType":"Encounter","id":"f67bdeb4-3e84-44b4-9437-adb004a8da39","meta":{"profile":["http://hl7.org/fhir/us/qicore/StructureDefinition/qicore-encounter"]},"status":"finished","class":{"system":"http://terminology.hl7.org/CodeSystem/v3-ActCode","code":"IMP","display":"inpatient encounter"},"type":[{"coding":[{"system":"http://snomed.info/sct","code":"183452005"}]}],"subject":{"reference":"Patient/8eca4ab8-49f0-45e4-b1ee-dc34e54dd430"},"period":{"start":"2026-07-11T08:00:00+00:00","end":"2026-07-15T21:00:00+00:00"},"length":{"value":0.0,"unit":"days"}},"request":{"method":"PUT","url":"Encounter/f67bdeb4-3e84-44b4-9437-adb004a8da39"}},{"fullUrl":"https://madie.cms.gov/MedicationAdministration/2838f79c-58fb-472a-a7f9-e8d4d7c6180c","resource":{"resourceType":"MedicationAdministration","id":"2838f79c-58fb-472a-a7f9-e8d4d7c6180c","meta":{"profile":["http://hl7.org/fhir/us/qicore/StructureDefinition/qicore-medicationadministration"]},"status":"completed","medicationCodeableConcept":{"coding":[{"system":"http://www.nlm.nih.gov/research/umls/rxnorm","code":"1361493","display":"glimepiride 6 MG Oral Tablet","userSelected":true}]},"subject":{"reference":"Patient/8eca4ab8-49f0-45e4-b1ee-dc34e54dd430"},"effectivePeriod":{"start":"2026-07-11T08:00:00+00:00","end":"2026-07-11T09:00:00+00:00"}},"request":{"method":"PUT","url":"MedicationAdministration/2838f79c-58fb-472a-a7f9-e8d4d7c6180c"}},{"fullUrl":"https://madie.cms.gov/Observation/863e07f1-5df4-4d89-b23c-96ac76433e0e","resource":{"resourceType":"Observation","id":"863e07f1-5df4-4d89-b23c-96ac76433e0e","meta":{"profile":["http://hl7.org/fhir/us/qicore/StructureDefinition/qicore-observation"]},"status":"final","category":[{"coding":[{"system":"http://terminology.hl7.org/CodeSystem/observation-category","code":"laboratory","display":"Laboratory"}]}],"code":{"coding":[{"system":"http://loinc.org","version":"2.72","code":"1556-0","display":"Fasting glucose [Mass/volume] in Capillary blood","userSelected":true}]},"subject":{"reference":"Patient/8eca4ab8-49f0-45e4-b1ee-dc34e54dd430"},"effectiveDateTime":"2026-07-12T07:00:00.000+00:00","valueQuantity":{"value":39.0,"unit":"mg/dL"}},"request":{"method":"PUT","url":"Observation/863e07f1-5df4-4d89-b23c-96ac76433e0e"}},{"fullUrl":"https://madie.cms.gov/MeasureReport/6f4f6c74-37c7-4438-bc21-99e506192484","resource":{"resourceType":"MeasureReport","id":"6f4f6c74-37c7-4438-bc21-99e506192484","meta":{"profile":["http://hl7.org/fhir/us/cqfmeasures/StructureDefinition/test-case-cqfm"]},"contained":[{"resourceType":"Parameters","id":"1dccefc3-c6cd-4e8b-b5aa-21b4c21f1225-parameters","parameter":[{"name":"subject","valueString":"8eca4ab8-49f0-45e4-b1ee-dc34e54dd430"}]}],"extension":[{"url":"http://hl7.org/fhir/us/cqfmeasures/StructureDefinition/cqfm-inputParameters","valueReference":{"reference":"#1dccefc3-c6cd-4e8b-b5aa-21b4c21f1225-parameters"}},{"url":"http://hl7.org/fhir/us/cqfmeasures/StructureDefinition/cqfm-testCaseDescription","valueMarkdown":"IP encounter, hypoglycemic administered, 1 glucose lab test with result LT 40. Meets Numerator."}],"modifierExtension":[{"url":"http://hl7.org/fhir/us/cqfmeasures/StructureDefinition/cqfm-isTestCase","valueBoolean":true}],"status":"complete","type":"individual","measure":"https://madie.cms.gov/Measure/HospitalHarmSevereHypoglycemiaFHIR","period":{"start":"2026-01-01","end":"2026-12-31"},"group":[{"population":[{"code":{"coding":[{"system":"http://terminology.hl7.org/CodeSystem/measure-population","code":"initial-population","display":"Initial Population"}]},"count":1},{"code":{"coding":[{"system":"http://terminology.hl7.org/CodeSystem/measure-population","code":"denominator","display":"Denominator"}]},"count":1},{"code":{"coding":[{"system":"http://terminology.hl7.org/CodeSystem/measure-population","code":"numerator","display":"Numerator"}]},"count":1}]}]},"request":{"method":"PUT","url":"MeasureReport/6f4f6c74-37c7-4438-bc21-99e506192484"}}]}