{
  "resourceType": "Bundle",
  "id": "6359776b6aee9629c8298235",
  "type": "transaction",
  "entry": [ {
    "fullUrl": "https://madie.cms.gov/Patient/cfed70be-9e5a-42f2-822d-133e3e970c3b",
    "resource": {
      "resourceType": "Patient",
      "id": "cfed70be-9e5a-42f2-822d-133e3e970c3b",
      "meta": {
        "profile": [ "http://hl7.org/fhir/us/qicore/StructureDefinition/qicore-patient" ]
      },
      "text": {
        "status": "generated",
        "div": "<div xmlns=\"http://www.w3.org/1999/xhtml\"><div class=\"hapiHeaderText\">RISKWBCRsltDtTimeEQDelStart <b>RISKFail </b></div><table class=\"hapiPropertyTable\"><tbody><tr><td>Date of birth</td><td><span>01 February 2004</span></td></tr></tbody></table></div>"
      },
      "extension": [ {
        "url": "http://hl7.org/fhir/us/core/StructureDefinition/us-core-race",
        "extension": [ {
          "url": "ombCategory",
          "valueCoding": {
            "system": "urn:oid:2.16.840.1.113883.6.238",
            "code": "1002-5",
            "display": "American Indian or Alaska Native",
            "userSelected": true
          }
        }, {
          "url": "text",
          "valueString": "American Indian or Alaska Native"
        } ]
      }, {
        "url": "http://hl7.org/fhir/us/core/StructureDefinition/us-core-ethnicity",
        "extension": [ {
          "url": "ombCategory",
          "valueCoding": {
            "system": "urn:oid:2.16.840.1.113883.6.238",
            "code": "2135-2",
            "display": "Hispanic or Latino",
            "userSelected": true
          }
        }, {
          "url": "text",
          "valueString": "Hispanic or Latino"
        } ]
      } ],
      "identifier": [ {
        "type": {
          "coding": [ {
            "system": "http://terminology.hl7.org/CodeSystem/v2-0203",
            "code": "MR"
          } ]
        },
        "system": "https://bonnie-fhir.healthit.gov/",
        "value": "6359776b6aee9629c8298235"
      } ],
      "active": true,
      "name": [ {
        "use": "usual",
        "family": "RiskFail",
        "given": [ "RISKWBCRsltDtTimeEQDelStart" ]
      } ],
      "gender": "female",
      "birthDate": "2004-02-01"
    },
    "request": {
      "method": "PUT",
      "url": "Patient/cfed70be-9e5a-42f2-822d-133e3e970c3b"
    }
  }, {
    "fullUrl": "https://madie.cms.gov/Observation/46fb85a3-dac4-4390-9f26-a42694fbd851",
    "resource": {
      "resourceType": "Observation",
      "id": "46fb85a3-dac4-4390-9f26-a42694fbd851",
      "meta": {
        "profile": [ "http://hl7.org/fhir/us/qicore/StructureDefinition/qicore-observation" ]
      },
      "status": "final",
      "category": [ {
        "coding": [ {
          "system": "http://terminology.hl7.org/CodeSystem/observation-category",
          "code": "exam",
          "display": "exam",
          "userSelected": true
        } ]
      } ],
      "code": {
        "coding": [ {
          "system": "http://loinc.org",
          "code": "93857-1"
        } ]
      },
      "subject": {
        "reference": "Patient/cfed70be-9e5a-42f2-822d-133e3e970c3b"
      },
      "effectiveDateTime": "2025-02-01T08:15:00.000+00:00",
      "valueDateTime": "2025-02-01T08:15:00+00:00"
    },
    "request": {
      "method": "PUT",
      "url": "Observation/46fb85a3-dac4-4390-9f26-a42694fbd851"
    }
  }, {
    "fullUrl": "https://madie.cms.gov/Observation/3ed1ffb7-1666-48b5-8b5c-8c9bfa45a8a5",
    "resource": {
      "resourceType": "Observation",
      "id": "3ed1ffb7-1666-48b5-8b5c-8c9bfa45a8a5",
      "meta": {
        "profile": [ "http://hl7.org/fhir/us/qicore/StructureDefinition/qicore-observation" ]
      },
      "status": "final",
      "category": [ {
        "coding": [ {
          "system": "http://terminology.hl7.org/CodeSystem/observation-category",
          "code": "exam",
          "display": "exam",
          "userSelected": true
        } ]
      } ],
      "code": {
        "coding": [ {
          "system": "http://loinc.org",
          "code": "11884-4"
        } ]
      },
      "subject": {
        "reference": "Patient/cfed70be-9e5a-42f2-822d-133e3e970c3b"
      },
      "effectiveDateTime": "2025-02-01T08:00:00.000+00:00",
      "valueQuantity": {
        "value": 21,
        "system": "http://unitsofmeasure.org",
        "code": "wk"
      }
    },
    "request": {
      "method": "PUT",
      "url": "Observation/3ed1ffb7-1666-48b5-8b5c-8c9bfa45a8a5"
    }
  }, {
    "fullUrl": "https://madie.cms.gov/Encounter/296987b1-8c6e-4be2-bb78-ecf5c1dffcf0",
    "resource": {
      "resourceType": "Encounter",
      "id": "296987b1-8c6e-4be2-bb78-ecf5c1dffcf0",
      "meta": {
        "profile": [ "http://hl7.org/fhir/us/qicore/StructureDefinition/qicore-encounter" ]
      },
      "status": "finished",
      "class": {
        "system": "http://terminology.hl7.org/CodeSystem/v3-ActCode",
        "code": "IMP",
        "display": "inpatient encounter"
      },
      "type": [ {
        "coding": [ {
          "system": "http://snomed.info/sct",
          "code": "183452005"
        } ]
      } ],
      "subject": {
        "reference": "Patient/cfed70be-9e5a-42f2-822d-133e3e970c3b"
      },
      "period": {
        "start": "2025-02-01T08:00:00.000Z",
        "end": "2025-02-05T08:15:00.000Z"
      }
    },
    "request": {
      "method": "PUT",
      "url": "Encounter/296987b1-8c6e-4be2-bb78-ecf5c1dffcf0"
    }
  }, {
    "fullUrl": "https://madie.cms.gov/Encounter/fa24085b-1c00-44fb-a0b9-5213099d7292",
    "resource": {
      "resourceType": "Encounter",
      "id": "fa24085b-1c00-44fb-a0b9-5213099d7292",
      "meta": {
        "profile": [ "http://hl7.org/fhir/us/qicore/StructureDefinition/qicore-encounter" ]
      },
      "status": "finished",
      "class": {
        "system": "http://terminology.hl7.org/CodeSystem/v3-ActCode",
        "code": "EMER",
        "display": "emergency"
      },
      "type": [ {
        "coding": [ {
          "system": "http://snomed.info/sct",
          "code": "4525004"
        } ]
      } ],
      "subject": {
        "reference": "Patient/cfed70be-9e5a-42f2-822d-133e3e970c3b"
      },
      "period": {
        "start": "2025-02-01T07:00:00.000Z",
        "end": "2025-02-01T07:59:00.000Z"
      }
    },
    "request": {
      "method": "PUT",
      "url": "Encounter/fa24085b-1c00-44fb-a0b9-5213099d7292"
    }
  }, {
    "fullUrl": "https://madie.cms.gov/Observation/b655157f-d20b-446f-b707-e6baeebaef99",
    "resource": {
      "resourceType": "Observation",
      "id": "b655157f-d20b-446f-b707-e6baeebaef99",
      "meta": {
        "profile": [ "http://hl7.org/fhir/us/core/StructureDefinition/us-core-observation-lab" ]
      },
      "status": "final",
      "category": [ {
        "coding": [ {
          "system": "http://terminology.hl7.org/CodeSystem/observation-category",
          "code": "laboratory",
          "display": "laboratory",
          "userSelected": true
        } ]
      } ],
      "code": {
        "coding": [ {
          "system": "http://loinc.org",
          "version": "2.73",
          "code": "26464-8",
          "display": "Leukocytes [#/volume] in Blood",
          "userSelected": true
        } ]
      },
      "subject": {
        "reference": "Patient/cfed70be-9e5a-42f2-822d-133e3e970c3b"
      },
      "effectiveDateTime": "2025-02-01T08:00:00.000+00:00",
      "issued": "2025-02-01T08:00:00.000+00:00",
      "valueQuantity": {
        "unit": "10*3/u"
      }
    },
    "request": {
      "method": "PUT",
      "url": "Observation/b655157f-d20b-446f-b707-e6baeebaef99"
    }
  }, {
    "fullUrl": "https://madie.cms.gov/Procedure/8f17f522-479b-4593-9257-5173a8ef2cce",
    "resource": {
      "resourceType": "Procedure",
      "id": "8f17f522-479b-4593-9257-5173a8ef2cce",
      "meta": {
        "profile": [ "http://hl7.org/fhir/us/qicore/StructureDefinition/qicore-procedure" ]
      },
      "extension": [ {
        "url": "http://hl7.org/fhir/us/qicore/StructureDefinition/qicore-recorded",
        "valueDateTime": "2025-02-04T09:35:00-04:00"
      } ],
      "status": "completed",
      "code": {
        "coding": [ {
          "system": "http://snomed.info/sct",
          "code": "10745001"
        } ]
      },
      "subject": {
        "reference": "Patient/cfed70be-9e5a-42f2-822d-133e3e970c3b"
      },
      "performedPeriod": {
        "start": "2025-02-01T08:00:00.000Z",
        "end": "2025-02-05T08:15:00.000Z"
      }
    },
    "request": {
      "method": "PUT",
      "url": "Procedure/8f17f522-479b-4593-9257-5173a8ef2cce"
    }
  }, {
    "fullUrl": "https://madie.cms.gov/Observation/e344bb08-b561-4092-81c1-4c0a1c2b5273",
    "resource": {
      "resourceType": "Observation",
      "id": "e344bb08-b561-4092-81c1-4c0a1c2b5273",
      "meta": {
        "profile": [ "http://hl7.org/fhir/us/core/StructureDefinition/us-core-observation-lab" ]
      },
      "status": "final",
      "category": [ {
        "coding": [ {
          "system": "http://terminology.hl7.org/CodeSystem/observation-category",
          "code": "laboratory",
          "display": "laboratory",
          "userSelected": true
        } ]
      } ],
      "code": {
        "coding": [ {
          "system": "http://loinc.org",
          "version": "2.73",
          "code": "26464-8",
          "display": "Leukocytes [#/volume] in Blood",
          "userSelected": true
        } ]
      },
      "subject": {
        "reference": "Patient/cfed70be-9e5a-42f2-822d-133e3e970c3b"
      },
      "effectiveDateTime": "2025-02-01T08:01:00.000+00:00",
      "issued": "2025-02-01T08:01:00.000+00:00",
      "valueQuantity": {
        "value": 10,
        "unit": "10*3/u"
      }
    },
    "request": {
      "method": "PUT",
      "url": "Observation/e344bb08-b561-4092-81c1-4c0a1c2b5273"
    }
  }, {
    "fullUrl": "https://madie.cms.gov/MeasureReport/7566aab7-a4fb-4462-a675-cb47f7d076be",
    "resource": {
      "resourceType": "MeasureReport",
      "id": "7566aab7-a4fb-4462-a675-cb47f7d076be",
      "meta": {
        "profile": [ "http://hl7.org/fhir/us/cqfmeasures/StructureDefinition/test-case-cqfm" ]
      },
      "contained": [ {
        "resourceType": "Parameters",
        "id": "38f5ecd8-2ac3-4a5b-b481-904868a599e2-parameters",
        "parameter": [ {
          "name": "subject",
          "valueString": "cfed70be-9e5a-42f2-822d-133e3e970c3b"
        } ]
      } ],
      "extension": [ {
        "url": "http://hl7.org/fhir/us/cqfmeasures/StructureDefinition/cqfm-inputParameters",
        "valueReference": {
          "reference": "#38f5ecd8-2ac3-4a5b-b481-904868a599e2-parameters"
        }
      }, {
        "url": "http://hl7.org/fhir/us/cqfmeasures/StructureDefinition/cqfm-testCaseDescription",
        "valueMarkdown": "First WBC is Null.  2nd WBC is resulted and meets timing parameters"
      } ],
      "modifierExtension": [ {
        "url": "http://hl7.org/fhir/us/cqfmeasures/StructureDefinition/cqfm-isTestCase",
        "valueBoolean": true
      } ],
      "status": "complete",
      "type": "individual",
      "measure": "https://madie.cms.gov/Measure/CMS1028FHIRPCSevereOBComps",
      "period": {
        "start": "2025-01-01",
        "end": "2025-12-31"
      },
      "group": [ {
        "population": [ {
          "code": {
            "coding": [ {
              "system": "http://terminology.hl7.org/CodeSystem/measure-population",
              "code": "initial-population",
              "display": "Initial Population"
            } ]
          },
          "count": 1
        }, {
          "code": {
            "coding": [ {
              "system": "http://terminology.hl7.org/CodeSystem/measure-population",
              "code": "denominator",
              "display": "Denominator"
            } ]
          },
          "count": 1
        }, {
          "code": {
            "coding": [ {
              "system": "http://terminology.hl7.org/CodeSystem/measure-population",
              "code": "numerator",
              "display": "Numerator"
            } ]
          },
          "count": 0
        }, {
          "code": {
            "coding": [ {
              "system": "http://terminology.hl7.org/CodeSystem/measure-population",
              "code": "numerator-exclusion",
              "display": "Numerator Exclusion"
            } ]
          },
          "count": 0
        } ]
      }, {
        "population": [ {
          "code": {
            "coding": [ {
              "system": "http://terminology.hl7.org/CodeSystem/measure-population",
              "code": "initial-population",
              "display": "Initial Population"
            } ]
          },
          "count": 1
        }, {
          "code": {
            "coding": [ {
              "system": "http://terminology.hl7.org/CodeSystem/measure-population",
              "code": "denominator",
              "display": "Denominator"
            } ]
          },
          "count": 1
        }, {
          "code": {
            "coding": [ {
              "system": "http://terminology.hl7.org/CodeSystem/measure-population",
              "code": "numerator",
              "display": "Numerator"
            } ]
          },
          "count": 0
        }, {
          "code": {
            "coding": [ {
              "system": "http://terminology.hl7.org/CodeSystem/measure-population",
              "code": "numerator-exclusion",
              "display": "Numerator Exclusion"
            } ]
          },
          "count": 0
        } ]
      } ],
      "evaluatedResource": [ {
        "reference": "Patient/cfed70be-9e5a-42f2-822d-133e3e970c3b"
      }, {
        "reference": "Observation/46fb85a3-dac4-4390-9f26-a42694fbd851"
      }, {
        "reference": "Observation/3ed1ffb7-1666-48b5-8b5c-8c9bfa45a8a5"
      }, {
        "reference": "Encounter/296987b1-8c6e-4be2-bb78-ecf5c1dffcf0"
      }, {
        "reference": "Encounter/fa24085b-1c00-44fb-a0b9-5213099d7292"
      }, {
        "reference": "Observation/b655157f-d20b-446f-b707-e6baeebaef99"
      }, {
        "reference": "Procedure/8f17f522-479b-4593-9257-5173a8ef2cce"
      }, {
        "reference": "Observation/e344bb08-b561-4092-81c1-4c0a1c2b5273"
      } ]
    },
    "request": {
      "method": "PUT",
      "url": "MeasureReport/7566aab7-a4fb-4462-a675-cb47f7d076be"
    }
  } ]
}