{
  "resourceType": "Bundle",
  "id": "tests-NUMERPass-Num4-2MVGT48HrsAfterORNoInterruptions-bundle",
  "type": "transaction",
  "entry": [ {
    "fullUrl": "https://madie.cms.gov/Encounter/c879c266-c531-4567-82e2-8a5dcca87927",
    "resource": {
      "resourceType": "Encounter",
      "id": "c879c266-c531-4567-82e2-8a5dcca87927",
      "meta": {
        "profile": [ "http://hl7.org/fhir/us/qicore/StructureDefinition/qicore-encounter" ]
      },
      "status": "finished",
      "class": {
        "system": "http://terminology.hl7.org/CodeSystem/v3-ActCode",
        "code": "IMP",
        "display": "inpatient encounter"
      },
      "type": [ {
        "coding": [ {
          "system": "http://snomed.info/sct",
          "code": "112689000",
          "display": "Hospital admission, elective, with complete pre-admission work-up"
        } ],
        "text": "Hospital admission, elective, with complete pre-admission work-up"
      } ],
      "priority": {
        "coding": [ {
          "system": "http://snomed.info/sct",
          "code": "103390000"
        } ]
      },
      "subject": {
        "reference": "Patient/223bc449-fc6b-4636-b392-3613761ee5c8"
      },
      "period": {
        "start": "2026-04-10T08:00:00+00:00",
        "end": "2026-04-18T08:15:00+00:00"
      },
      "diagnosis": [ {
        "condition": {
          "reference": "Procedure/b1d962c8-0d32-4391-bf69-066ece144575"
        },
        "rank": 1
      } ]
    },
    "request": {
      "method": "PUT",
      "url": "Encounter/c879c266-c531-4567-82e2-8a5dcca87927"
    }
  }, {
    "fullUrl": "https://madie.cms.gov/Patient/223bc449-fc6b-4636-b392-3613761ee5c8",
    "resource": {
      "resourceType": "Patient",
      "id": "223bc449-fc6b-4636-b392-3613761ee5c8",
      "meta": {
        "profile": [ "http://hl7.org/fhir/us/qicore/StructureDefinition/qicore-patient" ]
      },
      "extension": [ {
        "url": "http://hl7.org/fhir/us/core/StructureDefinition/us-core-race",
        "extension": [ {
          "url": "ombCategory",
          "valueCoding": {
            "system": "urn:oid:2.16.840.1.113883.6.238",
            "code": "2054-5",
            "display": "Black or African American",
            "userSelected": true
          }
        }, {
          "url": "text",
          "valueString": "Black or African American"
        } ]
      }, {
        "url": "http://hl7.org/fhir/us/core/StructureDefinition/us-core-ethnicity",
        "extension": [ {
          "url": "ombCategory",
          "valueCoding": {
            "system": "urn:oid:2.16.840.1.113883.6.238",
            "code": "2186-5",
            "display": "Not Hispanic or Latino",
            "userSelected": true
          }
        }, {
          "url": "text",
          "valueString": "Not Hispanic or Latino"
        } ]
      } ],
      "identifier": [ {
        "type": {
          "coding": [ {
            "system": "http://terminology.hl7.org/CodeSystem/v2-0203",
            "code": "MR"
          } ]
        },
        "system": "https://bonnie-fhir.healthit.gov/",
        "value": "61152a3b98086b7a79cbd7c1"
      } ],
      "active": true,
      "name": [ {
        "use": "usual",
        "family": "NUMERPass",
        "given": [ "Num4-2MVGT48HrsAfterORNoInterruptions" ]
      } ],
      "gender": "female",
      "birthDate": "1966-07-12"
    },
    "request": {
      "method": "PUT",
      "url": "Patient/223bc449-fc6b-4636-b392-3613761ee5c8"
    }
  }, {
    "fullUrl": "https://madie.cms.gov/Procedure/5e69dee0-ec11-4ddc-afc8-18973a25d822",
    "resource": {
      "resourceType": "Procedure",
      "id": "5e69dee0-ec11-4ddc-afc8-18973a25d822",
      "meta": {
        "profile": [ "http://hl7.org/fhir/us/qicore/StructureDefinition/qicore-procedure" ]
      },
      "extension": [ {
        "url": "http://hl7.org/fhir/us/qicore/StructureDefinition/qicore-recorded",
        "valueDateTime": "2026-04-11T08:10:00+00:00"
      } ],
      "status": "completed",
      "category": {
        "coding": [ {
          "system": "http://snomed.info/sct",
          "code": "18286008",
          "display": "General or neuraxial anesthesia"
        } ]
      },
      "code": {
        "coding": [ {
          "system": "http://snomed.info/sct",
          "code": "112943005",
          "display": "Epidural injection of anesthetic substance, diagnostic, caudal, continuous"
        } ]
      },
      "subject": {
        "reference": "Patient/223bc449-fc6b-4636-b392-3613761ee5c8"
      },
      "performedPeriod": {
        "start": "2026-04-11T08:00:00+00:00",
        "end": "2026-04-11T10:15:00+00:00"
      }
    },
    "request": {
      "method": "PUT",
      "url": "Procedure/5e69dee0-ec11-4ddc-afc8-18973a25d822"
    }
  }, {
    "fullUrl": "https://madie.cms.gov/Procedure/05673b10-0cb6-48e8-a3c7-7a112633be4f",
    "resource": {
      "resourceType": "Procedure",
      "id": "05673b10-0cb6-48e8-a3c7-7a112633be4f",
      "meta": {
        "profile": [ "http://hl7.org/fhir/us/qicore/StructureDefinition/qicore-procedure" ]
      },
      "extension": [ {
        "url": "http://hl7.org/fhir/us/qicore/StructureDefinition/qicore-recorded",
        "valueDateTime": "2026-04-13T11:10:30+00:00"
      } ],
      "status": "completed",
      "code": {
        "coding": [ {
          "system": "http://snomed.info/sct",
          "code": "243141005",
          "display": "Mechanically assisted spontaneous ventilation"
        } ],
        "text": "Mechanically assisted spontaneous ventilation"
      },
      "subject": {
        "reference": "Patient/223bc449-fc6b-4636-b392-3613761ee5c8"
      },
      "performedDateTime": "2026-04-13T11:00:00+00:00"
    },
    "request": {
      "method": "PUT",
      "url": "Procedure/05673b10-0cb6-48e8-a3c7-7a112633be4f"
    }
  }, {
    "fullUrl": "https://madie.cms.gov/Procedure/c3f14d94-5763-4364-ba7f-a7e900475091",
    "resource": {
      "resourceType": "Procedure",
      "id": "c3f14d94-5763-4364-ba7f-a7e900475091",
      "meta": {
        "profile": [ "http://hl7.org/fhir/us/qicore/StructureDefinition/qicore-procedure" ]
      },
      "extension": [ {
        "url": "http://hl7.org/fhir/us/qicore/StructureDefinition/qicore-recorded",
        "valueDateTime": "2026-04-15T08:10:00+00:00"
      } ],
      "status": "completed",
      "category": {
        "coding": [ {
          "system": "http://snomed.info/sct",
          "code": "18286008",
          "display": "General or neuraxial anesthesia"
        } ]
      },
      "code": {
        "coding": [ {
          "system": "http://snomed.info/sct",
          "code": "112943005",
          "display": "Epidural injection of anesthetic substance, diagnostic, caudal, continuous"
        } ]
      },
      "subject": {
        "reference": "Patient/223bc449-fc6b-4636-b392-3613761ee5c8"
      },
      "performedPeriod": {
        "start": "2026-04-15T08:00:00+00:00",
        "end": "2026-04-15T09:15:00+00:00"
      }
    },
    "request": {
      "method": "PUT",
      "url": "Procedure/c3f14d94-5763-4364-ba7f-a7e900475091"
    }
  }, {
    "fullUrl": "https://madie.cms.gov/Procedure/b8386aa9-dc82-49cc-b4b8-d1bba913b23f",
    "resource": {
      "resourceType": "Procedure",
      "id": "b8386aa9-dc82-49cc-b4b8-d1bba913b23f",
      "meta": {
        "profile": [ "http://hl7.org/fhir/us/qicore/StructureDefinition/qicore-procedure" ]
      },
      "extension": [ {
        "url": "http://hl7.org/fhir/us/qicore/StructureDefinition/qicore-recorded",
        "valueDateTime": "2026-04-17T10:10:30+00:00"
      } ],
      "status": "completed",
      "code": {
        "coding": [ {
          "system": "http://snomed.info/sct",
          "code": "243141005",
          "display": "Mechanically assisted spontaneous ventilation"
        } ],
        "text": "Mechanically assisted spontaneous ventilation"
      },
      "subject": {
        "reference": "Patient/223bc449-fc6b-4636-b392-3613761ee5c8"
      },
      "performedDateTime": "2026-04-17T10:00:00+00:00"
    },
    "request": {
      "method": "PUT",
      "url": "Procedure/b8386aa9-dc82-49cc-b4b8-d1bba913b23f"
    }
  }, {
    "fullUrl": "https://madie.cms.gov/MeasureReport/c5f80848-ac87-430e-aacc-4867d1f1abc8",
    "resource": {
      "resourceType": "MeasureReport",
      "id": "c5f80848-ac87-430e-aacc-4867d1f1abc8",
      "meta": {
        "profile": [ "http://hl7.org/fhir/us/cqfmeasures/StructureDefinition/test-case-cqfm" ]
      },
      "contained": [ {
        "resourceType": "Parameters",
        "id": "615484e8-4175-454a-9a52-57c7a20ebfd7-parameters",
        "parameter": [ {
          "name": "subject",
          "valueString": "223bc449-fc6b-4636-b392-3613761ee5c8"
        } ]
      } ],
      "extension": [ {
        "url": "http://hl7.org/fhir/us/cqfmeasures/StructureDefinition/cqfm-inputParameters",
        "valueReference": {
          "reference": "#615484e8-4175-454a-9a52-57c7a20ebfd7-parameters"
        }
      }, {
        "url": "http://hl7.org/fhir/us/cqfmeasures/StructureDefinition/cqfm-testCaseDescription",
        "valueMarkdown": "Elective hospitalization with procedure, MV relevant DT > 48 hours after end of first and second OR w/no interruptions. Meets Numerator. "
      } ],
      "modifierExtension": [ {
        "url": "http://hl7.org/fhir/us/cqfmeasures/StructureDefinition/cqfm-isTestCase",
        "valueBoolean": true
      } ],
      "status": "complete",
      "type": "individual",
      "measure": "https://madie.cms.gov/Measure/CMS1218HHRFFHIR",
      "period": {
        "start": "2026-01-01",
        "end": "2026-12-31"
      },
      "group": [ {
        "population": [ {
          "code": {
            "coding": [ {
              "system": "http://terminology.hl7.org/CodeSystem/measure-population",
              "code": "initial-population",
              "display": "Initial Population"
            } ]
          },
          "count": 1
        }, {
          "code": {
            "coding": [ {
              "system": "http://terminology.hl7.org/CodeSystem/measure-population",
              "code": "denominator",
              "display": "Denominator"
            } ]
          },
          "count": 1
        }, {
          "code": {
            "coding": [ {
              "system": "http://terminology.hl7.org/CodeSystem/measure-population",
              "code": "denominator-exclusion",
              "display": "Denominator Exclusion"
            } ]
          },
          "count": 0
        }, {
          "code": {
            "coding": [ {
              "system": "http://terminology.hl7.org/CodeSystem/measure-population",
              "code": "numerator",
              "display": "Numerator"
            } ]
          },
          "count": 1
        } ]
      } ],
      "evaluatedResource": [ {
        "reference": "Encounter/c879c266-c531-4567-82e2-8a5dcca87927"
      }, {
        "reference": "Patient/223bc449-fc6b-4636-b392-3613761ee5c8"
      }, {
        "reference": "Procedure/5e69dee0-ec11-4ddc-afc8-18973a25d822"
      }, {
        "reference": "Procedure/05673b10-0cb6-48e8-a3c7-7a112633be4f"
      }, {
        "reference": "Procedure/c3f14d94-5763-4364-ba7f-a7e900475091"
      }, {
        "reference": "Procedure/b8386aa9-dc82-49cc-b4b8-d1bba913b23f"
      } ]
    },
    "request": {
      "method": "PUT",
      "url": "MeasureReport/c5f80848-ac87-430e-aacc-4867d1f1abc8"
    }
  } ]
}