{
  "resourceType": "Bundle",
  "id": "63598dd9c35f1c19df09adbd",
  "type": "transaction",
  "entry": [ {
    "fullUrl": "https://madie.cms.gov/Patient/e0935b52-8ecc-4269-a87c-20055b6fd9e3",
    "resource": {
      "resourceType": "Patient",
      "id": "e0935b52-8ecc-4269-a87c-20055b6fd9e3",
      "meta": {
        "profile": [ "http://hl7.org/fhir/us/qicore/StructureDefinition/qicore-patient" ]
      },
      "text": {
        "status": "generated",
        "div": "<div xmlns=\"http://www.w3.org/1999/xhtml\"><div class=\"hapiHeaderText\">RISKHRRelDtTimeEQDelStartless1Min <b>RISKPass </b></div><table class=\"hapiPropertyTable\"><tbody><tr><td>Date of birth</td><td><span>01 February 2004</span></td></tr></tbody></table></div>"
      },
      "extension": [ {
        "url": "http://hl7.org/fhir/us/core/StructureDefinition/us-core-race",
        "extension": [ {
          "url": "ombCategory",
          "valueCoding": {
            "system": "urn:oid:2.16.840.1.113883.6.238",
            "code": "1002-5",
            "display": "American Indian or Alaska Native",
            "userSelected": true
          }
        }, {
          "url": "text",
          "valueString": "American Indian or Alaska Native"
        } ]
      }, {
        "url": "http://hl7.org/fhir/us/core/StructureDefinition/us-core-ethnicity",
        "extension": [ {
          "url": "ombCategory",
          "valueCoding": {
            "system": "urn:oid:2.16.840.1.113883.6.238",
            "code": "2135-2",
            "display": "Hispanic or Latino",
            "userSelected": true
          }
        }, {
          "url": "text",
          "valueString": "Hispanic or Latino"
        } ]
      } ],
      "identifier": [ {
        "type": {
          "coding": [ {
            "system": "http://terminology.hl7.org/CodeSystem/v2-0203",
            "code": "MR"
          } ]
        },
        "system": "https://bonnie-fhir.healthit.gov/",
        "value": "63598dd9c35f1c19df09adbd"
      } ],
      "active": true,
      "name": [ {
        "use": "usual",
        "family": "RiskPass",
        "given": [ "RISKHRRelDtTimeEQDelStartless1Min" ]
      } ],
      "gender": "female",
      "birthDate": "2004-02-01"
    },
    "request": {
      "method": "PUT",
      "url": "Patient/e0935b52-8ecc-4269-a87c-20055b6fd9e3"
    }
  }, {
    "fullUrl": "https://madie.cms.gov/Observation/ed365cae-70d2-406c-8559-451ecdbd03fd",
    "resource": {
      "resourceType": "Observation",
      "id": "ed365cae-70d2-406c-8559-451ecdbd03fd",
      "meta": {
        "profile": [ "http://hl7.org/fhir/us/qicore/StructureDefinition/qicore-observation" ]
      },
      "status": "final",
      "category": [ {
        "coding": [ {
          "system": "http://terminology.hl7.org/CodeSystem/observation-category",
          "code": "exam",
          "display": "exam",
          "userSelected": true
        } ]
      } ],
      "code": {
        "coding": [ {
          "system": "http://loinc.org",
          "code": "93857-1"
        } ]
      },
      "subject": {
        "reference": "Patient/e0935b52-8ecc-4269-a87c-20055b6fd9e3"
      },
      "effectiveDateTime": "2025-02-01T08:00:00.000+00:00",
      "valueDateTime": "2025-02-01T08:00:00+00:00"
    },
    "request": {
      "method": "PUT",
      "url": "Observation/ed365cae-70d2-406c-8559-451ecdbd03fd"
    }
  }, {
    "fullUrl": "https://madie.cms.gov/Observation/6e92fda3-9545-49e1-b0df-84f85f4949fd",
    "resource": {
      "resourceType": "Observation",
      "id": "6e92fda3-9545-49e1-b0df-84f85f4949fd",
      "meta": {
        "profile": [ "http://hl7.org/fhir/us/qicore/StructureDefinition/qicore-observation" ]
      },
      "status": "final",
      "category": [ {
        "coding": [ {
          "system": "http://terminology.hl7.org/CodeSystem/observation-category",
          "code": "exam",
          "display": "exam",
          "userSelected": true
        } ]
      } ],
      "code": {
        "coding": [ {
          "system": "http://loinc.org",
          "code": "11884-4"
        } ]
      },
      "subject": {
        "reference": "Patient/e0935b52-8ecc-4269-a87c-20055b6fd9e3"
      },
      "effectiveDateTime": "2025-02-01T08:00:00.000+00:00",
      "valueQuantity": {
        "value": 21,
        "system": "http://unitsofmeasure.org",
        "code": "wk"
      }
    },
    "request": {
      "method": "PUT",
      "url": "Observation/6e92fda3-9545-49e1-b0df-84f85f4949fd"
    }
  }, {
    "fullUrl": "https://madie.cms.gov/Encounter/0c20e55c-c543-4b20-a6ba-c767cd57ecd3",
    "resource": {
      "resourceType": "Encounter",
      "id": "0c20e55c-c543-4b20-a6ba-c767cd57ecd3",
      "meta": {
        "profile": [ "http://hl7.org/fhir/us/qicore/StructureDefinition/qicore-encounter" ]
      },
      "status": "finished",
      "class": {
        "system": "http://terminology.hl7.org/CodeSystem/v3-ActCode",
        "code": "IMP",
        "display": "inpatient encounter"
      },
      "type": [ {
        "coding": [ {
          "system": "http://snomed.info/sct",
          "code": "183452005"
        } ]
      } ],
      "subject": {
        "reference": "Patient/e0935b52-8ecc-4269-a87c-20055b6fd9e3"
      },
      "period": {
        "start": "2025-02-01T08:00:00.000+00:00",
        "end": "2025-02-05T08:15:00.000+00:00"
      }
    },
    "request": {
      "method": "PUT",
      "url": "Encounter/0c20e55c-c543-4b20-a6ba-c767cd57ecd3"
    }
  }, {
    "fullUrl": "https://madie.cms.gov/Encounter/c74e8c77-008b-4539-8cf2-910f9bb3ecd3",
    "resource": {
      "resourceType": "Encounter",
      "id": "c74e8c77-008b-4539-8cf2-910f9bb3ecd3",
      "meta": {
        "profile": [ "http://hl7.org/fhir/us/qicore/StructureDefinition/qicore-encounter" ]
      },
      "status": "finished",
      "class": {
        "system": "http://terminology.hl7.org/CodeSystem/v3-ActCode",
        "code": "EMER",
        "display": "emergency"
      },
      "type": [ {
        "coding": [ {
          "system": "http://snomed.info/sct",
          "code": "4525004"
        } ]
      } ],
      "subject": {
        "reference": "Patient/e0935b52-8ecc-4269-a87c-20055b6fd9e3"
      },
      "period": {
        "start": "2025-02-01T07:00:00.000+00:00",
        "end": "2025-02-01T07:59:00.000+00:00"
      }
    },
    "request": {
      "method": "PUT",
      "url": "Encounter/c74e8c77-008b-4539-8cf2-910f9bb3ecd3"
    }
  }, {
    "fullUrl": "https://madie.cms.gov/Procedure/9074c02e-1f57-426a-83f0-995294d1446a",
    "resource": {
      "resourceType": "Procedure",
      "id": "9074c02e-1f57-426a-83f0-995294d1446a",
      "meta": {
        "profile": [ "http://hl7.org/fhir/us/qicore/StructureDefinition/qicore-procedure" ]
      },
      "extension": [ {
        "url": "http://hl7.org/fhir/us/qicore/StructureDefinition/qicore-recorded",
        "valueDateTime": "2025-02-04T09:35:00-04:00"
      } ],
      "status": "completed",
      "code": {
        "coding": [ {
          "system": "http://snomed.info/sct",
          "code": "10745001"
        } ]
      },
      "subject": {
        "reference": "Patient/e0935b52-8ecc-4269-a87c-20055b6fd9e3"
      },
      "performedPeriod": {
        "start": "2025-02-01T08:00:00.000+00:00",
        "end": "2025-02-05T08:15:00.000+00:00"
      }
    },
    "request": {
      "method": "PUT",
      "url": "Procedure/9074c02e-1f57-426a-83f0-995294d1446a"
    }
  }, {
    "fullUrl": "https://madie.cms.gov/Observation/a0ad331e-64f9-4225-babd-9c9b74818033",
    "resource": {
      "resourceType": "Observation",
      "id": "a0ad331e-64f9-4225-babd-9c9b74818033",
      "meta": {
        "profile": [ "http://hl7.org/fhir/StructureDefinition/heartrate" ]
      },
      "status": "final",
      "category": [ {
        "coding": [ {
          "system": "http://terminology.hl7.org/CodeSystem/observation-category",
          "code": "vital-signs",
          "display": "vital-signs",
          "userSelected": true
        } ]
      } ],
      "code": {
        "coding": [ {
          "system": "http://loinc.org",
          "version": "2.73",
          "code": "8867-4",
          "display": "Heart Rate"
        } ]
      },
      "subject": {
        "reference": "Patient/e0935b52-8ecc-4269-a87c-20055b6fd9e3"
      },
      "effectiveDateTime": "2025-02-01T07:00:00.000+00:00",
      "valueQuantity": {
        "value": 85,
        "unit": "/min",
        "system": "http://unitsofmeasure.org",
        "code": "/min"
      }
    },
    "request": {
      "method": "PUT",
      "url": "Observation/a0ad331e-64f9-4225-babd-9c9b74818033"
    }
  }, {
    "fullUrl": "https://madie.cms.gov/Observation/ed365cae-70d2-406c-8559-451ecdbd03fda",
    "resource": {
      "resourceType": "Observation",
      "id": "ed365cae-70d2-406c-8559-451ecdbd03fda",
      "meta": {
        "profile": [ "http://hl7.org/fhir/us/qicore/StructureDefinition/qicore-observation" ]
      },
      "status": "final",
      "category": [ {
        "coding": [ {
          "system": "http://terminology.hl7.org/CodeSystem/observation-category",
          "code": "exam",
          "display": "exam",
          "userSelected": true
        } ]
      } ],
      "code": {
        "coding": [ {
          "system": "http://loinc.org",
          "code": "93857-1"
        } ]
      },
      "subject": {
        "reference": "Patient/e0935b52-8ecc-4269-a87c-20055b6fd9e3"
      },
      "effectiveDateTime": "2025-12-01T08:00:00.000+00:00",
      "valueDateTime": "2025-12-01T08:00:00+00:00"
    },
    "request": {
      "method": "PUT",
      "url": "Observation/ed365cae-70d2-406c-8559-451ecdbd03fda"
    }
  }, {
    "fullUrl": "https://madie.cms.gov/Observation/6e92fda3-9545-49e1-b0df-84f85f4949fda",
    "resource": {
      "resourceType": "Observation",
      "id": "6e92fda3-9545-49e1-b0df-84f85f4949fda",
      "meta": {
        "profile": [ "http://hl7.org/fhir/us/qicore/StructureDefinition/qicore-observation" ]
      },
      "status": "final",
      "category": [ {
        "coding": [ {
          "system": "http://terminology.hl7.org/CodeSystem/observation-category",
          "code": "exam",
          "display": "exam",
          "userSelected": true
        } ]
      } ],
      "code": {
        "coding": [ {
          "system": "http://loinc.org",
          "code": "11884-4"
        } ]
      },
      "subject": {
        "reference": "Patient/e0935b52-8ecc-4269-a87c-20055b6fd9e3"
      },
      "effectiveDateTime": "2025-12-01T08:00:00.000+00:00",
      "valueQuantity": {
        "value": 21,
        "system": "http://unitsofmeasure.org",
        "code": "wk"
      }
    },
    "request": {
      "method": "PUT",
      "url": "Observation/6e92fda3-9545-49e1-b0df-84f85f4949fda"
    }
  }, {
    "fullUrl": "https://madie.cms.gov/Encounter/0c20e55c-c543-4b20-a6ba-c767cd57ecd3a",
    "resource": {
      "resourceType": "Encounter",
      "id": "0c20e55c-c543-4b20-a6ba-c767cd57ecd3a",
      "meta": {
        "profile": [ "http://hl7.org/fhir/us/qicore/StructureDefinition/qicore-encounter" ]
      },
      "status": "finished",
      "class": {
        "system": "http://terminology.hl7.org/CodeSystem/v3-ActCode",
        "code": "IMP",
        "display": "inpatient encounter"
      },
      "type": [ {
        "coding": [ {
          "system": "http://snomed.info/sct",
          "code": "183452005"
        } ]
      } ],
      "subject": {
        "reference": "Patient/e0935b52-8ecc-4269-a87c-20055b6fd9e3"
      },
      "period": {
        "start": "2025-12-01T08:00:00.000+00:00",
        "end": "2025-12-05T08:15:00.000+00:00"
      }
    },
    "request": {
      "method": "PUT",
      "url": "Encounter/0c20e55c-c543-4b20-a6ba-c767cd57ecd3a"
    }
  }, {
    "fullUrl": "https://madie.cms.gov/Encounter/c74e8c77-008b-4539-8cf2-910f9bb3ecd3a",
    "resource": {
      "resourceType": "Encounter",
      "id": "c74e8c77-008b-4539-8cf2-910f9bb3ecd3a",
      "meta": {
        "profile": [ "http://hl7.org/fhir/us/qicore/StructureDefinition/qicore-encounter" ]
      },
      "status": "finished",
      "class": {
        "system": "http://terminology.hl7.org/CodeSystem/v3-ActCode",
        "code": "EMER",
        "display": "emergency"
      },
      "type": [ {
        "coding": [ {
          "system": "http://snomed.info/sct",
          "code": "4525004"
        } ]
      } ],
      "subject": {
        "reference": "Patient/e0935b52-8ecc-4269-a87c-20055b6fd9e3"
      },
      "period": {
        "start": "2025-12-01T07:00:00.000+00:00",
        "end": "2025-12-01T07:59:00.000+00:00"
      }
    },
    "request": {
      "method": "PUT",
      "url": "Encounter/c74e8c77-008b-4539-8cf2-910f9bb3ecd3a"
    }
  }, {
    "fullUrl": "https://madie.cms.gov/Procedure/9074c02e-1f57-426a-83f0-995294d1446aa",
    "resource": {
      "resourceType": "Procedure",
      "id": "9074c02e-1f57-426a-83f0-995294d1446aa",
      "meta": {
        "profile": [ "http://hl7.org/fhir/us/qicore/StructureDefinition/qicore-procedure" ]
      },
      "extension": [ {
        "url": "http://hl7.org/fhir/us/qicore/StructureDefinition/qicore-recorded",
        "valueDateTime": "2025-12-04T09:35:00-04:00"
      } ],
      "status": "completed",
      "code": {
        "coding": [ {
          "system": "http://snomed.info/sct",
          "code": "10745001"
        } ]
      },
      "subject": {
        "reference": "Patient/e0935b52-8ecc-4269-a87c-20055b6fd9e3"
      },
      "performedPeriod": {
        "start": "2025-12-01T08:00:00.000+00:00",
        "end": "2025-12-05T08:15:00.000+00:00"
      }
    },
    "request": {
      "method": "PUT",
      "url": "Procedure/9074c02e-1f57-426a-83f0-995294d1446aa"
    }
  }, {
    "fullUrl": "https://madie.cms.gov/Observation/a0ad331e-64f9-4225-babd-9c9b74818033a",
    "resource": {
      "resourceType": "Observation",
      "id": "a0ad331e-64f9-4225-babd-9c9b74818033a",
      "meta": {
        "profile": [ "http://hl7.org/fhir/StructureDefinition/heartrate" ]
      },
      "status": "final",
      "category": [ {
        "coding": [ {
          "system": "http://terminology.hl7.org/CodeSystem/observation-category",
          "code": "vital-signs",
          "display": "vital-signs",
          "userSelected": true
        } ]
      } ],
      "code": {
        "coding": [ {
          "system": "http://loinc.org",
          "version": "2.73",
          "code": "8867-4",
          "display": "Heart Rate"
        } ]
      },
      "subject": {
        "reference": "Patient/e0935b52-8ecc-4269-a87c-20055b6fd9e3"
      },
      "effectiveDateTime": "2025-12-01T07:00:00.000+00:00",
      "valueQuantity": {
        "value": 90,
        "unit": "/min",
        "system": "http://unitsofmeasure.org",
        "code": "/min"
      }
    },
    "request": {
      "method": "PUT",
      "url": "Observation/a0ad331e-64f9-4225-babd-9c9b74818033a"
    }
  }, {
    "fullUrl": "https://madie.cms.gov/MeasureReport/0a6c96f3-3d6d-4ffa-92a8-8b9264f0c6fa",
    "resource": {
      "resourceType": "MeasureReport",
      "id": "0a6c96f3-3d6d-4ffa-92a8-8b9264f0c6fa",
      "meta": {
        "profile": [ "http://hl7.org/fhir/us/cqfmeasures/StructureDefinition/test-case-cqfm" ]
      },
      "contained": [ {
        "resourceType": "Parameters",
        "id": "41345c6c-754f-4a16-93ab-f223118a6360-parameters",
        "parameter": [ {
          "name": "subject",
          "valueString": "e0935b52-8ecc-4269-a87c-20055b6fd9e3"
        } ]
      } ],
      "extension": [ {
        "url": "http://hl7.org/fhir/us/cqfmeasures/StructureDefinition/cqfm-inputParameters",
        "valueReference": {
          "reference": "#41345c6c-754f-4a16-93ab-f223118a6360-parameters"
        }
      }, {
        "url": "http://hl7.org/fhir/us/cqfmeasures/StructureDefinition/cqfm-testCaseDescription",
        "valueMarkdown": "2 encounters with heart rate.   No way to determine this in MADIE.\n"
      } ],
      "modifierExtension": [ {
        "url": "http://hl7.org/fhir/us/cqfmeasures/StructureDefinition/cqfm-isTestCase",
        "valueBoolean": true
      } ],
      "status": "complete",
      "type": "individual",
      "measure": "https://madie.cms.gov/Measure/CMS1028FHIRPCSevereOBComps",
      "period": {
        "start": "2025-01-01",
        "end": "2025-12-31"
      },
      "group": [ {
        "population": [ {
          "code": {
            "coding": [ {
              "system": "http://terminology.hl7.org/CodeSystem/measure-population",
              "code": "initial-population",
              "display": "Initial Population"
            } ]
          },
          "count": 2
        }, {
          "code": {
            "coding": [ {
              "system": "http://terminology.hl7.org/CodeSystem/measure-population",
              "code": "denominator",
              "display": "Denominator"
            } ]
          },
          "count": 2
        }, {
          "code": {
            "coding": [ {
              "system": "http://terminology.hl7.org/CodeSystem/measure-population",
              "code": "numerator",
              "display": "Numerator"
            } ]
          },
          "count": 0
        }, {
          "code": {
            "coding": [ {
              "system": "http://terminology.hl7.org/CodeSystem/measure-population",
              "code": "numerator-exclusion",
              "display": "Numerator Exclusion"
            } ]
          },
          "count": 0
        } ]
      }, {
        "population": [ {
          "code": {
            "coding": [ {
              "system": "http://terminology.hl7.org/CodeSystem/measure-population",
              "code": "initial-population",
              "display": "Initial Population"
            } ]
          },
          "count": 2
        }, {
          "code": {
            "coding": [ {
              "system": "http://terminology.hl7.org/CodeSystem/measure-population",
              "code": "denominator",
              "display": "Denominator"
            } ]
          },
          "count": 2
        }, {
          "code": {
            "coding": [ {
              "system": "http://terminology.hl7.org/CodeSystem/measure-population",
              "code": "numerator",
              "display": "Numerator"
            } ]
          },
          "count": 0
        }, {
          "code": {
            "coding": [ {
              "system": "http://terminology.hl7.org/CodeSystem/measure-population",
              "code": "numerator-exclusion",
              "display": "Numerator Exclusion"
            } ]
          },
          "count": 0
        } ]
      } ],
      "evaluatedResource": [ {
        "reference": "Patient/e0935b52-8ecc-4269-a87c-20055b6fd9e3"
      }, {
        "reference": "Observation/ed365cae-70d2-406c-8559-451ecdbd03fd"
      }, {
        "reference": "Observation/6e92fda3-9545-49e1-b0df-84f85f4949fd"
      }, {
        "reference": "Encounter/0c20e55c-c543-4b20-a6ba-c767cd57ecd3"
      }, {
        "reference": "Encounter/c74e8c77-008b-4539-8cf2-910f9bb3ecd3"
      }, {
        "reference": "Procedure/9074c02e-1f57-426a-83f0-995294d1446a"
      }, {
        "reference": "Observation/a0ad331e-64f9-4225-babd-9c9b74818033"
      }, {
        "reference": "Observation/ed365cae-70d2-406c-8559-451ecdbd03fda"
      }, {
        "reference": "Observation/6e92fda3-9545-49e1-b0df-84f85f4949fda"
      }, {
        "reference": "Encounter/0c20e55c-c543-4b20-a6ba-c767cd57ecd3a"
      }, {
        "reference": "Encounter/c74e8c77-008b-4539-8cf2-910f9bb3ecd3a"
      }, {
        "reference": "Procedure/9074c02e-1f57-426a-83f0-995294d1446aa"
      }, {
        "reference": "Observation/a0ad331e-64f9-4225-babd-9c9b74818033a"
      } ]
    },
    "request": {
      "method": "PUT",
      "url": "MeasureReport/0a6c96f3-3d6d-4ffa-92a8-8b9264f0c6fa"
    }
  } ]
}