{"resourceType":"Bundle","id":"tests-29fd4e9e-7f7c-4356-8d72-7eabc8060963-bundle","type":"transaction","entry":[{"fullUrl":"https://madie.cms.gov/Patient/29fd4e9e-7f7c-4356-8d72-7eabc8060963","resource":{"resourceType":"Patient","id":"29fd4e9e-7f7c-4356-8d72-7eabc8060963","meta":{"profile":["http://hl7.org/fhir/us/qicore/StructureDefinition/qicore-patient"]},"text":{"status":"generated","div":"<div xmlns=\"http://www.w3.org/1999/xhtml\"><div class=\"hapiHeaderText\">Dx=Afib/flutterStart&gt;EncEnd <b>DENOMFAIL </b></div><table class=\"hapiPropertyTable\"><tbody><tr><td>Identifier</td><td>6b7cd5f3b5c915e66087549c0e58b13c</td></tr><tr><td>Date of birth</td><td><span>01 December 1960</span></td></tr></tbody></table></div>"},"extension":[{"url":"http://hl7.org/fhir/us/core/StructureDefinition/us-core-race","extension":[{"url":"ombCategory","valueCoding":{"system":"urn:oid:2.16.840.1.113883.6.238","code":"1002-5","display":"American Indian or Alaska Native","userSelected":true}},{"url":"text","valueString":"American Indian or Alaska Native"}]},{"url":"http://hl7.org/fhir/us/core/StructureDefinition/us-core-ethnicity","extension":[{"url":"ombCategory","valueCoding":{"system":"urn:oid:2.16.840.1.113883.6.238","code":"2135-2","display":"Hispanic or Latino","userSelected":true}},{"url":"text","valueString":"Hispanic or Latino"}]}],"identifier":[{"type":{"coding":[{"system":"http://terminology.hl7.org/CodeSystem/v2-0203","code":"MR"}]},"system":"https://bonnie-fhir.healthit.gov/","value":"633c9d030968f8012250fc9a"}],"active":true,"name":[{"use":"usual","family":"DENOMFail","given":["Dx=Afib/flutterStart>EncEnd"]}],"gender":"male","birthDate":"1960-12-01"},"request":{"method":"PUT","url":"Patient/29fd4e9e-7f7c-4356-8d72-7eabc8060963"}},{"fullUrl":"https://madie.cms.gov/Condition/5c953f97b848462de0ae40f9","resource":{"resourceType":"Condition","id":"91c54899-012f-4795-a5d6-08a75f23417a","meta":{"profile":["http://hl7.org/fhir/us/qicore/StructureDefinition/qicore-condition"]},"clinicalStatus":{"coding":[{"system":"http://terminology.hl7.org/CodeSystem/condition-clinical","code":"inactive"}]},"verificationStatus":{"coding":[{"system":"http://terminology.hl7.org/CodeSystem/condition-ver-status","code":"confirmed"}]},"category":[{"coding":[{"system":"http://terminology.hl7.org/CodeSystem/condition-category","code":"encounter-diagnosis","display":"Encounter Diagnosis"}]}],"code":{"coding":[{"system":"http://snomed.info/sct","code":"195080001"},{"system":"http://hl7.org/fhir/sid/icd-9-cm","code":"427.31"},{"system":"http://hl7.org/fhir/sid/icd-10-cm","code":"I48.0"}]},"subject":{"reference":"Patient/29fd4e9e-7f7c-4356-8d72-7eabc8060963"},"onsetDateTime":"2025-02-11T08:15:00.000Z","abatementDateTime":"2025-02-11T08:15:00.000Z"},"request":{"method":"PUT","url":"Condition/91c54899-012f-4795-a5d6-08a75f23417a"}},{"fullUrl":"https://madie.cms.gov/Encounter/5c953f97b848462de0ae40fa","resource":{"resourceType":"Encounter","id":"a9a7f532-4403-475b-85ee-5869c6b4bfd8","meta":{"profile":["http://hl7.org/fhir/us/qicore/StructureDefinition/qicore-encounter"]},"status":"finished","class":{"system":"http://terminology.hl7.org/CodeSystem/v3-ActCode","code":"IMP","display":"inpatient encounter"},"type":[{"coding":[{"system":"http://snomed.info/sct","code":"183452005"}]}],"subject":{"reference":"Patient/29fd4e9e-7f7c-4356-8d72-7eabc8060963"},"period":{"start":"2025-02-08T08:00:00.000Z","end":"2025-02-10T08:15:00.000Z"},"length":{"value":2,"unit":"days"},"diagnosis":[{"condition":{"reference":"Condition/ischemic-stroke-1976"},"use":{"coding":[{"system":"http://terminology.hl7.org/CodeSystem/diagnosis-role","code":"billing","display":"Billing"}]},"rank":1}]},"request":{"method":"PUT","url":"Encounter/a9a7f532-4403-475b-85ee-5869c6b4bfd8"}},{"fullUrl":"https://madie.cms.gov/Coverage/5f2c53ce1c76ba5c9960576e","resource":{"resourceType":"Coverage","id":"21e6e332-4a80-46ad-935d-32b7a31b7c33","status":"active","beneficiary":{"reference":"Patient/29fd4e9e-7f7c-4356-8d72-7eabc8060963"},"period":{"start":"1960-12-01T08:00:00.000Z"},"payor":[{"reference":"Organization/9e9b3f13-a353-4173-b29b-947d6f1f2031"}]},"request":{"method":"PUT","url":"Coverage/21e6e332-4a80-46ad-935d-32b7a31b7c33"}},{"fullUrl":"https://madie.cms.gov/Condition/ischemic-stroke-1976","resource":{"resourceType":"Condition","id":"fa816cf1-aed0-4db9-b863-1e94c9812ba8","meta":{"profile":["http://hl7.org/fhir/us/qicore/StructureDefinition/qicore-condition"]},"clinicalStatus":{"coding":[{"system":"http://terminology.hl7.org/CodeSystem/condition-clinical","code":"active"}]},"verificationStatus":{"coding":[{"system":"http://terminology.hl7.org/CodeSystem/condition-ver-status","code":"confirmed"}]},"category":[{"coding":[{"system":"http://terminology.hl7.org/CodeSystem/condition-category","code":"encounter-diagnosis","display":"Encounter Diagnosis"}]}],"code":{"coding":[{"system":"http://snomed.info/sct","version":"2021-09","code":"111297002","display":"Nonparalytic stroke (disorder)","userSelected":true}]},"subject":{"reference":"Patient/29fd4e9e-7f7c-4356-8d72-7eabc8060963"},"recordedDate":"2025-10-13T08:00:00.000+00:00"},"request":{"method":"PUT","url":"Condition/fa816cf1-aed0-4db9-b863-1e94c9812ba8"}},{"fullUrl":"https://madie.cms.gov/Organization/123456","resource":{"resourceType":"Organization","id":"9e9b3f13-a353-4173-b29b-947d6f1f2031","meta":{"profile":["http://hl7.org/fhir/us/qicore/StructureDefinition/qicore-organization"]},"identifier":[{"use":"temp","system":"urn:oid:2.16.840.1.113883.4.4","value":"21-3259825"}],"active":true,"type":[{"coding":[{"system":"http://terminology.hl7.org/CodeSystem/organization-type","code":"pay","display":"Payer"}]}],"name":"Blue Cross Blue Shield of Texas","telecom":[{"system":"phone","value":"(+1) 972-766-6900"}],"address":[{"use":"billing","type":"postal","line":["P.O. Box 660044"],"city":"Dallas","state":"TX","postalCode":"75266-0044","country":"USA"}]},"request":{"method":"PUT","url":"Organization/9e9b3f13-a353-4173-b29b-947d6f1f2031"}},{"fullUrl":"https://madie.cms.gov/Practitioner/practitioner-123456","resource":{"resourceType":"Practitioner","id":"8cedb716-adc6-486b-9bd6-2d150ff4bf40","identifier":[{"system":"http://hl7.org/fhir/sid/us-npi","value":"123456"}],"name":[{"family":"Evil","prefix":["Dr"]}]},"request":{"method":"PUT","url":"Practitioner/8cedb716-adc6-486b-9bd6-2d150ff4bf40"}},{"fullUrl":"https://madie.cms.gov/MeasureReport/b4403777-1e8d-4693-a96e-c131c1401a60","resource":{"resourceType":"MeasureReport","id":"b4403777-1e8d-4693-a96e-c131c1401a60","meta":{"profile":["http://hl7.org/fhir/us/cqfmeasures/StructureDefinition/test-case-cqfm"]},"contained":[{"resourceType":"Parameters","id":"604a35a7-e705-4353-9d94-2d30693ca84a-parameters","parameter":[{"name":"subject","valueString":"29fd4e9e-7f7c-4356-8d72-7eabc8060963"}]}],"extension":[{"url":"http://hl7.org/fhir/us/cqfmeasures/StructureDefinition/cqfm-inputParameters","valueReference":{"reference":"#604a35a7-e705-4353-9d94-2d30693ca84a-parameters"}},{"url":"http://hl7.org/fhir/us/cqfmeasures/StructureDefinition/cqfm-testCaseDescription","valueMarkdown":"\"Diagnosis = Afib/flutter start time > encounter end time\nThis case tests the denominator diagnosis criteria (does not meet criteria). \"\n"}],"modifierExtension":[{"url":"http://hl7.org/fhir/us/cqfmeasures/StructureDefinition/cqfm-isTestCase","valueBoolean":true}],"status":"complete","type":"individual","measure":"https://madie.cms.gov/Measure/AnticoagulationTherapyforAtrialFibrillationFlutterFHIR","period":{"start":"2025-01-01","end":"2025-12-31"},"group":[{"population":[{"code":{"coding":[{"system":"http://terminology.hl7.org/CodeSystem/measure-population","code":"initial-population","display":"Initial Population"}]},"count":1},{"code":{"coding":[{"system":"http://terminology.hl7.org/CodeSystem/measure-population","code":"denominator","display":"Denominator"}]},"count":0},{"code":{"coding":[{"system":"http://terminology.hl7.org/CodeSystem/measure-population","code":"denominator-exclusion","display":"Denominator Exclusion"}]},"count":0},{"code":{"coding":[{"system":"http://terminology.hl7.org/CodeSystem/measure-population","code":"numerator","display":"Numerator"}]},"count":0},{"code":{"coding":[{"system":"http://terminology.hl7.org/CodeSystem/measure-population","code":"denominator-exception","display":"Denominator Exception"}]},"count":0}]}]},"request":{"method":"PUT","url":"MeasureReport/b4403777-1e8d-4693-a96e-c131c1401a60"}}]}