{"resourceType":"Bundle","id":"tests-86d68293-66ae-425b-bc4a-9ce429f4621e-bundle","type":"transaction","entry":[{"fullUrl":"https://madie.cms.gov/Patient/86d68293-66ae-425b-bc4a-9ce429f4621e","resource":{"resourceType":"Patient","id":"86d68293-66ae-425b-bc4a-9ce429f4621e","meta":{"profile":["http://hl7.org/fhir/us/qicore/StructureDefinition/qicore-patient"]},"text":{"status":"generated","div":"<div xmlns=\"http://www.w3.org/1999/xhtml\"><div class=\"hapiHeaderText\">CMPdurEnc_NoEDNoObsBFEnc_DateTime <b>DENEXPASS </b></div><table class=\"hapiPropertyTable\"><tbody><tr><td>Identifier</td><td>669cd2691aaab3d70b8b307e64426a43</td></tr><tr><td>Date of birth</td><td><span>18 September 1985</span></td></tr></tbody></table></div>"},"extension":[{"url":"http://hl7.org/fhir/us/core/StructureDefinition/us-core-race","extension":[{"url":"ombCategory","valueCoding":{"system":"urn:oid:2.16.840.1.113883.6.238","code":"1002-5","display":"American Indian or Alaska Native","userSelected":true}},{"url":"text","valueString":"American Indian or Alaska Native"}]},{"url":"http://hl7.org/fhir/us/core/StructureDefinition/us-core-ethnicity","extension":[{"url":"ombCategory","valueCoding":{"system":"urn:oid:2.16.840.1.113883.6.238","code":"2135-2","display":"Hispanic or Latino","userSelected":true}},{"url":"text","valueString":"Hispanic or Latino"}]}],"identifier":[{"type":{"coding":[{"system":"http://terminology.hl7.org/CodeSystem/v2-0203","code":"MR"}]},"system":"https://bonnie-fhir.healthit.gov/","value":"633c9d040968f8012250fcb4"}],"active":true,"name":[{"use":"usual","family":"DENEXPass","given":["CMPdurEnc_NoEDNoObsBFEnc_DateTime"]}],"gender":"female","birthDate":"1985-09-18"},"request":{"method":"PUT","url":"Patient/86d68293-66ae-425b-bc4a-9ce429f4621e"}},{"fullUrl":"https://madie.cms.gov/Condition/5c953f96b848462de0ae40c4","resource":{"resourceType":"Condition","id":"5879a35e-61ac-46a8-9617-c704821cc29f","meta":{"profile":["http://hl7.org/fhir/us/qicore/StructureDefinition/qicore-condition"]},"clinicalStatus":{"coding":[{"system":"http://terminology.hl7.org/CodeSystem/condition-clinical","code":"inactive"}]},"verificationStatus":{"coding":[{"system":"http://terminology.hl7.org/CodeSystem/condition-ver-status","code":"confirmed"}]},"category":[{"coding":[{"system":"http://terminology.hl7.org/CodeSystem/condition-category","code":"encounter-diagnosis","display":"Encounter Diagnosis"}]}],"code":{"coding":[{"system":"http://hl7.org/fhir/sid/icd-10-cm","code":"I48.20"},{"system":"http://hl7.org/fhir/sid/icd-10-cm","code":"I48.0"},{"system":"http://snomed.info/sct","code":"5370000"}]},"subject":{"reference":"Patient/86d68293-66ae-425b-bc4a-9ce429f4621e"},"onsetDateTime":"2025-10-01T09:00:00.000Z","abatementDateTime":"2025-10-12T00:15:00.000Z"},"request":{"method":"PUT","url":"Condition/5879a35e-61ac-46a8-9617-c704821cc29f"}},{"fullUrl":"https://madie.cms.gov/Encounter/5c953f96b848462de0ae40c5","resource":{"resourceType":"Encounter","id":"b7605841-2835-4605-a05f-f6fc0b70f11c","meta":{"profile":["http://hl7.org/fhir/us/qicore/StructureDefinition/qicore-encounter"]},"status":"finished","class":{"system":"http://terminology.hl7.org/CodeSystem/v3-ActCode","code":"IMP","display":"inpatient encounter"},"type":[{"coding":[{"system":"http://snomed.info/sct","code":"32485007"}]}],"subject":{"reference":"Patient/86d68293-66ae-425b-bc4a-9ce429f4621e"},"period":{"start":"2025-10-01T09:00:00.000Z","end":"2025-10-12T00:15:00.000Z"},"length":{"value":11,"unit":"days"},"diagnosis":[{"condition":{"reference":"Condition/ischemic-stroke-1961"},"use":{"coding":[{"system":"http://terminology.hl7.org/CodeSystem/diagnosis-role","code":"billing","display":"Billing"}]},"rank":1}]},"request":{"method":"PUT","url":"Encounter/b7605841-2835-4605-a05f-f6fc0b70f11c"}},{"fullUrl":"https://madie.cms.gov/Procedure/5c953f96b848462de0ae40c7","resource":{"resourceType":"Procedure","id":"2404d6cb-eaf9-4bf0-a0cb-25b3243abdc9","meta":{"profile":["http://hl7.org/fhir/us/qicore/StructureDefinition/qicore-procedure"]},"extension":[{"url":"http://hl7.org/fhir/us/qicore/StructureDefinition/qicore-recorded","valueDateTime":"2025-11-19T09:35:00-04:00"}],"status":"completed","code":{"coding":[{"system":"http://snomed.info/sct","code":"133918004"}]},"subject":{"reference":"Patient/86d68293-66ae-425b-bc4a-9ce429f4621e"},"performedDateTime":"2025-10-01T09:01:00.000+00:00"},"request":{"method":"PUT","url":"Procedure/2404d6cb-eaf9-4bf0-a0cb-25b3243abdc9"}},{"fullUrl":"https://madie.cms.gov/Coverage/5f2c53cb1c76ba5c99605720","resource":{"resourceType":"Coverage","id":"dc2c2aac-a225-45f9-93e6-b1f715951b09","status":"active","beneficiary":{"reference":"Patient/86d68293-66ae-425b-bc4a-9ce429f4621e"},"period":{"start":"1985-09-18T08:00:00.000Z"},"payor":[{"reference":"Organization/5224cb12-ed64-4d6d-ab28-40a64f0800f1"}]},"request":{"method":"PUT","url":"Coverage/dc2c2aac-a225-45f9-93e6-b1f715951b09"}},{"fullUrl":"https://madie.cms.gov/Condition/ischemic-stroke-1961","resource":{"resourceType":"Condition","id":"58995672-b156-4949-9cdb-3d56d608f3bb","meta":{"profile":["http://hl7.org/fhir/us/qicore/StructureDefinition/qicore-condition"]},"clinicalStatus":{"coding":[{"system":"http://terminology.hl7.org/CodeSystem/condition-clinical","code":"active"}]},"verificationStatus":{"coding":[{"system":"http://terminology.hl7.org/CodeSystem/condition-ver-status","code":"confirmed"}]},"category":[{"coding":[{"system":"http://terminology.hl7.org/CodeSystem/condition-category","code":"encounter-diagnosis","display":"Encounter Diagnosis"}]}],"code":{"coding":[{"system":"http://snomed.info/sct","version":"2021-09","code":"111297002","display":"Nonparalytic stroke (disorder)","userSelected":true}]},"subject":{"reference":"Patient/86d68293-66ae-425b-bc4a-9ce429f4621e"},"recordedDate":"2025-10-13T08:00:00.000+00:00"},"request":{"method":"PUT","url":"Condition/58995672-b156-4949-9cdb-3d56d608f3bb"}},{"fullUrl":"https://madie.cms.gov/Organization/123456","resource":{"resourceType":"Organization","id":"5224cb12-ed64-4d6d-ab28-40a64f0800f1","meta":{"profile":["http://hl7.org/fhir/us/qicore/StructureDefinition/qicore-organization"]},"identifier":[{"use":"temp","system":"urn:oid:2.16.840.1.113883.4.4","value":"21-3259825"}],"active":true,"type":[{"coding":[{"system":"http://terminology.hl7.org/CodeSystem/organization-type","code":"pay","display":"Payer"}]}],"name":"Blue Cross Blue Shield of Texas","telecom":[{"system":"phone","value":"(+1) 972-766-6900"}],"address":[{"use":"billing","type":"postal","line":["P.O. Box 660044"],"city":"Dallas","state":"TX","postalCode":"75266-0044","country":"USA"}]},"request":{"method":"PUT","url":"Organization/5224cb12-ed64-4d6d-ab28-40a64f0800f1"}},{"fullUrl":"https://madie.cms.gov/Practitioner/practitioner-123456","resource":{"resourceType":"Practitioner","id":"fb27f893-ca28-4ce7-9987-fd54c7a34a2a","identifier":[{"system":"http://hl7.org/fhir/sid/us-npi","value":"123456"}],"name":[{"family":"Evil","prefix":["Dr"]}]},"request":{"method":"PUT","url":"Practitioner/fb27f893-ca28-4ce7-9987-fd54c7a34a2a"}},{"fullUrl":"https://madie.cms.gov/MeasureReport/7e60976b-bf62-4afb-b29b-f04cbccf4818","resource":{"resourceType":"MeasureReport","id":"7e60976b-bf62-4afb-b29b-f04cbccf4818","meta":{"profile":["http://hl7.org/fhir/us/cqfmeasures/StructureDefinition/test-case-cqfm"]},"contained":[{"resourceType":"Parameters","id":"f6387a9e-ebd4-4faf-99f6-7dd8b191c32f-parameters","parameter":[{"name":"subject","valueString":"86d68293-66ae-425b-bc4a-9ce429f4621e"}]}],"extension":[{"url":"http://hl7.org/fhir/us/cqfmeasures/StructureDefinition/cqfm-inputParameters","valueReference":{"reference":"#f6387a9e-ebd4-4faf-99f6-7dd8b191c32f-parameters"}},{"url":"http://hl7.org/fhir/us/cqfmeasures/StructureDefinition/cqfm-testCaseDescription","valueMarkdown":"Patient receives CMP during inpatient encounter. No ED. No Obs. Testing HospitalizationWithObservation function\n"}],"modifierExtension":[{"url":"http://hl7.org/fhir/us/cqfmeasures/StructureDefinition/cqfm-isTestCase","valueBoolean":true}],"status":"complete","type":"individual","measure":"https://madie.cms.gov/Measure/AnticoagulationTherapyforAtrialFibrillationFlutterFHIR","period":{"start":"2025-01-01","end":"2025-12-31"},"group":[{"population":[{"code":{"coding":[{"system":"http://terminology.hl7.org/CodeSystem/measure-population","code":"initial-population","display":"Initial Population"}]},"count":1},{"code":{"coding":[{"system":"http://terminology.hl7.org/CodeSystem/measure-population","code":"denominator","display":"Denominator"}]},"count":1},{"code":{"coding":[{"system":"http://terminology.hl7.org/CodeSystem/measure-population","code":"denominator-exclusion","display":"Denominator Exclusion"}]},"count":1},{"code":{"coding":[{"system":"http://terminology.hl7.org/CodeSystem/measure-population","code":"numerator","display":"Numerator"}]},"count":0},{"code":{"coding":[{"system":"http://terminology.hl7.org/CodeSystem/measure-population","code":"denominator-exception","display":"Denominator Exception"}]},"count":0}]}]},"request":{"method":"PUT","url":"MeasureReport/7e60976b-bf62-4afb-b29b-f04cbccf4818"}}]}