{"resourceType":"Bundle","id":"tests-67622b2b-10f4-44c5-be6e-7f15b78f1464-bundle","type":"transaction","entry":[{"fullUrl":"https://madie.cms.gov/Patient/67622b2b-10f4-44c5-be6e-7f15b78f1464","resource":{"resourceType":"Patient","id":"67622b2b-10f4-44c5-be6e-7f15b78f1464","meta":{"profile":["http://hl7.org/fhir/us/qicore/StructureDefinition/qicore-patient"]},"text":{"status":"generated","div":"<div xmlns=\"http://www.w3.org/1999/xhtml\"><div class=\"hapiHeaderText\">2IPPass1IPFail DENEXPass <b>NUMERPASSX1 </b></div><table class=\"hapiPropertyTable\"><tbody><tr><td>Identifier</td><td>52c14de634122f39abfbd9ffaa41bc27</td></tr><tr><td>Date of birth</td><td><span>23 May 1954</span></td></tr></tbody></table></div>"},"extension":[{"url":"http://hl7.org/fhir/us/core/StructureDefinition/us-core-race","extension":[{"url":"ombCategory","valueCoding":{"system":"urn:oid:2.16.840.1.113883.6.238","code":"1002-5","display":"American Indian or Alaska Native","userSelected":true}},{"url":"text","valueString":"American Indian or Alaska Native"}]},{"url":"http://hl7.org/fhir/us/core/StructureDefinition/us-core-ethnicity","extension":[{"url":"ombCategory","valueCoding":{"system":"urn:oid:2.16.840.1.113883.6.238","code":"2135-2","display":"Hispanic or Latino","userSelected":true}},{"url":"text","valueString":"Hispanic or Latino"}]}],"identifier":[{"type":{"coding":[{"system":"http://terminology.hl7.org/CodeSystem/v2-0203","code":"MR"}]},"system":"https://bonnie-fhir.healthit.gov/","value":"633c9d040968f8012250fcaf"}],"active":true,"name":[{"use":"usual","family":"NUMERPassX1","given":["2IPPass1IPFail DENEXPass"]}],"gender":"female","birthDate":"1954-05-23"},"request":{"method":"PUT","url":"Patient/67622b2b-10f4-44c5-be6e-7f15b78f1464"}},{"fullUrl":"https://madie.cms.gov/Encounter/5c953f96b848462de0ae406d","resource":{"resourceType":"Encounter","id":"72b874be-5d5d-41ce-b8d5-a9c55102cdbf","meta":{"profile":["http://hl7.org/fhir/us/qicore/StructureDefinition/qicore-encounter"]},"status":"finished","class":{"system":"http://terminology.hl7.org/CodeSystem/v3-ActCode","code":"IMP","display":"inpatient encounter"},"type":[{"coding":[{"system":"http://snomed.info/sct","code":"32485007"}]}],"subject":{"reference":"Patient/67622b2b-10f4-44c5-be6e-7f15b78f1464"},"period":{"start":"2025-11-20T08:00:00.000Z","end":"2025-11-24T08:15:00.000Z"},"length":{"value":4,"unit":"days"},"diagnosis":[{"condition":{"reference":"Condition/ischemic-stroke-19a4"},"use":{"coding":[{"system":"http://terminology.hl7.org/CodeSystem/diagnosis-role","code":"billing","display":"Billing"}]},"rank":1}]},"request":{"method":"PUT","url":"Encounter/72b874be-5d5d-41ce-b8d5-a9c55102cdbf"}},{"fullUrl":"https://madie.cms.gov/Encounter/5e309320ef08fe00001553e0","resource":{"resourceType":"Encounter","id":"e151fd9c-85eb-44c4-8f82-5ab6ddcaeccb","meta":{"profile":["http://hl7.org/fhir/us/qicore/StructureDefinition/qicore-encounter"]},"status":"finished","class":{"system":"http://terminology.hl7.org/CodeSystem/v3-ActCode","code":"IMP","display":"inpatient encounter"},"type":[{"coding":[{"system":"http://snomed.info/sct","code":"183452005"}]}],"subject":{"reference":"Patient/67622b2b-10f4-44c5-be6e-7f15b78f1464"},"period":{"start":"2025-10-28T08:00:00.000Z","end":"2025-10-30T08:15:00.000Z"},"diagnosis":[{"condition":{"reference":"Condition/atrial-ablation-19a5"},"use":{"coding":[{"system":"http://terminology.hl7.org/CodeSystem/diagnosis-role","code":"billing","display":"Billing"}]},"rank":2}]},"request":{"method":"PUT","url":"Encounter/e151fd9c-85eb-44c4-8f82-5ab6ddcaeccb"}},{"fullUrl":"https://madie.cms.gov/Encounter/5e30973bef08fe0000155769","resource":{"resourceType":"Encounter","id":"bda1eba3-843b-467d-9ae6-6f51dda14aa4","meta":{"profile":["http://hl7.org/fhir/us/qicore/StructureDefinition/qicore-encounter"]},"status":"finished","class":{"system":"http://terminology.hl7.org/CodeSystem/v3-ActCode","code":"IMP","display":"inpatient encounter"},"type":[{"coding":[{"system":"http://snomed.info/sct","code":"183452005"}]}],"subject":{"reference":"Patient/67622b2b-10f4-44c5-be6e-7f15b78f1464"},"period":{"start":"2025-09-03T08:00:00.000Z","end":"2025-09-07T08:15:00.000Z"},"length":{"value":4,"unit":"days"},"diagnosis":[{"condition":{"reference":"Condition/atrial-ablation-19a5"},"use":{"coding":[{"system":"http://www.cms.gov/Medicare/Coding/ICD10","code":"02560ZZ","display":"Destruction of Right Atrium, Open Approach"}]}},{"condition":{"reference":"Condition/atrial-fibrillation-flutter-19a7"}},{"condition":{"reference":"Condition/ischemic-stroke-19a8"},"use":{"coding":[{"system":"http://terminology.hl7.org/CodeSystem/diagnosis-role","code":"billing","display":"Billing"}]},"rank":1}]},"request":{"method":"PUT","url":"Encounter/bda1eba3-843b-467d-9ae6-6f51dda14aa4"}},{"fullUrl":"https://madie.cms.gov/ServiceRequest/5e309a40ef08fe0000155922","resource":{"resourceType":"ServiceRequest","id":"59cb8624-c1fa-4c48-97fe-745659f8aaa4","meta":{"profile":["http://hl7.org/fhir/us/qicore/StructureDefinition/qicore-servicerequest"]},"status":"active","intent":"order","code":{"coding":[{"system":"http://snomed.info/sct","code":"133918004"}]},"subject":{"reference":"Patient/67622b2b-10f4-44c5-be6e-7f15b78f1464"},"authoredOn":"2025-11-20T08:00:00.000+00:00"},"request":{"method":"PUT","url":"ServiceRequest/59cb8624-c1fa-4c48-97fe-745659f8aaa4"}},{"fullUrl":"https://madie.cms.gov/MedicationRequest/5c953f96b848462de0ae406f","resource":{"resourceType":"MedicationRequest","id":"149db3b9-bc95-4881-ae3b-476d637a0d44","meta":{"profile":["http://hl7.org/fhir/us/qicore/StructureDefinition/qicore-mednotrequested"]},"status":"completed","intent":"order","category":[{"coding":[{"system":"http://terminology.hl7.org/CodeSystem/medicationrequest-category","code":"community"}]}],"doNotPerform":true,"medicationCodeableConcept":{"coding":[{"system":"http://www.nlm.nih.gov/research/umls/rxnorm","code":"308351"}]},"subject":{"reference":"Patient/67622b2b-10f4-44c5-be6e-7f15b78f1464"},"authoredOn":"2025-09-07T08:00:00.000+00:00","requester":{"reference":"Practitioner/example"},"reasonCode":[{"coding":[{"system":"http://snomed.info/sct","code":"183966005","display":"Drug treatment not indicated (situation)"}]}]},"request":{"method":"PUT","url":"MedicationRequest/149db3b9-bc95-4881-ae3b-476d637a0d44"}},{"fullUrl":"https://madie.cms.gov/MedicationRequest/5e30936eef08fe0000155444","resource":{"resourceType":"MedicationRequest","id":"8af914d7-f502-4361-829d-ceac34d70c5e","meta":{"profile":["http://hl7.org/fhir/us/qicore/StructureDefinition/qicore-medicationrequest"]},"status":"active","intent":"order","category":[{"coding":[{"system":"http://terminology.hl7.org/CodeSystem/medicationrequest-category","code":"community","display":"Community","userSelected":true}]}],"medicationCodeableConcept":{"coding":[{"system":"http://www.nlm.nih.gov/research/umls/rxnorm","version":"2022-01","code":"1114198","display":"rivaroxaban 10 MG Oral Tablet","userSelected":true}]},"subject":{"reference":"Patient/67622b2b-10f4-44c5-be6e-7f15b78f1464"},"authoredOn":"2025-11-24T08:00:00.000+00:00","requester":{"reference":"Practitioner/example"}},"request":{"method":"PUT","url":"MedicationRequest/8af914d7-f502-4361-829d-ceac34d70c5e"}},{"fullUrl":"https://madie.cms.gov/Coverage/5f2c53d01c76ba5c996057ad","resource":{"resourceType":"Coverage","id":"084cacb6-4585-468e-83d8-77eceab3626c","status":"active","beneficiary":{"reference":"Patient/67622b2b-10f4-44c5-be6e-7f15b78f1464"},"period":{"start":"1954-05-23T08:00:00.000Z"},"payor":[{"reference":"Organization/33ead57e-5e04-40e4-95ea-bc3cdbd58917"}]},"request":{"method":"PUT","url":"Coverage/084cacb6-4585-468e-83d8-77eceab3626c"}},{"fullUrl":"https://madie.cms.gov/Procedure/5c953f96b848462de0ae4070","resource":{"resourceType":"Procedure","id":"3728c90c-2cc4-47e0-a5d3-acb815415999","meta":{"profile":["http://hl7.org/fhir/us/qicore/StructureDefinition/qicore-procedure"]},"extension":[{"url":"http://hl7.org/fhir/us/qicore/StructureDefinition/qicore-recorded","valueDateTime":"2025-11-19T09:35:00-04:00"}],"status":"completed","code":{"coding":[{"system":"http://www.cms.gov/Medicare/Coding/ICD10","code":"02560ZZ"},{"system":"http://snomed.info/sct","code":"175095005"}]},"subject":{"reference":"Patient/67622b2b-10f4-44c5-be6e-7f15b78f1464"},"performedPeriod":{"start":"2025-11-20T06:00:00.000Z","end":"2025-11-20T07:15:00.000Z"}},"request":{"method":"PUT","url":"Procedure/3728c90c-2cc4-47e0-a5d3-acb815415999"}},{"fullUrl":"https://madie.cms.gov/Condition/ischemic-stroke-19a4","resource":{"resourceType":"Condition","id":"9709ea38-4a0b-46e3-96d5-3e5c146ab35c","meta":{"profile":["http://hl7.org/fhir/us/qicore/StructureDefinition/qicore-condition"]},"clinicalStatus":{"coding":[{"system":"http://terminology.hl7.org/CodeSystem/condition-clinical","code":"active"}]},"verificationStatus":{"coding":[{"system":"http://terminology.hl7.org/CodeSystem/condition-ver-status","code":"confirmed"}]},"category":[{"coding":[{"system":"http://terminology.hl7.org/CodeSystem/condition-category","code":"encounter-diagnosis","display":"Encounter Diagnosis"}]}],"code":{"coding":[{"system":"http://snomed.info/sct","version":"2021-09","code":"111297002","display":"Nonparalytic stroke (disorder)","userSelected":true}]},"subject":{"reference":"Patient/67622b2b-10f4-44c5-be6e-7f15b78f1464"},"recordedDate":"2025-10-13T08:00:00.000+00:00"},"request":{"method":"PUT","url":"Condition/9709ea38-4a0b-46e3-96d5-3e5c146ab35c"}},{"fullUrl":"https://madie.cms.gov/Condition/atrial-ablation-19a5","resource":{"resourceType":"Condition","id":"d867da5c-dea0-4f30-b869-4c72967749a6","meta":{"profile":["http://hl7.org/fhir/us/qicore/StructureDefinition/qicore-condition"]},"clinicalStatus":{"coding":[{"system":"http://terminology.hl7.org/CodeSystem/condition-clinical","code":"active"}]},"verificationStatus":{"coding":[{"system":"http://terminology.hl7.org/CodeSystem/condition-ver-status","code":"confirmed"}]},"category":[{"coding":[{"system":"http://terminology.hl7.org/CodeSystem/condition-category","code":"encounter-diagnosis","display":"Encounter Diagnosis"}]}],"code":{"coding":[{"system":"http://www.icd10data.com/icd10pcs","version":"2022","code":"02560ZZ","display":"Destruction of Right Atrium, Open Approach","userSelected":true}]},"subject":{"reference":"Patient/67622b2b-10f4-44c5-be6e-7f15b78f1464"},"recordedDate":"2025-10-13T08:00:00.000+00:00"},"request":{"method":"PUT","url":"Condition/d867da5c-dea0-4f30-b869-4c72967749a6"}},{"fullUrl":"https://madie.cms.gov/Condition/ischemic-stroke-19a6","resource":{"resourceType":"Condition","id":"0cc59081-027c-4584-aeb7-cbfebc039631","meta":{"profile":["http://hl7.org/fhir/us/qicore/StructureDefinition/qicore-condition"]},"clinicalStatus":{"coding":[{"system":"http://terminology.hl7.org/CodeSystem/condition-clinical","code":"active"}]},"verificationStatus":{"coding":[{"system":"http://terminology.hl7.org/CodeSystem/condition-ver-status","code":"confirmed"}]},"category":[{"coding":[{"system":"http://terminology.hl7.org/CodeSystem/condition-category","code":"encounter-diagnosis","display":"Encounter Diagnosis"}]}],"code":{"coding":[{"system":"http://snomed.info/sct","version":"2021-09","code":"111297002","display":"Nonparalytic stroke (disorder)","userSelected":true}]},"subject":{"reference":"Patient/67622b2b-10f4-44c5-be6e-7f15b78f1464"},"recordedDate":"2025-10-13T08:00:00.000+00:00"},"request":{"method":"PUT","url":"Condition/0cc59081-027c-4584-aeb7-cbfebc039631"}},{"fullUrl":"https://madie.cms.gov/Condition/atrial-fibrillation-flutter-19a7","resource":{"resourceType":"Condition","id":"975e483b-2d4d-40db-bf1e-1c6db34b0adf","meta":{"profile":["http://hl7.org/fhir/us/qicore/StructureDefinition/qicore-condition"]},"clinicalStatus":{"coding":[{"system":"http://terminology.hl7.org/CodeSystem/condition-clinical","code":"active"}]},"verificationStatus":{"coding":[{"system":"http://terminology.hl7.org/CodeSystem/condition-ver-status","code":"confirmed"}]},"category":[{"coding":[{"system":"http://terminology.hl7.org/CodeSystem/condition-category","code":"encounter-diagnosis","display":"Encounter Diagnosis"}]}],"code":{"coding":[{"system":"http://snomed.info/sct","version":"2021-09","code":"120041000119109","display":"Atrial fibrillation with rapid ventricular response (disorder)","userSelected":true}]},"subject":{"reference":"Patient/67622b2b-10f4-44c5-be6e-7f15b78f1464"},"recordedDate":"2025-10-13T08:00:00.000+00:00"},"request":{"method":"PUT","url":"Condition/975e483b-2d4d-40db-bf1e-1c6db34b0adf"}},{"fullUrl":"https://madie.cms.gov/Condition/ischemic-stroke-19a8","resource":{"resourceType":"Condition","id":"abea1017-2595-42fc-9850-e10bca010ad3","meta":{"profile":["http://hl7.org/fhir/us/qicore/StructureDefinition/qicore-condition"]},"clinicalStatus":{"coding":[{"system":"http://terminology.hl7.org/CodeSystem/condition-clinical","code":"active"}]},"verificationStatus":{"coding":[{"system":"http://terminology.hl7.org/CodeSystem/condition-ver-status","code":"confirmed"}]},"category":[{"coding":[{"system":"http://terminology.hl7.org/CodeSystem/condition-category","code":"encounter-diagnosis","display":"Encounter Diagnosis"}]}],"code":{"coding":[{"system":"http://snomed.info/sct","version":"2021-09","code":"111297002","display":"Nonparalytic stroke (disorder)","userSelected":true}]},"subject":{"reference":"Patient/67622b2b-10f4-44c5-be6e-7f15b78f1464"},"recordedDate":"2025-10-13T08:00:00.000+00:00"},"request":{"method":"PUT","url":"Condition/abea1017-2595-42fc-9850-e10bca010ad3"}},{"fullUrl":"https://madie.cms.gov/Organization/123456","resource":{"resourceType":"Organization","id":"33ead57e-5e04-40e4-95ea-bc3cdbd58917","meta":{"profile":["http://hl7.org/fhir/us/qicore/StructureDefinition/qicore-organization"]},"identifier":[{"use":"temp","system":"urn:oid:2.16.840.1.113883.4.4","value":"21-3259825"}],"active":true,"type":[{"coding":[{"system":"http://terminology.hl7.org/CodeSystem/organization-type","code":"pay","display":"Payer"}]}],"name":"Blue Cross Blue Shield of Texas","telecom":[{"system":"phone","value":"(+1) 972-766-6900"}],"address":[{"use":"billing","type":"postal","line":["P.O. Box 660044"],"city":"Dallas","state":"TX","postalCode":"75266-0044","country":"USA"}]},"request":{"method":"PUT","url":"Organization/33ead57e-5e04-40e4-95ea-bc3cdbd58917"}},{"fullUrl":"https://madie.cms.gov/Practitioner/practitioner-123456","resource":{"resourceType":"Practitioner","id":"7422035e-60d3-4aea-9d66-c2530bf03e82","identifier":[{"system":"http://hl7.org/fhir/sid/us-npi","value":"123456"}],"name":[{"family":"Evil","prefix":["Dr"]}]},"request":{"method":"PUT","url":"Practitioner/7422035e-60d3-4aea-9d66-c2530bf03e82"}},{"fullUrl":"https://madie.cms.gov/MeasureReport/38a0708e-2a13-44fc-85fc-db27675855b6","resource":{"resourceType":"MeasureReport","id":"38a0708e-2a13-44fc-85fc-db27675855b6","meta":{"profile":["http://hl7.org/fhir/us/cqfmeasures/StructureDefinition/test-case-cqfm"]},"contained":[{"resourceType":"Parameters","id":"10943c08-6fd3-4480-9623-a13db6257ada-parameters","parameter":[{"name":"subject","valueString":"67622b2b-10f4-44c5-be6e-7f15b78f1464"}]}],"extension":[{"url":"http://hl7.org/fhir/us/cqfmeasures/StructureDefinition/cqfm-inputParameters","valueReference":{"reference":"#10943c08-6fd3-4480-9623-a13db6257ada-parameters"}},{"url":"http://hl7.org/fhir/us/cqfmeasures/StructureDefinition/cqfm-testCaseDescription","valueMarkdown":"Pt. discharged on anticoagulant, starts during encounter 1. Encounter 2 has admitting diagnosis with rank 2. Encounter 3 satisfies IPP and Denom. \n"}],"modifierExtension":[{"url":"http://hl7.org/fhir/us/cqfmeasures/StructureDefinition/cqfm-isTestCase","valueBoolean":true}],"status":"complete","type":"individual","measure":"https://madie.cms.gov/Measure/AnticoagulationTherapyforAtrialFibrillationFlutterFHIR","period":{"start":"2025-01-01","end":"2025-12-31"},"group":[{"population":[{"code":{"coding":[{"system":"http://terminology.hl7.org/CodeSystem/measure-population","code":"initial-population","display":"Initial Population"}]},"count":2},{"code":{"coding":[{"system":"http://terminology.hl7.org/CodeSystem/measure-population","code":"denominator","display":"Denominator"}]},"count":2},{"code":{"coding":[{"system":"http://terminology.hl7.org/CodeSystem/measure-population","code":"denominator-exclusion","display":"Denominator Exclusion"}]},"count":1},{"code":{"coding":[{"system":"http://terminology.hl7.org/CodeSystem/measure-population","code":"numerator","display":"Numerator"}]},"count":0},{"code":{"coding":[{"system":"http://terminology.hl7.org/CodeSystem/measure-population","code":"denominator-exception","display":"Denominator Exception"}]},"count":1}]}]},"request":{"method":"PUT","url":"MeasureReport/38a0708e-2a13-44fc-85fc-db27675855b6"}}]}