{"resourceType":"Bundle","id":"tests-0daf2fdb-6abc-4b7c-9417-3972c4813295-bundle","type":"transaction","entry":[{"fullUrl":"https://madie.cms.gov/Patient/0daf2fdb-6abc-4b7c-9417-3972c4813295","resource":{"resourceType":"Patient","id":"0daf2fdb-6abc-4b7c-9417-3972c4813295","meta":{"profile":["http://hl7.org/fhir/us/qicore/StructureDefinition/qicore-patient"]},"text":{"status":"generated","div":"<div xmlns=\"http://www.w3.org/1999/xhtml\"><div class=\"hapiHeaderText\">AtrialAblAfterEncStartDateTime <b>DENOMFAIL </b></div><table class=\"hapiPropertyTable\"><tbody><tr><td>Identifier</td><td>0ab8a288462c493a0716bd9a93a37855</td></tr><tr><td>Date of birth</td><td><span>01 December 1960</span></td></tr></tbody></table></div>"},"extension":[{"url":"http://hl7.org/fhir/us/core/StructureDefinition/us-core-race","extension":[{"url":"ombCategory","valueCoding":{"system":"urn:oid:2.16.840.1.113883.6.238","code":"1002-5","display":"American Indian or Alaska Native","userSelected":true}},{"url":"text","valueString":"American Indian or Alaska Native"}]},{"url":"http://hl7.org/fhir/us/core/StructureDefinition/us-core-ethnicity","extension":[{"url":"ombCategory","valueCoding":{"system":"urn:oid:2.16.840.1.113883.6.238","code":"2135-2","display":"Hispanic or Latino","userSelected":true}},{"url":"text","valueString":"Hispanic or Latino"}]}],"identifier":[{"type":{"coding":[{"system":"http://terminology.hl7.org/CodeSystem/v2-0203","code":"MR"}]},"system":"https://bonnie-fhir.healthit.gov/","value":"633c9d040968f8012250fcb3"}],"active":true,"name":[{"use":"usual","family":"DENOMFail","given":["AtrialAblAfterEncStartDateTime"]}],"gender":"male","birthDate":"1960-12-01"},"request":{"method":"PUT","url":"Patient/0daf2fdb-6abc-4b7c-9417-3972c4813295"}},{"fullUrl":"https://madie.cms.gov/Encounter/5c953f97b848462de0ae40e4","resource":{"resourceType":"Encounter","id":"080da9db-cf4f-4b28-8a42-4370774e7b94","meta":{"profile":["http://hl7.org/fhir/us/qicore/StructureDefinition/qicore-encounter"]},"status":"finished","class":{"system":"http://terminology.hl7.org/CodeSystem/v3-ActCode","code":"IMP","display":"inpatient encounter"},"type":[{"coding":[{"system":"http://snomed.info/sct","code":"32485007"}]}],"subject":{"reference":"Patient/0daf2fdb-6abc-4b7c-9417-3972c4813295"},"period":{"start":"2025-02-08T08:00:00.000Z","end":"2025-02-10T08:15:00.000Z"},"length":{"value":2,"unit":"days"},"diagnosis":[{"condition":{"reference":"Condition/ischemic-stroke-1973"},"use":{"coding":[{"system":"http://terminology.hl7.org/CodeSystem/diagnosis-role","code":"billing","display":"Billing"}]},"rank":1}]},"request":{"method":"PUT","url":"Encounter/080da9db-cf4f-4b28-8a42-4370774e7b94"}},{"fullUrl":"https://madie.cms.gov/Coverage/5f2c53cd1c76ba5c99605765","resource":{"resourceType":"Coverage","id":"8709d706-bb4e-4130-8a79-9cda3a68be8b","status":"active","beneficiary":{"reference":"Patient/0daf2fdb-6abc-4b7c-9417-3972c4813295"},"period":{"start":"1960-12-01T08:00:00.000Z"},"payor":[{"reference":"Organization/33ead57e-5e04-40e4-95ea-bc3cdbd58917"}]},"request":{"method":"PUT","url":"Coverage/8709d706-bb4e-4130-8a79-9cda3a68be8b"}},{"fullUrl":"https://madie.cms.gov/Procedure/5c953f97b848462de0ae40e6","resource":{"resourceType":"Procedure","id":"3e1cbe3d-b071-4511-9bd2-2b44da58747b","meta":{"profile":["http://hl7.org/fhir/us/qicore/StructureDefinition/qicore-procedure"]},"extension":[{"url":"http://hl7.org/fhir/us/qicore/StructureDefinition/qicore-recorded","valueDateTime":"2025-11-19T09:35:00-04:00"}],"status":"completed","code":{"coding":[{"system":"http://www.cms.gov/Medicare/Coding/ICD10","code":"02560ZZ"},{"system":"http://snomed.info/sct","code":"175095005"}]},"subject":{"reference":"Patient/0daf2fdb-6abc-4b7c-9417-3972c4813295"},"performedPeriod":{"start":"2025-02-08T09:00:00.000Z","end":"2025-02-08T10:00:00.000Z"}},"request":{"method":"PUT","url":"Procedure/3e1cbe3d-b071-4511-9bd2-2b44da58747b"}},{"fullUrl":"https://madie.cms.gov/Condition/ischemic-stroke-1973","resource":{"resourceType":"Condition","id":"6a1d7404-881c-4c60-abb6-e9517c55712c","meta":{"profile":["http://hl7.org/fhir/us/qicore/StructureDefinition/qicore-condition"]},"clinicalStatus":{"coding":[{"system":"http://terminology.hl7.org/CodeSystem/condition-clinical","code":"active"}]},"verificationStatus":{"coding":[{"system":"http://terminology.hl7.org/CodeSystem/condition-ver-status","code":"confirmed"}]},"category":[{"coding":[{"system":"http://terminology.hl7.org/CodeSystem/condition-category","code":"encounter-diagnosis","display":"Encounter Diagnosis"}]}],"code":{"coding":[{"system":"http://snomed.info/sct","version":"2021-09","code":"111297002","display":"Nonparalytic stroke (disorder)","userSelected":true}]},"subject":{"reference":"Patient/0daf2fdb-6abc-4b7c-9417-3972c4813295"},"recordedDate":"2025-10-13T08:00:00.000+00:00"},"request":{"method":"PUT","url":"Condition/6a1d7404-881c-4c60-abb6-e9517c55712c"}},{"fullUrl":"https://madie.cms.gov/Organization/123456","resource":{"resourceType":"Organization","id":"33ead57e-5e04-40e4-95ea-bc3cdbd58917","meta":{"profile":["http://hl7.org/fhir/us/qicore/StructureDefinition/qicore-organization"]},"identifier":[{"use":"temp","system":"urn:oid:2.16.840.1.113883.4.4","value":"21-3259825"}],"active":true,"type":[{"coding":[{"system":"http://terminology.hl7.org/CodeSystem/organization-type","code":"pay","display":"Payer"}]}],"name":"Blue Cross Blue Shield of Texas","telecom":[{"system":"phone","value":"(+1) 972-766-6900"}],"address":[{"use":"billing","type":"postal","line":["P.O. Box 660044"],"city":"Dallas","state":"TX","postalCode":"75266-0044","country":"USA"}]},"request":{"method":"PUT","url":"Organization/33ead57e-5e04-40e4-95ea-bc3cdbd58917"}},{"fullUrl":"https://madie.cms.gov/Practitioner/practitioner-123456","resource":{"resourceType":"Practitioner","id":"ec6187aa-271c-45c3-8af2-b2e9f98b1a3b","identifier":[{"system":"http://hl7.org/fhir/sid/us-npi","value":"123456"}],"name":[{"family":"Evil","prefix":["Dr"]}]},"request":{"method":"PUT","url":"Practitioner/ec6187aa-271c-45c3-8af2-b2e9f98b1a3b"}},{"fullUrl":"https://madie.cms.gov/MeasureReport/5ea1e80c-7f07-4e06-a3c4-7cc691e1b386","resource":{"resourceType":"MeasureReport","id":"5ea1e80c-7f07-4e06-a3c4-7cc691e1b386","meta":{"profile":["http://hl7.org/fhir/us/cqfmeasures/StructureDefinition/test-case-cqfm"]},"contained":[{"resourceType":"Parameters","id":"c45f08af-58f4-4a65-9830-aebd18a19437-parameters","parameter":[{"name":"subject","valueString":"0daf2fdb-6abc-4b7c-9417-3972c4813295"}]}],"extension":[{"url":"http://hl7.org/fhir/us/cqfmeasures/StructureDefinition/cqfm-inputParameters","valueReference":{"reference":"#c45f08af-58f4-4a65-9830-aebd18a19437-parameters"}},{"url":"http://hl7.org/fhir/us/cqfmeasures/StructureDefinition/cqfm-testCaseDescription","valueMarkdown":"Atrial Ablation starts after OccA Enc start time using Date Time. \n"}],"modifierExtension":[{"url":"http://hl7.org/fhir/us/cqfmeasures/StructureDefinition/cqfm-isTestCase","valueBoolean":true}],"status":"complete","type":"individual","measure":"https://madie.cms.gov/Measure/AnticoagulationTherapyforAtrialFibrillationFlutterFHIR","period":{"start":"2025-01-01","end":"2025-12-31"},"group":[{"population":[{"code":{"coding":[{"system":"http://terminology.hl7.org/CodeSystem/measure-population","code":"initial-population","display":"Initial Population"}]},"count":1},{"code":{"coding":[{"system":"http://terminology.hl7.org/CodeSystem/measure-population","code":"denominator","display":"Denominator"}]},"count":0},{"code":{"coding":[{"system":"http://terminology.hl7.org/CodeSystem/measure-population","code":"denominator-exclusion","display":"Denominator Exclusion"}]},"count":0},{"code":{"coding":[{"system":"http://terminology.hl7.org/CodeSystem/measure-population","code":"numerator","display":"Numerator"}]},"count":0},{"code":{"coding":[{"system":"http://terminology.hl7.org/CodeSystem/measure-population","code":"denominator-exception","display":"Denominator Exception"}]},"count":0}]}]},"request":{"method":"PUT","url":"MeasureReport/5ea1e80c-7f07-4e06-a3c4-7cc691e1b386"}}]}