{"resourceType":"Bundle","id":"tests-d4ee0f25-8c45-4db4-8795-b7dbdbbc1ecd-bundle","type":"transaction","entry":[{"fullUrl":"https://madie.cms.gov/Patient/d4ee0f25-8c45-4db4-8795-b7dbdbbc1ecd","resource":{"resourceType":"Patient","id":"d4ee0f25-8c45-4db4-8795-b7dbdbbc1ecd","meta":{"profile":["http://hl7.org/fhir/us/qicore/StructureDefinition/qicore-patient"]},"text":{"status":"generated","div":"<div xmlns=\"http://www.w3.org/1999/xhtml\"><div class=\"hapiHeaderText\">CMOdurEnc_NoEDObs&lt;1hrBFEnc <b>DENEXPASS </b></div><table class=\"hapiPropertyTable\"><tbody><tr><td>Identifier</td><td>02b0ef2e973beaec0a8b1e55c0dadc67beed7a4482dce2ae4bf0963095b983fa</td></tr><tr><td>Date of birth</td><td><span>18 September 1985</span></td></tr></tbody></table></div>"},"extension":[{"url":"http://hl7.org/fhir/us/core/StructureDefinition/us-core-race","extension":[{"url":"ombCategory","valueCoding":{"system":"urn:oid:2.16.840.1.113883.6.238","code":"1002-5","display":"American Indian or Alaska Native","userSelected":true}},{"url":"text","valueString":"American Indian or Alaska Native"}]},{"url":"http://hl7.org/fhir/us/core/StructureDefinition/us-core-ethnicity","extension":[{"url":"ombCategory","valueCoding":{"system":"urn:oid:2.16.840.1.113883.6.238","code":"2135-2","display":"Hispanic or Latino","userSelected":true}},{"url":"text","valueString":"Hispanic or Latino"}]}],"identifier":[{"type":{"coding":[{"system":"http://terminology.hl7.org/CodeSystem/v2-0203","code":"MR"}]},"system":"https://bonnie-fhir.healthit.gov/","value":"633c9d040968f8012250fca0"}],"active":true,"name":[{"use":"usual","family":"DENEXPass","given":["CMOdurEnc_NoEDObs<1hrBFEnc"]}],"gender":"female","birthDate":"1985-09-18"},"request":{"method":"PUT","url":"Patient/d4ee0f25-8c45-4db4-8795-b7dbdbbc1ecd"}},{"fullUrl":"https://madie.cms.gov/Condition/5c953f97b848462de0ae4113","resource":{"resourceType":"Condition","id":"b7742815-40a7-45b6-8504-eec8831c0d08","meta":{"profile":["http://hl7.org/fhir/us/qicore/StructureDefinition/qicore-condition"]},"clinicalStatus":{"coding":[{"system":"http://terminology.hl7.org/CodeSystem/condition-clinical","code":"inactive"}]},"verificationStatus":{"coding":[{"system":"http://terminology.hl7.org/CodeSystem/condition-ver-status","code":"confirmed"}]},"category":[{"coding":[{"system":"http://terminology.hl7.org/CodeSystem/condition-category","code":"encounter-diagnosis","display":"Encounter Diagnosis"}]}],"code":{"coding":[{"system":"http://hl7.org/fhir/sid/icd-10-cm","code":"I48.20"},{"system":"http://hl7.org/fhir/sid/icd-10-cm","code":"I48.0"},{"system":"http://snomed.info/sct","code":"5370000"}]},"subject":{"reference":"Patient/d4ee0f25-8c45-4db4-8795-b7dbdbbc1ecd"},"onsetDateTime":"2025-02-11T08:00:00.000Z","abatementDateTime":"2025-02-11T08:15:00.000Z"},"request":{"method":"PUT","url":"Condition/b7742815-40a7-45b6-8504-eec8831c0d08"}},{"fullUrl":"https://madie.cms.gov/Condition/5c953f97b848462de0ae4114","resource":{"resourceType":"Condition","id":"f003f7dd-1450-42c3-8446-0233fae74ccd","meta":{"profile":["http://hl7.org/fhir/us/qicore/StructureDefinition/qicore-condition"]},"clinicalStatus":{"coding":[{"system":"http://terminology.hl7.org/CodeSystem/condition-clinical","code":"inactive"}]},"verificationStatus":{"coding":[{"system":"http://terminology.hl7.org/CodeSystem/condition-ver-status","code":"confirmed"}]},"category":[{"coding":[{"system":"http://terminology.hl7.org/CodeSystem/condition-category","code":"encounter-diagnosis","display":"Encounter Diagnosis"}]}],"code":{"coding":[{"system":"http://hl7.org/fhir/sid/icd-10-cm","code":"I48.20"},{"system":"http://hl7.org/fhir/sid/icd-10-cm","code":"I48.0"},{"system":"http://snomed.info/sct","code":"5370000"}]},"subject":{"reference":"Patient/d4ee0f25-8c45-4db4-8795-b7dbdbbc1ecd"},"onsetDateTime":"2025-10-01T09:00:00.000Z","abatementDateTime":"2025-10-12T08:15:00.000Z"},"request":{"method":"PUT","url":"Condition/f003f7dd-1450-42c3-8446-0233fae74ccd"}},{"fullUrl":"https://madie.cms.gov/Encounter/5c953f97b848462de0ae4115","resource":{"resourceType":"Encounter","id":"17aad593-9e47-48c5-90f9-5bfd642b42ca","meta":{"profile":["http://hl7.org/fhir/us/qicore/StructureDefinition/qicore-encounter"]},"status":"finished","class":{"system":"http://terminology.hl7.org/CodeSystem/v3-ActCode","code":"OBSENC","display":"observation encounter"},"type":[{"coding":[{"system":"http://snomed.info/sct","code":"448851000124103"}]}],"subject":{"reference":"Patient/d4ee0f25-8c45-4db4-8795-b7dbdbbc1ecd"},"period":{"start":"2025-10-01T06:00:00.000Z","end":"2025-10-01T09:59:00.000Z"},"length":{"value":0,"unit":"days"}},"request":{"method":"PUT","url":"Encounter/17aad593-9e47-48c5-90f9-5bfd642b42ca"}},{"fullUrl":"https://madie.cms.gov/Encounter/5c953f97b848462de0ae4116","resource":{"resourceType":"Encounter","id":"1ad6461e-929e-4b91-8b4a-338e0378fc46","meta":{"profile":["http://hl7.org/fhir/us/qicore/StructureDefinition/qicore-encounter"]},"status":"finished","class":{"system":"http://terminology.hl7.org/CodeSystem/v3-ActCode","code":"IMP","display":"inpatient encounter"},"type":[{"coding":[{"system":"http://snomed.info/sct","code":"32485007"}]}],"subject":{"reference":"Patient/d4ee0f25-8c45-4db4-8795-b7dbdbbc1ecd"},"period":{"start":"2025-10-01T10:00:00.000Z","end":"2025-10-12T08:15:00.000Z"},"length":{"value":11,"unit":"days"},"diagnosis":[{"condition":{"reference":"Condition/ischemic-stroke-196a"},"use":{"coding":[{"system":"http://terminology.hl7.org/CodeSystem/diagnosis-role","code":"billing","display":"Billing"}]},"rank":1}]},"request":{"method":"PUT","url":"Encounter/1ad6461e-929e-4b91-8b4a-338e0378fc46"}},{"fullUrl":"https://madie.cms.gov/ServiceRequest/5c953f97b848462de0ae4118","resource":{"resourceType":"ServiceRequest","id":"0ff60abf-8ae1-4946-87ff-79cb66e79f0d","meta":{"profile":["http://hl7.org/fhir/us/qicore/StructureDefinition/qicore-servicerequest"]},"status":"active","intent":"order","code":{"coding":[{"system":"http://snomed.info/sct","code":"133918004"}]},"subject":{"reference":"Patient/d4ee0f25-8c45-4db4-8795-b7dbdbbc1ecd"},"authoredOn":"2025-10-03T00:00:00.000+00:00"},"request":{"method":"PUT","url":"ServiceRequest/0ff60abf-8ae1-4946-87ff-79cb66e79f0d"}},{"fullUrl":"https://madie.cms.gov/Coverage/5f2c53cf1c76ba5c99605786","resource":{"resourceType":"Coverage","id":"8cb31cc9-1a0d-4f08-a2fb-d67ac3880c0a","status":"active","beneficiary":{"reference":"Patient/d4ee0f25-8c45-4db4-8795-b7dbdbbc1ecd"},"period":{"start":"1985-09-18T08:00:00.000Z"},"payor":[{"reference":"Organization/33ead57e-5e04-40e4-95ea-bc3cdbd58917"}]},"request":{"method":"PUT","url":"Coverage/8cb31cc9-1a0d-4f08-a2fb-d67ac3880c0a"}},{"fullUrl":"https://madie.cms.gov/Condition/ischemic-stroke-196a","resource":{"resourceType":"Condition","id":"24cfda40-e7bf-40ca-b1af-a058c59c6499","meta":{"profile":["http://hl7.org/fhir/us/qicore/StructureDefinition/qicore-condition"]},"clinicalStatus":{"coding":[{"system":"http://terminology.hl7.org/CodeSystem/condition-clinical","code":"active"}]},"verificationStatus":{"coding":[{"system":"http://terminology.hl7.org/CodeSystem/condition-ver-status","code":"confirmed"}]},"category":[{"coding":[{"system":"http://terminology.hl7.org/CodeSystem/condition-category","code":"encounter-diagnosis","display":"Encounter Diagnosis"}]}],"code":{"coding":[{"system":"http://snomed.info/sct","version":"2021-09","code":"111297002","display":"Nonparalytic stroke (disorder)","userSelected":true}]},"subject":{"reference":"Patient/d4ee0f25-8c45-4db4-8795-b7dbdbbc1ecd"},"recordedDate":"2025-10-13T08:00:00.000+00:00"},"request":{"method":"PUT","url":"Condition/24cfda40-e7bf-40ca-b1af-a058c59c6499"}},{"fullUrl":"https://madie.cms.gov/Organization/123456","resource":{"resourceType":"Organization","id":"33ead57e-5e04-40e4-95ea-bc3cdbd58917","meta":{"profile":["http://hl7.org/fhir/us/qicore/StructureDefinition/qicore-organization"]},"identifier":[{"use":"temp","system":"urn:oid:2.16.840.1.113883.4.4","value":"21-3259825"}],"active":true,"type":[{"coding":[{"system":"http://terminology.hl7.org/CodeSystem/organization-type","code":"pay","display":"Payer"}]}],"name":"Blue Cross Blue Shield of Texas","telecom":[{"system":"phone","value":"(+1) 972-766-6900"}],"address":[{"use":"billing","type":"postal","line":["P.O. Box 660044"],"city":"Dallas","state":"TX","postalCode":"75266-0044","country":"USA"}]},"request":{"method":"PUT","url":"Organization/33ead57e-5e04-40e4-95ea-bc3cdbd58917"}},{"fullUrl":"https://madie.cms.gov/Practitioner/practitioner-123456","resource":{"resourceType":"Practitioner","id":"cf2f867c-dac5-4b70-8ec9-7657cf10d59d","identifier":[{"system":"http://hl7.org/fhir/sid/us-npi","value":"123456"}],"name":[{"family":"Evil","prefix":["Dr"]}]},"request":{"method":"PUT","url":"Practitioner/cf2f867c-dac5-4b70-8ec9-7657cf10d59d"}},{"fullUrl":"https://madie.cms.gov/MeasureReport/eaae806c-c7f8-4f6a-9d47-48faf9155e68","resource":{"resourceType":"MeasureReport","id":"eaae806c-c7f8-4f6a-9d47-48faf9155e68","meta":{"profile":["http://hl7.org/fhir/us/cqfmeasures/StructureDefinition/test-case-cqfm"]},"contained":[{"resourceType":"Parameters","id":"a2f7f4aa-10d9-4904-9673-589f33ab461d-parameters","parameter":[{"name":"subject","valueString":"d4ee0f25-8c45-4db4-8795-b7dbdbbc1ecd"}]}],"extension":[{"url":"http://hl7.org/fhir/us/cqfmeasures/StructureDefinition/cqfm-inputParameters","valueReference":{"reference":"#a2f7f4aa-10d9-4904-9673-589f33ab461d-parameters"}},{"url":"http://hl7.org/fhir/us/cqfmeasures/StructureDefinition/cqfm-testCaseDescription","valueMarkdown":"Patient receives CMO during inpatient encounter No ED. Observation ends 1 minute before inpatient encounter start. Testing HospitalizationWithObservation function.\n"}],"modifierExtension":[{"url":"http://hl7.org/fhir/us/cqfmeasures/StructureDefinition/cqfm-isTestCase","valueBoolean":true}],"status":"complete","type":"individual","measure":"https://madie.cms.gov/Measure/AnticoagulationTherapyforAtrialFibrillationFlutterFHIR","period":{"start":"2025-01-01","end":"2025-12-31"},"group":[{"population":[{"code":{"coding":[{"system":"http://terminology.hl7.org/CodeSystem/measure-population","code":"initial-population","display":"Initial Population"}]},"count":1},{"code":{"coding":[{"system":"http://terminology.hl7.org/CodeSystem/measure-population","code":"denominator","display":"Denominator"}]},"count":1},{"code":{"coding":[{"system":"http://terminology.hl7.org/CodeSystem/measure-population","code":"denominator-exclusion","display":"Denominator Exclusion"}]},"count":1},{"code":{"coding":[{"system":"http://terminology.hl7.org/CodeSystem/measure-population","code":"numerator","display":"Numerator"}]},"count":0},{"code":{"coding":[{"system":"http://terminology.hl7.org/CodeSystem/measure-population","code":"denominator-exception","display":"Denominator Exception"}]},"count":0}]}]},"request":{"method":"PUT","url":"MeasureReport/eaae806c-c7f8-4f6a-9d47-48faf9155e68"}}]}