{"resourceType":"Bundle","id":"tests-cc42fc09-d5ed-4ac5-980e-f16279cf0499-bundle","type":"transaction","entry":[{"fullUrl":"https://madie.cms.gov/Patient/cc42fc09-d5ed-4ac5-980e-f16279cf0499","resource":{"resourceType":"Patient","id":"cc42fc09-d5ed-4ac5-980e-f16279cf0499","meta":{"profile":["http://hl7.org/fhir/us/qicore/StructureDefinition/qicore-patient"]},"text":{"status":"generated","div":"<div xmlns=\"http://www.w3.org/1999/xhtml\"><div class=\"hapiHeaderText\">CMOdurED_ED&gt;1hrObs&lt;1hrBFEnc <b>DENEXFAIL </b></div><table class=\"hapiPropertyTable\"><tbody><tr><td>Identifier</td><td>f462825629b56fcd20839ac515dc0513d89bc3fe2bc1172dcd3636bdb9c318c7</td></tr><tr><td>Date of birth</td><td><span>18 September 1985</span></td></tr></tbody></table></div>"},"extension":[{"url":"http://hl7.org/fhir/us/core/StructureDefinition/us-core-race","extension":[{"url":"ombCategory","valueCoding":{"system":"urn:oid:2.16.840.1.113883.6.238","code":"1002-5","display":"American Indian or Alaska Native","userSelected":true}},{"url":"text","valueString":"American Indian or Alaska Native"}]},{"url":"http://hl7.org/fhir/us/core/StructureDefinition/us-core-ethnicity","extension":[{"url":"ombCategory","valueCoding":{"system":"urn:oid:2.16.840.1.113883.6.238","code":"2135-2","display":"Hispanic or Latino","userSelected":true}},{"url":"text","valueString":"Hispanic or Latino"}]}],"identifier":[{"type":{"coding":[{"system":"http://terminology.hl7.org/CodeSystem/v2-0203","code":"MR"}]},"system":"https://bonnie-fhir.healthit.gov/","value":"633c9d040968f8012250fca8"}],"active":true,"name":[{"use":"usual","family":"DENEXFail","given":["CMOdurED_ED>1hrObs<1hrBFEnc"]}],"gender":"female","birthDate":"1985-09-18"},"request":{"method":"PUT","url":"Patient/cc42fc09-d5ed-4ac5-980e-f16279cf0499"}},{"fullUrl":"https://madie.cms.gov/Condition/5c953f97b848462de0ae4167","resource":{"resourceType":"Condition","id":"9656e3c5-713f-47cd-96b2-bfeb24f0c43e","meta":{"profile":["http://hl7.org/fhir/us/qicore/StructureDefinition/qicore-condition"]},"clinicalStatus":{"coding":[{"system":"http://terminology.hl7.org/CodeSystem/condition-clinical","code":"inactive"}]},"verificationStatus":{"coding":[{"system":"http://terminology.hl7.org/CodeSystem/condition-ver-status","code":"confirmed"}]},"category":[{"coding":[{"system":"http://terminology.hl7.org/CodeSystem/condition-category","code":"encounter-diagnosis","display":"Encounter Diagnosis"}]}],"code":{"coding":[{"system":"http://hl7.org/fhir/sid/icd-9-cm","code":"427.31"},{"system":"http://hl7.org/fhir/sid/icd-10-cm","code":"I48.0"},{"system":"http://snomed.info/sct","code":"5370000"}]},"subject":{"reference":"Patient/cc42fc09-d5ed-4ac5-980e-f16279cf0499"},"onsetDateTime":"2025-10-01T09:00:00.000Z","abatementDateTime":"2025-10-12T00:15:00.000Z"},"request":{"method":"PUT","url":"Condition/9656e3c5-713f-47cd-96b2-bfeb24f0c43e"}},{"fullUrl":"https://madie.cms.gov/Encounter/5c953f97b848462de0ae4168","resource":{"resourceType":"Encounter","id":"e8bb3a1e-4da3-4206-9618-aacacac5021c","meta":{"profile":["http://hl7.org/fhir/us/qicore/StructureDefinition/qicore-encounter"]},"status":"finished","class":{"system":"http://terminology.hl7.org/CodeSystem/v3-ActCode","code":"EMER","display":"emergency"},"type":[{"coding":[{"system":"http://snomed.info/sct","code":"4525004"}]}],"subject":{"reference":"Patient/cc42fc09-d5ed-4ac5-980e-f16279cf0499"},"period":{"start":"2025-09-30T07:59:00.000Z","end":"2025-09-30T08:00:00.000Z"},"length":{"value":0,"unit":"days"}},"request":{"method":"PUT","url":"Encounter/e8bb3a1e-4da3-4206-9618-aacacac5021c"}},{"fullUrl":"https://madie.cms.gov/Encounter/5c953f97b848462de0ae4169","resource":{"resourceType":"Encounter","id":"11756645-bc4a-4a2f-b735-5332dbdab436","meta":{"profile":["http://hl7.org/fhir/us/qicore/StructureDefinition/qicore-encounter"]},"status":"finished","class":{"system":"http://terminology.hl7.org/CodeSystem/v3-ActCode","code":"OBSENC","display":"observation encounter"},"type":[{"coding":[{"system":"http://snomed.info/sct","code":"448851000124103"}]}],"subject":{"reference":"Patient/cc42fc09-d5ed-4ac5-980e-f16279cf0499"},"period":{"start":"2025-09-30T09:01:00.000Z","end":"2025-09-30T09:05:00.000Z"},"length":{"value":0,"unit":"days"}},"request":{"method":"PUT","url":"Encounter/11756645-bc4a-4a2f-b735-5332dbdab436"}},{"fullUrl":"https://madie.cms.gov/Encounter/5c953f97b848462de0ae416a","resource":{"resourceType":"Encounter","id":"647a3bbf-8fa3-48af-8cd6-e8e248dd591b","meta":{"profile":["http://hl7.org/fhir/us/qicore/StructureDefinition/qicore-encounter"]},"status":"finished","class":{"system":"http://terminology.hl7.org/CodeSystem/v3-ActCode","code":"IMP","display":"inpatient encounter"},"type":[{"coding":[{"system":"http://snomed.info/sct","code":"32485007"}]}],"subject":{"reference":"Patient/cc42fc09-d5ed-4ac5-980e-f16279cf0499"},"period":{"start":"2025-09-30T10:05:00.000Z","end":"2025-10-12T00:15:00.000Z"},"length":{"value":12,"unit":"days"},"diagnosis":[{"condition":{"reference":"Condition/ischemic-stroke-1957"},"use":{"coding":[{"system":"http://terminology.hl7.org/CodeSystem/diagnosis-role","code":"billing","display":"Billing"}]},"rank":1}]},"request":{"method":"PUT","url":"Encounter/647a3bbf-8fa3-48af-8cd6-e8e248dd591b"}},{"fullUrl":"https://madie.cms.gov/ServiceRequest/5c953f97b848462de0ae416c","resource":{"resourceType":"ServiceRequest","id":"e27c30ba-1447-484d-abd8-faee87b1a751","meta":{"profile":["http://hl7.org/fhir/us/qicore/StructureDefinition/qicore-servicerequest"]},"status":"active","intent":"order","code":{"coding":[{"system":"http://snomed.info/sct","code":"133918004"}]},"subject":{"reference":"Patient/cc42fc09-d5ed-4ac5-980e-f16279cf0499"},"authoredOn":"2025-09-30T08:00:00.000+00:00"},"request":{"method":"PUT","url":"ServiceRequest/e27c30ba-1447-484d-abd8-faee87b1a751"}},{"fullUrl":"https://madie.cms.gov/Coverage/5f2c53cf1c76ba5c99605798","resource":{"resourceType":"Coverage","id":"69094b31-6dbd-4393-9028-7c0757fc9239","status":"active","beneficiary":{"reference":"Patient/cc42fc09-d5ed-4ac5-980e-f16279cf0499"},"period":{"start":"1985-09-18T08:00:00.000Z"},"payor":[{"reference":"Organization/4d7da20f-8773-4347-8f6b-80adcdcee1f4"}]},"request":{"method":"PUT","url":"Coverage/69094b31-6dbd-4393-9028-7c0757fc9239"}},{"fullUrl":"https://madie.cms.gov/Condition/ischemic-stroke-1957","resource":{"resourceType":"Condition","id":"7a4e0e49-3424-4a17-8439-2a2b4a34a138","meta":{"profile":["http://hl7.org/fhir/us/qicore/StructureDefinition/qicore-condition"]},"clinicalStatus":{"coding":[{"system":"http://terminology.hl7.org/CodeSystem/condition-clinical","code":"active"}]},"verificationStatus":{"coding":[{"system":"http://terminology.hl7.org/CodeSystem/condition-ver-status","code":"confirmed"}]},"category":[{"coding":[{"system":"http://terminology.hl7.org/CodeSystem/condition-category","code":"encounter-diagnosis","display":"Encounter Diagnosis"}]}],"code":{"coding":[{"system":"http://snomed.info/sct","version":"2021-09","code":"111297002","display":"Nonparalytic stroke (disorder)","userSelected":true}]},"subject":{"reference":"Patient/cc42fc09-d5ed-4ac5-980e-f16279cf0499"},"recordedDate":"2025-10-13T08:00:00.000+00:00"},"request":{"method":"PUT","url":"Condition/7a4e0e49-3424-4a17-8439-2a2b4a34a138"}},{"fullUrl":"https://madie.cms.gov/Organization/123456","resource":{"resourceType":"Organization","id":"4d7da20f-8773-4347-8f6b-80adcdcee1f4","meta":{"profile":["http://hl7.org/fhir/us/qicore/StructureDefinition/qicore-organization"]},"identifier":[{"use":"temp","system":"urn:oid:2.16.840.1.113883.4.4","value":"21-3259825"}],"active":true,"type":[{"coding":[{"system":"http://terminology.hl7.org/CodeSystem/organization-type","code":"pay","display":"Payer"}]}],"name":"Blue Cross Blue Shield of Texas","telecom":[{"system":"phone","value":"(+1) 972-766-6900"}],"address":[{"use":"billing","type":"postal","line":["P.O. Box 660044"],"city":"Dallas","state":"TX","postalCode":"75266-0044","country":"USA"}]},"request":{"method":"PUT","url":"Organization/4d7da20f-8773-4347-8f6b-80adcdcee1f4"}},{"fullUrl":"https://madie.cms.gov/Practitioner/practitioner-123456","resource":{"resourceType":"Practitioner","id":"a3344a80-2912-411d-abf6-7f2a53e4577e","identifier":[{"system":"http://hl7.org/fhir/sid/us-npi","value":"123456"}],"name":[{"family":"Evil","prefix":["Dr"]}]},"request":{"method":"PUT","url":"Practitioner/a3344a80-2912-411d-abf6-7f2a53e4577e"}},{"fullUrl":"https://madie.cms.gov/MeasureReport/5b63944d-b991-4592-9c7d-b4e3cc75240c","resource":{"resourceType":"MeasureReport","id":"5b63944d-b991-4592-9c7d-b4e3cc75240c","meta":{"profile":["http://hl7.org/fhir/us/cqfmeasures/StructureDefinition/test-case-cqfm"]},"contained":[{"resourceType":"Parameters","id":"6ddab9dc-6cb9-42cb-8dac-f3c82484f3a4-parameters","parameter":[{"name":"subject","valueString":"cc42fc09-d5ed-4ac5-980e-f16279cf0499"}]}],"extension":[{"url":"http://hl7.org/fhir/us/cqfmeasures/StructureDefinition/cqfm-inputParameters","valueReference":{"reference":"#6ddab9dc-6cb9-42cb-8dac-f3c82484f3a4-parameters"}},{"url":"http://hl7.org/fhir/us/cqfmeasures/StructureDefinition/cqfm-testCaseDescription","valueMarkdown":"Patient receives CMO during ED. ED ends 60 min before Obs start and Obs ends 60 min before  inpatient start.  Testing HospitalizationWithObservation function\n"}],"modifierExtension":[{"url":"http://hl7.org/fhir/us/cqfmeasures/StructureDefinition/cqfm-isTestCase","valueBoolean":true}],"status":"complete","type":"individual","measure":"https://madie.cms.gov/Measure/AnticoagulationTherapyforAtrialFibrillationFlutterFHIR","period":{"start":"2025-01-01","end":"2025-12-31"},"group":[{"population":[{"code":{"coding":[{"system":"http://terminology.hl7.org/CodeSystem/measure-population","code":"initial-population","display":"Initial Population"}]},"count":1},{"code":{"coding":[{"system":"http://terminology.hl7.org/CodeSystem/measure-population","code":"denominator","display":"Denominator"}]},"count":1},{"code":{"coding":[{"system":"http://terminology.hl7.org/CodeSystem/measure-population","code":"denominator-exclusion","display":"Denominator Exclusion"}]},"count":0},{"code":{"coding":[{"system":"http://terminology.hl7.org/CodeSystem/measure-population","code":"numerator","display":"Numerator"}]},"count":0},{"code":{"coding":[{"system":"http://terminology.hl7.org/CodeSystem/measure-population","code":"denominator-exception","display":"Denominator Exception"}]},"count":0}]}]},"request":{"method":"PUT","url":"MeasureReport/5b63944d-b991-4592-9c7d-b4e3cc75240c"}}]}