{"resourceType":"Bundle","id":"tests-3ed947b5-9aba-4bed-aa72-f96b6f3f5082-bundle","type":"transaction","entry":[{"fullUrl":"https://madie.cms.gov/Patient/3ed947b5-9aba-4bed-aa72-f96b6f3f5082","resource":{"resourceType":"Patient","id":"3ed947b5-9aba-4bed-aa72-f96b6f3f5082","meta":{"profile":["http://hl7.org/fhir/us/qicore/StructureDefinition/qicore-patient"]},"text":{"status":"generated","div":"<div xmlns=\"http://www.w3.org/1999/xhtml\"><div class=\"hapiHeaderText\">CMOdurEncTM_EDEndTM=ObsTM_ObsEndTM=EncTM <b>DENEXPASS </b></div><table class=\"hapiPropertyTable\"><tbody><tr><td>Identifier</td><td>a33eaee35b35d61ecea21326efe74641</td></tr><tr><td>Date of birth</td><td><span>18 September 1985</span></td></tr></tbody></table></div>"},"extension":[{"url":"http://hl7.org/fhir/us/core/StructureDefinition/us-core-race","extension":[{"url":"ombCategory","valueCoding":{"system":"urn:oid:2.16.840.1.113883.6.238","code":"1002-5","display":"American Indian or Alaska Native","userSelected":true}},{"url":"text","valueString":"American Indian or Alaska Native"}]},{"url":"http://hl7.org/fhir/us/core/StructureDefinition/us-core-ethnicity","extension":[{"url":"ombCategory","valueCoding":{"system":"urn:oid:2.16.840.1.113883.6.238","code":"2135-2","display":"Hispanic or Latino","userSelected":true}},{"url":"text","valueString":"Hispanic or Latino"}]}],"identifier":[{"type":{"coding":[{"system":"http://terminology.hl7.org/CodeSystem/v2-0203","code":"MR"}]},"system":"https://bonnie-fhir.healthit.gov/","value":"633c9d030968f8012250fc9c"}],"active":true,"name":[{"use":"usual","family":"DENEXPass","given":["CMOdurEncTM_EDEndTM=ObsTM_ObsEndTM=EncTM"]}],"gender":"female","birthDate":"1985-09-18"},"request":{"method":"PUT","url":"Patient/3ed947b5-9aba-4bed-aa72-f96b6f3f5082"}},{"fullUrl":"https://madie.cms.gov/Condition/5c953f97b848462de0ae4137","resource":{"resourceType":"Condition","id":"e3f63a51-0feb-43e1-8931-87feb3b1e573","meta":{"profile":["http://hl7.org/fhir/us/qicore/StructureDefinition/qicore-condition"]},"clinicalStatus":{"coding":[{"system":"http://terminology.hl7.org/CodeSystem/condition-clinical","code":"inactive"}]},"verificationStatus":{"coding":[{"system":"http://terminology.hl7.org/CodeSystem/condition-ver-status","code":"confirmed"}]},"category":[{"coding":[{"system":"http://terminology.hl7.org/CodeSystem/condition-category","code":"encounter-diagnosis","display":"Encounter Diagnosis"}]}],"code":{"coding":[{"system":"http://hl7.org/fhir/sid/icd-10-cm","code":"I48.20"},{"system":"http://hl7.org/fhir/sid/icd-10-cm","code":"I48.0"},{"system":"http://snomed.info/sct","code":"5370000"}]},"subject":{"reference":"Patient/3ed947b5-9aba-4bed-aa72-f96b6f3f5082"},"onsetDateTime":"2025-10-01T09:00:00.000Z","abatementDateTime":"2025-10-12T00:15:00.000Z"},"request":{"method":"PUT","url":"Condition/e3f63a51-0feb-43e1-8931-87feb3b1e573"}},{"fullUrl":"https://madie.cms.gov/Encounter/5c953f97b848462de0ae4138","resource":{"resourceType":"Encounter","id":"de0d1476-edfb-4a35-8b3c-ee7eed9b0ebe","meta":{"profile":["http://hl7.org/fhir/us/qicore/StructureDefinition/qicore-encounter"]},"status":"finished","class":{"system":"http://terminology.hl7.org/CodeSystem/v3-ActCode","code":"EMER","display":"emergency"},"type":[{"coding":[{"system":"http://snomed.info/sct","code":"4525004"}]}],"subject":{"reference":"Patient/3ed947b5-9aba-4bed-aa72-f96b6f3f5082"},"period":{"start":"2025-10-01T07:59:00.000Z","end":"2025-10-01T09:00:00.000Z"},"length":{"value":0,"unit":"days"}},"request":{"method":"PUT","url":"Encounter/de0d1476-edfb-4a35-8b3c-ee7eed9b0ebe"}},{"fullUrl":"https://madie.cms.gov/Encounter/5c953f97b848462de0ae4139","resource":{"resourceType":"Encounter","id":"de4c2496-fd14-45d5-bdd6-41ef9ca75191","meta":{"profile":["http://hl7.org/fhir/us/qicore/StructureDefinition/qicore-encounter"]},"status":"finished","class":{"system":"http://terminology.hl7.org/CodeSystem/v3-ActCode","code":"OBSENC","display":"observation encounter"},"type":[{"coding":[{"system":"http://snomed.info/sct","code":"448851000124103"}]}],"subject":{"reference":"Patient/3ed947b5-9aba-4bed-aa72-f96b6f3f5082"},"period":{"start":"2025-10-01T09:00:00.000Z","end":"2025-10-01T10:00:00.000Z"},"length":{"value":0,"unit":"days"}},"request":{"method":"PUT","url":"Encounter/de4c2496-fd14-45d5-bdd6-41ef9ca75191"}},{"fullUrl":"https://madie.cms.gov/Encounter/5c953f97b848462de0ae413a","resource":{"resourceType":"Encounter","id":"ea8a9a6c-a950-4575-b52d-aa0972dfdfc4","meta":{"profile":["http://hl7.org/fhir/us/qicore/StructureDefinition/qicore-encounter"]},"status":"finished","class":{"system":"http://terminology.hl7.org/CodeSystem/v3-ActCode","code":"IMP","display":"inpatient encounter"},"type":[{"coding":[{"system":"http://snomed.info/sct","code":"32485007"}]}],"subject":{"reference":"Patient/3ed947b5-9aba-4bed-aa72-f96b6f3f5082"},"period":{"start":"2025-10-01T10:00:00.000Z","end":"2025-10-12T00:15:00.000Z"},"length":{"value":11,"unit":"days"},"diagnosis":[{"condition":{"reference":"Condition/ischemic-stroke-195c"},"use":{"coding":[{"system":"http://terminology.hl7.org/CodeSystem/diagnosis-role","code":"billing","display":"Billing"}]},"rank":1}]},"request":{"method":"PUT","url":"Encounter/ea8a9a6c-a950-4575-b52d-aa0972dfdfc4"}},{"fullUrl":"https://madie.cms.gov/ServiceRequest/5c953f97b848462de0ae413c","resource":{"resourceType":"ServiceRequest","id":"3f2ee170-384b-470d-a96b-47853f4aa701","meta":{"profile":["http://hl7.org/fhir/us/qicore/StructureDefinition/qicore-servicerequest"]},"status":"active","intent":"order","code":{"coding":[{"system":"http://snomed.info/sct","code":"133918004"}]},"subject":{"reference":"Patient/3ed947b5-9aba-4bed-aa72-f96b6f3f5082"},"authoredOn":"2025-10-01T10:00:00.000+00:00"},"request":{"method":"PUT","url":"ServiceRequest/3f2ee170-384b-470d-a96b-47853f4aa701"}},{"fullUrl":"https://madie.cms.gov/Coverage/5f2c53ce1c76ba5c99605774","resource":{"resourceType":"Coverage","id":"a0a792cd-07fb-4874-8930-58d8b1e0f171","status":"active","beneficiary":{"reference":"Patient/3ed947b5-9aba-4bed-aa72-f96b6f3f5082"},"period":{"start":"1985-09-18T08:00:00.000Z"},"payor":[{"reference":"Organization/ec8cac12-7dd8-4c6e-8c44-d6c645085c80"}]},"request":{"method":"PUT","url":"Coverage/a0a792cd-07fb-4874-8930-58d8b1e0f171"}},{"fullUrl":"https://madie.cms.gov/Condition/ischemic-stroke-195c","resource":{"resourceType":"Condition","id":"20074c27-0a23-4423-acd1-4b1efab9d9a5","meta":{"profile":["http://hl7.org/fhir/us/qicore/StructureDefinition/qicore-condition"]},"clinicalStatus":{"coding":[{"system":"http://terminology.hl7.org/CodeSystem/condition-clinical","code":"active"}]},"verificationStatus":{"coding":[{"system":"http://terminology.hl7.org/CodeSystem/condition-ver-status","code":"confirmed"}]},"category":[{"coding":[{"system":"http://terminology.hl7.org/CodeSystem/condition-category","code":"encounter-diagnosis","display":"Encounter Diagnosis"}]}],"code":{"coding":[{"system":"http://snomed.info/sct","version":"2021-09","code":"111297002","display":"Nonparalytic stroke (disorder)","userSelected":true}]},"subject":{"reference":"Patient/3ed947b5-9aba-4bed-aa72-f96b6f3f5082"},"recordedDate":"2025-10-13T08:00:00.000+00:00"},"request":{"method":"PUT","url":"Condition/20074c27-0a23-4423-acd1-4b1efab9d9a5"}},{"fullUrl":"https://madie.cms.gov/Organization/123456","resource":{"resourceType":"Organization","id":"ec8cac12-7dd8-4c6e-8c44-d6c645085c80","meta":{"profile":["http://hl7.org/fhir/us/qicore/StructureDefinition/qicore-organization"]},"identifier":[{"use":"temp","system":"urn:oid:2.16.840.1.113883.4.4","value":"21-3259825"}],"active":true,"type":[{"coding":[{"system":"http://terminology.hl7.org/CodeSystem/organization-type","code":"pay","display":"Payer"}]}],"name":"Blue Cross Blue Shield of Texas","telecom":[{"system":"phone","value":"(+1) 972-766-6900"}],"address":[{"use":"billing","type":"postal","line":["P.O. Box 660044"],"city":"Dallas","state":"TX","postalCode":"75266-0044","country":"USA"}]},"request":{"method":"PUT","url":"Organization/ec8cac12-7dd8-4c6e-8c44-d6c645085c80"}},{"fullUrl":"https://madie.cms.gov/Practitioner/practitioner-123456","resource":{"resourceType":"Practitioner","id":"a1fb3417-9086-463f-825a-d5f4c4fefea4","identifier":[{"system":"http://hl7.org/fhir/sid/us-npi","value":"123456"}],"name":[{"family":"Evil","prefix":["Dr"]}]},"request":{"method":"PUT","url":"Practitioner/a1fb3417-9086-463f-825a-d5f4c4fefea4"}},{"fullUrl":"https://madie.cms.gov/MeasureReport/ddf7be7c-0195-4840-a77f-352271d728d1","resource":{"resourceType":"MeasureReport","id":"ddf7be7c-0195-4840-a77f-352271d728d1","meta":{"profile":["http://hl7.org/fhir/us/cqfmeasures/StructureDefinition/test-case-cqfm"]},"contained":[{"resourceType":"Parameters","id":"348f108b-1289-4ab4-b877-aa92ca7e2da5-parameters","parameter":[{"name":"subject","valueString":"3ed947b5-9aba-4bed-aa72-f96b6f3f5082"}]}],"extension":[{"url":"http://hl7.org/fhir/us/cqfmeasures/StructureDefinition/cqfm-inputParameters","valueReference":{"reference":"#348f108b-1289-4ab4-b877-aa92ca7e2da5-parameters"}},{"url":"http://hl7.org/fhir/us/cqfmeasures/StructureDefinition/cqfm-testCaseDescription","valueMarkdown":"Patient receives CMO during inpatient encounter. ED ends on Observation start and Obs ends on inpatient encounter start. Testing HospitalizationWithObservation function.\n"}],"modifierExtension":[{"url":"http://hl7.org/fhir/us/cqfmeasures/StructureDefinition/cqfm-isTestCase","valueBoolean":true}],"status":"complete","type":"individual","measure":"https://madie.cms.gov/Measure/AnticoagulationTherapyforAtrialFibrillationFlutterFHIR","period":{"start":"2025-01-01","end":"2025-12-31"},"group":[{"population":[{"code":{"coding":[{"system":"http://terminology.hl7.org/CodeSystem/measure-population","code":"initial-population","display":"Initial Population"}]},"count":1},{"code":{"coding":[{"system":"http://terminology.hl7.org/CodeSystem/measure-population","code":"denominator","display":"Denominator"}]},"count":1},{"code":{"coding":[{"system":"http://terminology.hl7.org/CodeSystem/measure-population","code":"denominator-exclusion","display":"Denominator Exclusion"}]},"count":1},{"code":{"coding":[{"system":"http://terminology.hl7.org/CodeSystem/measure-population","code":"numerator","display":"Numerator"}]},"count":0},{"code":{"coding":[{"system":"http://terminology.hl7.org/CodeSystem/measure-population","code":"denominator-exception","display":"Denominator Exception"}]},"count":0}]}]},"request":{"method":"PUT","url":"MeasureReport/ddf7be7c-0195-4840-a77f-352271d728d1"}}]}