{"resourceType":"Bundle","id":"tests-1a19c21b-41f3-4376-9516-529ad9fb466f-bundle","type":"transaction","entry":[{"fullUrl":"https://madie.cms.gov/Patient/1a19c21b-41f3-4376-9516-529ad9fb466f","resource":{"resourceType":"Patient","id":"1a19c21b-41f3-4376-9516-529ad9fb466f","meta":{"profile":["http://hl7.org/fhir/us/qicore/StructureDefinition/qicore-patient"]},"text":{"status":"generated","div":"<div xmlns=\"http://www.w3.org/1999/xhtml\"><div class=\"hapiHeaderText\">MedDCAnticoaStartTmEQEncDischTm <b>NUMERPASS </b></div><table class=\"hapiPropertyTable\"><tbody><tr><td>Identifier</td><td>9128716b0b21eec571089f9d5d345182</td></tr><tr><td>Date of birth</td><td><span>23 May 1954</span></td></tr></tbody></table></div>"},"extension":[{"url":"http://hl7.org/fhir/us/core/StructureDefinition/us-core-race","extension":[{"url":"ombCategory","valueCoding":{"system":"urn:oid:2.16.840.1.113883.6.238","code":"1002-5","display":"American Indian or Alaska Native","userSelected":true}},{"url":"text","valueString":"American Indian or Alaska Native"}]},{"url":"http://hl7.org/fhir/us/core/StructureDefinition/us-core-ethnicity","extension":[{"url":"ombCategory","valueCoding":{"system":"urn:oid:2.16.840.1.113883.6.238","code":"2135-2","display":"Hispanic or Latino","userSelected":true}},{"url":"text","valueString":"Hispanic or Latino"}]}],"identifier":[{"type":{"coding":[{"system":"http://terminology.hl7.org/CodeSystem/v2-0203","code":"MR"}]},"system":"https://bonnie-fhir.healthit.gov/","value":"633c9d030968f8012250fc9d"}],"active":true,"name":[{"use":"usual","family":"NUMERPass","given":["MedDCAnticoaStartTmEQEncDischTm"]}],"gender":"female","birthDate":"1954-05-23"},"request":{"method":"PUT","url":"Patient/1a19c21b-41f3-4376-9516-529ad9fb466f"}},{"fullUrl":"https://madie.cms.gov/Encounter/5c953f97b848462de0ae40ed","resource":{"resourceType":"Encounter","id":"d9b74b80-823e-4cc0-b8e1-f2711876808f","meta":{"profile":["http://hl7.org/fhir/us/qicore/StructureDefinition/qicore-encounter"]},"status":"finished","class":{"system":"http://terminology.hl7.org/CodeSystem/v3-ActCode","code":"IMP","display":"inpatient encounter"},"type":[{"coding":[{"system":"http://snomed.info/sct","code":"32485007"}]}],"subject":{"reference":"Patient/1a19c21b-41f3-4376-9516-529ad9fb466f"},"period":{"start":"2025-11-20T08:00:00.000Z","end":"2025-11-24T08:15:00.000Z"},"length":{"value":4,"unit":"days"},"diagnosis":[{"condition":{"reference":"Condition/ischemic-stroke-19a3"},"use":{"coding":[{"system":"http://terminology.hl7.org/CodeSystem/diagnosis-role","code":"billing","display":"Billing"}]},"rank":1}]},"request":{"method":"PUT","url":"Encounter/d9b74b80-823e-4cc0-b8e1-f2711876808f"}},{"fullUrl":"https://madie.cms.gov/MedicationRequest/5c953f97b848462de0ae40ef","resource":{"resourceType":"MedicationRequest","id":"636773ee-f852-4f10-bb2c-199e274db1ce","meta":{"profile":["http://hl7.org/fhir/us/qicore/StructureDefinition/qicore-medicationrequest"]},"status":"active","intent":"order","category":[{"coding":[{"system":"http://terminology.hl7.org/CodeSystem/medicationrequest-category","code":"community","display":"Community","userSelected":true}]}],"medicationCodeableConcept":{"coding":[{"system":"http://www.nlm.nih.gov/research/umls/rxnorm","code":"308351"}]},"subject":{"reference":"Patient/1a19c21b-41f3-4376-9516-529ad9fb466f"},"authoredOn":"2025-11-24T08:15:00.000+00:00","requester":{"reference":"Practitioner/example"}},"request":{"method":"PUT","url":"MedicationRequest/636773ee-f852-4f10-bb2c-199e274db1ce"}},{"fullUrl":"https://madie.cms.gov/Coverage/5f2c53ce1c76ba5c99605777","resource":{"resourceType":"Coverage","id":"43d8d581-64f4-47c8-bcf5-6a8dbfb4d9d3","status":"active","beneficiary":{"reference":"Patient/1a19c21b-41f3-4376-9516-529ad9fb466f"},"period":{"start":"1954-05-23T08:00:00.000Z"},"payor":[{"reference":"Organization/024e2731-b045-43bf-80d2-684774c5b51c"}]},"request":{"method":"PUT","url":"Coverage/43d8d581-64f4-47c8-bcf5-6a8dbfb4d9d3"}},{"fullUrl":"https://madie.cms.gov/Procedure/5c953f97b848462de0ae40f0","resource":{"resourceType":"Procedure","id":"07ffb840-7670-4fad-b2c1-2c871dd845ba","meta":{"profile":["http://hl7.org/fhir/us/qicore/StructureDefinition/qicore-procedure"]},"extension":[{"url":"http://hl7.org/fhir/us/qicore/StructureDefinition/qicore-recorded","valueDateTime":"2025-11-19T09:35:00-04:00"}],"status":"completed","code":{"coding":[{"system":"http://www.cms.gov/Medicare/Coding/ICD10","code":"02560ZZ"},{"system":"http://snomed.info/sct","code":"175095005"}]},"subject":{"reference":"Patient/1a19c21b-41f3-4376-9516-529ad9fb466f"},"performedPeriod":{"start":"2025-11-20T06:00:00.000Z","end":"2025-11-20T07:15:00.000Z"}},"request":{"method":"PUT","url":"Procedure/07ffb840-7670-4fad-b2c1-2c871dd845ba"}},{"fullUrl":"https://madie.cms.gov/Condition/ischemic-stroke-19a3","resource":{"resourceType":"Condition","id":"b91c9d91-a890-454c-9016-77271e58ac00","meta":{"profile":["http://hl7.org/fhir/us/qicore/StructureDefinition/qicore-condition"]},"clinicalStatus":{"coding":[{"system":"http://terminology.hl7.org/CodeSystem/condition-clinical","code":"active"}]},"verificationStatus":{"coding":[{"system":"http://terminology.hl7.org/CodeSystem/condition-ver-status","code":"confirmed"}]},"category":[{"coding":[{"system":"http://terminology.hl7.org/CodeSystem/condition-category","code":"encounter-diagnosis","display":"Encounter Diagnosis"}]}],"code":{"coding":[{"system":"http://snomed.info/sct","version":"2021-09","code":"111297002","display":"Nonparalytic stroke (disorder)","userSelected":true}]},"subject":{"reference":"Patient/1a19c21b-41f3-4376-9516-529ad9fb466f"},"recordedDate":"2025-10-13T08:00:00.000+00:00"},"request":{"method":"PUT","url":"Condition/b91c9d91-a890-454c-9016-77271e58ac00"}},{"fullUrl":"https://madie.cms.gov/Organization/123456","resource":{"resourceType":"Organization","id":"024e2731-b045-43bf-80d2-684774c5b51c","meta":{"profile":["http://hl7.org/fhir/us/qicore/StructureDefinition/qicore-organization"]},"identifier":[{"use":"temp","system":"urn:oid:2.16.840.1.113883.4.4","value":"21-3259825"}],"active":true,"type":[{"coding":[{"system":"http://terminology.hl7.org/CodeSystem/organization-type","code":"pay","display":"Payer"}]}],"name":"Blue Cross Blue Shield of Texas","telecom":[{"system":"phone","value":"(+1) 972-766-6900"}],"address":[{"use":"billing","type":"postal","line":["P.O. Box 660044"],"city":"Dallas","state":"TX","postalCode":"75266-0044","country":"USA"}]},"request":{"method":"PUT","url":"Organization/024e2731-b045-43bf-80d2-684774c5b51c"}},{"fullUrl":"https://madie.cms.gov/Practitioner/practitioner-123456","resource":{"resourceType":"Practitioner","id":"56bbd80d-fc43-4489-a1ae-d126d2d604ad","identifier":[{"system":"http://hl7.org/fhir/sid/us-npi","value":"123456"}],"name":[{"family":"Evil","prefix":["Dr"]}]},"request":{"method":"PUT","url":"Practitioner/56bbd80d-fc43-4489-a1ae-d126d2d604ad"}},{"fullUrl":"https://madie.cms.gov/MeasureReport/ae0e6e74-1db7-4fe3-ba7d-8ea984fd69a3","resource":{"resourceType":"MeasureReport","id":"ae0e6e74-1db7-4fe3-ba7d-8ea984fd69a3","meta":{"profile":["http://hl7.org/fhir/us/cqfmeasures/StructureDefinition/test-case-cqfm"]},"contained":[{"resourceType":"Parameters","id":"0c2b9073-7472-434e-9f25-8bf7dfd16dca-parameters","parameter":[{"name":"subject","valueString":"1a19c21b-41f3-4376-9516-529ad9fb466f"}]}],"extension":[{"url":"http://hl7.org/fhir/us/cqfmeasures/StructureDefinition/cqfm-inputParameters","valueReference":{"reference":"#0c2b9073-7472-434e-9f25-8bf7dfd16dca-parameters"}},{"url":"http://hl7.org/fhir/us/cqfmeasures/StructureDefinition/cqfm-testCaseDescription","valueMarkdown":"Pt. discharged on anticoagulant, starts time = OccurA discharge time\n"}],"modifierExtension":[{"url":"http://hl7.org/fhir/us/cqfmeasures/StructureDefinition/cqfm-isTestCase","valueBoolean":true}],"status":"complete","type":"individual","measure":"https://madie.cms.gov/Measure/AnticoagulationTherapyforAtrialFibrillationFlutterFHIR","period":{"start":"2025-01-01","end":"2025-12-31"},"group":[{"population":[{"code":{"coding":[{"system":"http://terminology.hl7.org/CodeSystem/measure-population","code":"initial-population","display":"Initial Population"}]},"count":1},{"code":{"coding":[{"system":"http://terminology.hl7.org/CodeSystem/measure-population","code":"denominator","display":"Denominator"}]},"count":1},{"code":{"coding":[{"system":"http://terminology.hl7.org/CodeSystem/measure-population","code":"denominator-exclusion","display":"Denominator Exclusion"}]},"count":0},{"code":{"coding":[{"system":"http://terminology.hl7.org/CodeSystem/measure-population","code":"numerator","display":"Numerator"}]},"count":1},{"code":{"coding":[{"system":"http://terminology.hl7.org/CodeSystem/measure-population","code":"denominator-exception","display":"Denominator Exception"}]},"count":0}]}]},"request":{"method":"PUT","url":"MeasureReport/ae0e6e74-1db7-4fe3-ba7d-8ea984fd69a3"}}]}