{
  "resourceType": "Bundle",
  "id": "60f82c2f98086b570510e29b",
  "type": "transaction",
  "entry": [ {
    "fullUrl": "https://madie.cms.gov/Patient/eafd6c1f-c099-48b8-8101-b24b4a49cd0b",
    "resource": {
      "resourceType": "Patient",
      "id": "eafd6c1f-c099-48b8-8101-b24b4a49cd0b",
      "meta": {
        "profile": [ "http://hl7.org/fhir/us/qicore/StructureDefinition/qicore-patient" ]
      },
      "text": {
        "status": "generated",
        "div": "<div xmlns=\"http://www.w3.org/1999/xhtml\"><div class=\"hapiHeaderText\">TPADocumentDurEncStart <b>DENEXPASS </b></div><table class=\"hapiPropertyTable\"><tbody><tr><td>Identifier</td><td>5981f557d06c41b4b186d8d3a5e5beb330864a8389842b2eb20afd1fb0cd01de</td></tr><tr><td>Date of birth</td><td><span>26 September 1975</span></td></tr></tbody></table></div>"
      },
      "extension": [ {
        "url": "http://hl7.org/fhir/us/core/StructureDefinition/us-core-race",
        "extension": [ {
          "url": "ombCategory",
          "valueCoding": {
            "system": "urn:oid:2.16.840.1.113883.6.238",
            "code": "2054-5",
            "display": "Black or African American",
            "userSelected": true
          }
        }, {
          "url": "text",
          "valueString": "Black or African American"
        } ]
      }, {
        "url": "http://hl7.org/fhir/us/core/StructureDefinition/us-core-ethnicity",
        "extension": [ {
          "url": "ombCategory",
          "valueCoding": {
            "system": "urn:oid:2.16.840.1.113883.6.238",
            "code": "2186-5",
            "display": "Not Hispanic or Latino",
            "userSelected": true
          }
        }, {
          "url": "text",
          "valueString": "Not Hispanic or Latino"
        } ]
      } ],
      "identifier": [ {
        "type": {
          "coding": [ {
            "system": "http://terminology.hl7.org/CodeSystem/v2-0203",
            "code": "MR"
          } ]
        },
        "system": "https://bonnie-fhir.healthit.gov/",
        "value": "60f82c2f98086b570510e29b"
      } ],
      "active": true,
      "name": [ {
        "use": "usual",
        "family": "DENEXPass",
        "given": [ "TPADocumentDurEncStart" ]
      } ],
      "gender": "female",
      "birthDate": "1976-09-26"
    },
    "request": {
      "method": "PUT",
      "url": "Patient/eafd6c1f-c099-48b8-8101-b24b4a49cd0b"
    }
  }, {
    "fullUrl": "https://madie.cms.gov/Condition/4a8ef544-6882-4ba2-9489-99a1d7cc184d",
    "resource": {
      "resourceType": "Condition",
      "id": "4a8ef544-6882-4ba2-9489-99a1d7cc184d",
      "meta": {
        "profile": [ "http://hl7.org/fhir/us/qicore/StructureDefinition/qicore-condition" ]
      },
      "clinicalStatus": {
        "coding": [ {
          "system": "http://terminology.hl7.org/CodeSystem/condition-clinical",
          "code": "active",
          "display": "Active",
          "userSelected": true
        } ]
      },
      "verificationStatus": {
        "coding": [ {
          "system": "http://terminology.hl7.org/CodeSystem/condition-ver-status",
          "code": "confirmed",
          "display": "Confirmed",
          "userSelected": true
        } ]
      },
      "category": [ {
        "coding": [ {
          "system": "http://terminology.hl7.org/CodeSystem/condition-category",
          "code": "encounter-diagnosis",
          "display": "Encounter Diagnosis"
        } ]
      } ],
      "code": {
        "coding": [ {
          "system": "http://hl7.org/fhir/sid/icd-10-cm",
          "code": "Z92.82"
        } ]
      },
      "subject": {
        "reference": "Patient/eafd6c1f-c099-48b8-8101-b24b4a49cd0b"
      },
      "onsetDateTime": "2026-10-10T06:16:00+00:00",
      "recordedDate": "2026-10-11T06:15:00+00:00"
    },
    "request": {
      "method": "PUT",
      "url": "Condition/4a8ef544-6882-4ba2-9489-99a1d7cc184d"
    }
  }, {
    "fullUrl": "https://madie.cms.gov/Encounter/e0885447-6342-41fb-b77b-d565a2d51666",
    "resource": {
      "resourceType": "Encounter",
      "id": "e0885447-6342-41fb-b77b-d565a2d51666",
      "meta": {
        "profile": [ "http://hl7.org/fhir/us/qicore/StructureDefinition/qicore-encounter" ]
      },
      "status": "finished",
      "class": {
        "system": "http://terminology.hl7.org/CodeSystem/v3-ActCode",
        "code": "IMP",
        "display": "inpatient encounter"
      },
      "type": [ {
        "coding": [ {
          "system": "http://snomed.info/sct",
          "code": "32485007"
        } ]
      } ],
      "subject": {
        "reference": "Patient/eafd6c1f-c099-48b8-8101-b24b4a49cd0b"
      },
      "period": {
        "start": "2026-10-10T06:15:00+00:00",
        "end": "2026-10-24T11:30:00+00:00"
      },
      "length": {
        "value": 14,
        "unit": "days"
      },
      "diagnosis": [ {
        "condition": {
          "reference": "Condition/c2b64338-d761-4ddc-9f49-e3728453433d"
        },
        "use": {
          "coding": [ {
            "system": "http://terminology.hl7.org/CodeSystem/diagnosis-role",
            "code": "billing",
            "display": "Billing"
          } ]
        },
        "rank": 1
      }, {
        "condition": {
          "reference": "Condition/4a8ef544-6882-4ba2-9489-99a1d7cc184d"
        },
        "use": {
          "coding": [ {
            "system": "http://terminology.hl7.org/CodeSystem/diagnosis-role",
            "code": "billing",
            "display": "Billing"
          } ]
        },
        "rank": 2
      } ]
    },
    "request": {
      "method": "PUT",
      "url": "Encounter/e0885447-6342-41fb-b77b-d565a2d51666"
    }
  }, {
    "fullUrl": "https://madie.cms.gov/Coverage/59180d66-5b16-484a-be60-1d4d0d9c7ba1",
    "resource": {
      "resourceType": "Coverage",
      "id": "59180d66-5b16-484a-be60-1d4d0d9c7ba1",
      "meta": {
        "profile": [ "http://hl7.org/fhir/us/qicore/StructureDefinition/qicore-coverage" ]
      },
      "status": "active",
      "type": {
        "coding": [ {
          "system": "https://nahdo.org/sopt",
          "code": "1",
          "display": "MEDICARE"
        } ]
      },
      "beneficiary": {
        "reference": "Patient/eafd6c1f-c099-48b8-8101-b24b4a49cd0b"
      },
      "period": {
        "start": "1976-09-26T08:00:00+00:00"
      },
      "payor": [ {
        "reference": "Organization/cff97bbb-2595-4e6f-96fc-b6defaaf75a2"
      } ]
    },
    "request": {
      "method": "PUT",
      "url": "Coverage/59180d66-5b16-484a-be60-1d4d0d9c7ba1"
    }
  }, {
    "fullUrl": "https://madie.cms.gov/Condition/c2b64338-d761-4ddc-9f49-e3728453433d",
    "resource": {
      "resourceType": "Condition",
      "id": "c2b64338-d761-4ddc-9f49-e3728453433d",
      "meta": {
        "profile": [ "http://hl7.org/fhir/us/qicore/StructureDefinition/qicore-condition" ]
      },
      "clinicalStatus": {
        "coding": [ {
          "system": "http://terminology.hl7.org/CodeSystem/condition-clinical",
          "code": "active"
        } ]
      },
      "verificationStatus": {
        "coding": [ {
          "system": "http://terminology.hl7.org/CodeSystem/condition-ver-status",
          "code": "confirmed"
        } ]
      },
      "category": [ {
        "coding": [ {
          "system": "http://terminology.hl7.org/CodeSystem/condition-category",
          "code": "encounter-diagnosis",
          "display": "Encounter Diagnosis"
        } ]
      } ],
      "code": {
        "coding": [ {
          "system": "http://snomed.info/sct",
          "version": "2020-09",
          "code": "111297002",
          "display": "Nonparalytic stroke (disorder)",
          "userSelected": true
        } ]
      },
      "subject": {
        "reference": "Patient/eafd6c1f-c099-48b8-8101-b24b4a49cd0b"
      },
      "recordedDate": "2026-08-13T08:00:00.000+00:00"
    },
    "request": {
      "method": "PUT",
      "url": "Condition/c2b64338-d761-4ddc-9f49-e3728453433d"
    }
  }, {
    "fullUrl": "https://madie.cms.gov/Organization/cff97bbb-2595-4e6f-96fc-b6defaaf75a2",
    "resource": {
      "resourceType": "Organization",
      "id": "cff97bbb-2595-4e6f-96fc-b6defaaf75a2",
      "meta": {
        "profile": [ "http://hl7.org/fhir/us/qicore/StructureDefinition/qicore-organization" ]
      },
      "identifier": [ {
        "use": "temp",
        "system": "urn:oid:2.16.840.1.113883.4.4",
        "value": "21-3259825"
      } ],
      "active": true,
      "type": [ {
        "coding": [ {
          "system": "http://terminology.hl7.org/CodeSystem/organization-type",
          "code": "pay",
          "display": "Payer"
        } ]
      } ],
      "name": "Blue Cross Blue Shield of Texas",
      "telecom": [ {
        "system": "phone",
        "value": "(+1) 972-766-6900"
      } ],
      "address": [ {
        "use": "billing",
        "type": "postal",
        "line": [ "P.O. Box 660044" ],
        "city": "Dallas",
        "state": "TX",
        "postalCode": "75266-0044",
        "country": "USA"
      } ]
    },
    "request": {
      "method": "PUT",
      "url": "Organization/cff97bbb-2595-4e6f-96fc-b6defaaf75a2"
    }
  }, {
    "fullUrl": "https://madie.cms.gov/Practitioner/7a9132ea-7a2e-4d4b-84d2-c6f6d5c28fd3",
    "resource": {
      "resourceType": "Practitioner",
      "id": "7a9132ea-7a2e-4d4b-84d2-c6f6d5c28fd3",
      "identifier": [ {
        "system": "http://hl7.org/fhir/sid/us-npi",
        "value": "123456"
      } ],
      "name": [ {
        "family": "Evil",
        "prefix": [ "Dr" ]
      } ]
    },
    "request": {
      "method": "PUT",
      "url": "Practitioner/7a9132ea-7a2e-4d4b-84d2-c6f6d5c28fd3"
    }
  }, {
    "fullUrl": "https://madie.cms.gov/MeasureReport/78c9cd8a-ff81-4cf8-b746-b45f4f13a571",
    "resource": {
      "resourceType": "MeasureReport",
      "id": "78c9cd8a-ff81-4cf8-b746-b45f4f13a571",
      "meta": {
        "profile": [ "http://hl7.org/fhir/us/cqfmeasures/StructureDefinition/test-case-cqfm" ]
      },
      "contained": [ {
        "resourceType": "Parameters",
        "id": "6f24d73d-939a-4840-b8c0-a7c9f5baf53f-parameters",
        "parameter": [ {
          "name": "subject",
          "valueString": "eafd6c1f-c099-48b8-8101-b24b4a49cd0b"
        } ]
      } ],
      "extension": [ {
        "url": "http://hl7.org/fhir/us/cqfmeasures/StructureDefinition/cqfm-inputParameters",
        "valueReference": {
          "reference": "#6f24d73d-939a-4840-b8c0-a7c9f5baf53f-parameters"
        }
      }, {
        "url": "http://hl7.org/fhir/us/cqfmeasures/StructureDefinition/cqfm-testCaseDescription",
        "valueMarkdown": "Added Type for Coverage"
      } ],
      "modifierExtension": [ {
        "url": "http://hl7.org/fhir/us/cqfmeasures/StructureDefinition/cqfm-isTestCase",
        "valueBoolean": true
      } ],
      "status": "complete",
      "type": "individual",
      "measure": "https://madie.cms.gov/Measure/CMS72FHIRSTKAntithromboticDay2",
      "period": {
        "start": "2026-01-01",
        "end": "2026-12-31"
      },
      "group": [ {
        "population": [ {
          "code": {
            "coding": [ {
              "system": "http://terminology.hl7.org/CodeSystem/measure-population",
              "code": "initial-population",
              "display": "Initial Population"
            } ]
          },
          "count": 1
        }, {
          "code": {
            "coding": [ {
              "system": "http://terminology.hl7.org/CodeSystem/measure-population",
              "code": "denominator",
              "display": "Denominator"
            } ]
          },
          "count": 1
        }, {
          "code": {
            "coding": [ {
              "system": "http://terminology.hl7.org/CodeSystem/measure-population",
              "code": "denominator-exclusion",
              "display": "Denominator Exclusion"
            } ]
          },
          "count": 1
        }, {
          "code": {
            "coding": [ {
              "system": "http://terminology.hl7.org/CodeSystem/measure-population",
              "code": "numerator",
              "display": "Numerator"
            } ]
          },
          "count": 0
        }, {
          "code": {
            "coding": [ {
              "system": "http://terminology.hl7.org/CodeSystem/measure-population",
              "code": "denominator-exception",
              "display": "Denominator Exception"
            } ]
          },
          "count": 0
        } ]
      } ],
      "evaluatedResource": [ {
        "reference": "Patient/eafd6c1f-c099-48b8-8101-b24b4a49cd0b"
      }, {
        "reference": "Condition/4a8ef544-6882-4ba2-9489-99a1d7cc184d"
      }, {
        "reference": "Encounter/e0885447-6342-41fb-b77b-d565a2d51666"
      }, {
        "reference": "Coverage/59180d66-5b16-484a-be60-1d4d0d9c7ba1"
      }, {
        "reference": "Condition/c2b64338-d761-4ddc-9f49-e3728453433d"
      }, {
        "reference": "Organization/cff97bbb-2595-4e6f-96fc-b6defaaf75a2"
      }, {
        "reference": "Practitioner/7a9132ea-7a2e-4d4b-84d2-c6f6d5c28fd3"
      } ]
    },
    "request": {
      "method": "PUT",
      "url": "MeasureReport/78c9cd8a-ff81-4cf8-b746-b45f4f13a571"
    }
  } ]
}