{"resourceType":"Bundle","id":"tests-1e7dc519-5d75-4c07-b23f-ae9421a12943-bundle","type":"transaction","entry":[{"fullUrl":"https://madie.cms.gov/Patient/1e7dc519-5d75-4c07-b23f-ae9421a12943","resource":{"resourceType":"Patient","id":"1e7dc519-5d75-4c07-b23f-ae9421a12943","meta":{"profile":["http://hl7.org/fhir/us/qicore/StructureDefinition/qicore-patient"]},"extension":[{"url":"http://hl7.org/fhir/us/core/StructureDefinition/us-core-race","extension":[{"url":"ombCategory","valueCoding":{"system":"urn:oid:2.16.840.1.113883.6.238","code":"2028-9","display":"Asian","userSelected":true}},{"url":"text","valueString":"Asian"}]},{"url":"http://hl7.org/fhir/us/core/StructureDefinition/us-core-ethnicity","extension":[{"url":"ombCategory","valueCoding":{"system":"urn:oid:2.16.840.1.113883.6.238","code":"2135-2","display":"Hispanic or Latino","userSelected":true}},{"url":"text","valueString":"Hispanic or Latino"}]}],"identifier":[{"type":{"coding":[{"system":"http://terminology.hl7.org/CodeSystem/v2-0203","code":"MR"}]},"system":"http://hospital.smarthealthit.org","value":"999999995"}],"name":[{"family":"Bertha","given":["Betty"]}],"gender":"female","birthDate":"2023-01-01"},"request":{"method":"PUT","url":"Patient/1e7dc519-5d75-4c07-b23f-ae9421a12943"}},{"fullUrl":"https://madie.cms.gov/Encounter/Encounter-1","resource":{"resourceType":"Encounter","id":"5d5ca730-bd79-4cdd-9e5f-dc0913812ec0","meta":{"profile":["http://hl7.org/fhir/us/qicore/StructureDefinition/qicore-encounter"]},"status":"finished","class":{"system":"http://terminology.hl7.org/CodeSystem/v3-ActCode","code":"AMB","display":"ambulatory"},"type":[{"coding":[{"system":"http://snomed.info/sct","code":"185317003","display":"Telephone encounter (procedure)"}]}],"subject":{"reference":"Patient/1e7dc519-5d75-4c07-b23f-ae9421a12943"},"period":{"start":"2025-01-01T01:00:00.000Z","end":"2025-01-01T01:15:00.000Z"}},"request":{"method":"PUT","url":"Encounter/5d5ca730-bd79-4cdd-9e5f-dc0913812ec0"}},{"fullUrl":"https://madie.cms.gov/Immunization/Immunization-1a","resource":{"resourceType":"Immunization","id":"a09f3d36-501f-40d4-8680-683789f45683","meta":{"profile":["http://hl7.org/fhir/us/qicore/StructureDefinition/qicore-immunization"]},"status":"completed","vaccineCode":{"coding":[{"system":"http://hl7.org/fhir/sid/cvx","code":"146","display":"Diphtheria and Tetanus Toxoids and Acellular Pertussis Adsorbed, Inactivated Poliovirus, Haemophilus b Conjugate (Meningococcal Protein Conjugate), and Hepatitis B (Recombinant) Vaccine."}]},"patient":{"reference":"Patient/1e7dc519-5d75-4c07-b23f-ae9421a12943"},"occurrenceDateTime":"2024-01-02T00:00:00.000Z","recorded":"2024-01-02T00:00:00.000Z","primarySource":true},"request":{"method":"PUT","url":"Immunization/a09f3d36-501f-40d4-8680-683789f45683"}},{"fullUrl":"https://madie.cms.gov/Immunization/Immunization-1b","resource":{"resourceType":"Immunization","id":"f0550c9d-5d69-4323-8b64-72201450938f","meta":{"profile":["http://hl7.org/fhir/us/qicore/StructureDefinition/qicore-immunization"]},"status":"completed","vaccineCode":{"coding":[{"system":"http://hl7.org/fhir/sid/cvx","code":"146","display":"Diphtheria and Tetanus Toxoids and Acellular Pertussis Adsorbed, Inactivated Poliovirus, Haemophilus b Conjugate (Meningococcal Protein Conjugate), and Hepatitis B (Recombinant) Vaccine."}]},"patient":{"reference":"Patient/1e7dc519-5d75-4c07-b23f-ae9421a12943"},"occurrenceDateTime":"2024-01-05T00:00:00.000Z","recorded":"2024-01-02T00:00:00.000Z","primarySource":true},"request":{"method":"PUT","url":"Immunization/f0550c9d-5d69-4323-8b64-72201450938f"}},{"fullUrl":"https://madie.cms.gov/Immunization/Immunization-1c","resource":{"resourceType":"Immunization","id":"d298a1e8-c7f7-4950-a242-a2d25d8ac94e","meta":{"profile":["http://hl7.org/fhir/us/qicore/StructureDefinition/qicore-immunization"]},"status":"completed","vaccineCode":{"coding":[{"system":"http://hl7.org/fhir/sid/cvx","code":"146","display":"Diphtheria and Tetanus Toxoids and Acellular Pertussis Adsorbed, Inactivated Poliovirus, Haemophilus b Conjugate (Meningococcal Protein Conjugate), and Hepatitis B (Recombinant) Vaccine."}]},"patient":{"reference":"Patient/1e7dc519-5d75-4c07-b23f-ae9421a12943"},"occurrenceDateTime":"2024-01-07T00:00:00.000Z","recorded":"2024-01-02T00:00:00.000Z","primarySource":true},"request":{"method":"PUT","url":"Immunization/d298a1e8-c7f7-4950-a242-a2d25d8ac94e"}},{"fullUrl":"https://madie.cms.gov/Procedure/Procedure-1d","resource":{"resourceType":"Procedure","id":"16df8dda-9f54-4c80-865d-447e0eedbfc5","meta":{"profile":["http://hl7.org/fhir/us/qicore/StructureDefinition/qicore-procedure"]},"extension":[{"url":"http://hl7.org/fhir/us/qicore/StructureDefinition/qicore-recorded","valueDateTime":"2024-01-02T00:00:00.000Z"}],"status":"completed","code":{"coding":[{"system":"http://www.ama-assn.org/go/cpt","code":"90700","display":"Diphtheria, tetanus toxoids, and acellular pertussis vaccine (DTaP), when administered to individuals younger than 7 years, for intramuscular use"}]},"subject":{"reference":"Patient/1e7dc519-5d75-4c07-b23f-ae9421a12943"},"performedPeriod":{"start":"2024-01-02T00:00:00.000Z","end":"2024-01-02T23:59:59.000Z"}},"request":{"method":"PUT","url":"Procedure/16df8dda-9f54-4c80-865d-447e0eedbfc5"}},{"fullUrl":"https://madie.cms.gov/Immunization/Immunization-2a","resource":{"resourceType":"Immunization","id":"64d3707f-059e-4e9f-9bb0-991d3d1e23ff","meta":{"profile":["http://hl7.org/fhir/us/qicore/StructureDefinition/qicore-immunization"]},"status":"completed","vaccineCode":{"coding":[{"system":"http://hl7.org/fhir/sid/cvx","code":"146","display":"\tDiphtheria and Tetanus Toxoids and Acellular Pertussis Adsorbed, Inactivated Poliovirus, Haemophilus b Conjugate (Meningococcal Protein Conjugate), and Hepatitis B (Recombinant) Vaccine."}]},"patient":{"reference":"Patient/1e7dc519-5d75-4c07-b23f-ae9421a12943"},"occurrenceDateTime":"2024-01-02T00:00:00.000Z","recorded":"2024-01-02T00:00:00.000Z","primarySource":true},"request":{"method":"PUT","url":"Immunization/64d3707f-059e-4e9f-9bb0-991d3d1e23ff"}},{"fullUrl":"https://madie.cms.gov/Immunization/Immunization-2b","resource":{"resourceType":"Immunization","id":"c28b54a2-f51a-4ad6-8b2c-809f4457bf20","meta":{"profile":["http://hl7.org/fhir/us/qicore/StructureDefinition/qicore-immunization"]},"status":"completed","vaccineCode":{"coding":[{"system":"http://hl7.org/fhir/sid/cvx","code":"146","display":"\tDiphtheria and Tetanus Toxoids and Acellular Pertussis Adsorbed, Inactivated Poliovirus, Haemophilus b Conjugate (Meningococcal Protein Conjugate), and Hepatitis B (Recombinant) Vaccine."}]},"patient":{"reference":"Patient/1e7dc519-5d75-4c07-b23f-ae9421a12943"},"occurrenceDateTime":"2024-01-06T00:00:00.000Z","recorded":"2024-01-02T00:00:00.000Z","primarySource":true},"request":{"method":"PUT","url":"Immunization/c28b54a2-f51a-4ad6-8b2c-809f4457bf20"}},{"fullUrl":"https://madie.cms.gov/Procedure/Procedure-2c","resource":{"resourceType":"Procedure","id":"e1c9741c-1949-438e-8475-e2781e4a66d9","meta":{"profile":["http://hl7.org/fhir/us/qicore/StructureDefinition/qicore-procedure"]},"extension":[{"url":"http://hl7.org/fhir/us/qicore/StructureDefinition/qicore-recorded","valueDateTime":"2024-01-02T00:00:00.000Z"}],"status":"completed","code":{"coding":[{"system":"http://www.ama-assn.org/go/cpt","code":"90713","display":"Poliovirus vaccine, inactivated (IPV), for subcutaneous or intramuscular use"}]},"subject":{"reference":"Patient/1e7dc519-5d75-4c07-b23f-ae9421a12943"},"performedPeriod":{"start":"2024-01-02T00:00:00.000Z","end":"2024-01-02T23:59:59.000Z"}},"request":{"method":"PUT","url":"Procedure/e1c9741c-1949-438e-8475-e2781e4a66d9"}},{"fullUrl":"https://madie.cms.gov/Procedure/Procedure-3","resource":{"resourceType":"Procedure","id":"67701ff2-dc52-45bd-9a9b-1a3cda7d0076","meta":{"profile":["http://hl7.org/fhir/us/qicore/StructureDefinition/qicore-procedure"]},"extension":[{"url":"http://hl7.org/fhir/us/qicore/StructureDefinition/qicore-recorded","valueDateTime":"2024-01-02T00:00:00.000Z"}],"status":"completed","code":{"coding":[{"system":"http://www.ama-assn.org/go/cpt","code":"90710","display":"Measles, mumps, rubella, and varicella vaccine (MMRV), live, for subcutaneous use"}]},"subject":{"reference":"Patient/1e7dc519-5d75-4c07-b23f-ae9421a12943"},"performedPeriod":{"start":"2024-01-02T00:00:00.000Z","end":"2024-01-02T23:59:59.000Z"}},"request":{"method":"PUT","url":"Procedure/67701ff2-dc52-45bd-9a9b-1a3cda7d0076"}},{"fullUrl":"https://madie.cms.gov/Immunization/Immunization-4a","resource":{"resourceType":"Immunization","id":"8d3ee9c7-113b-40d1-958e-f1cf0cba3636","meta":{"profile":["http://hl7.org/fhir/us/qicore/StructureDefinition/qicore-immunization"]},"status":"completed","vaccineCode":{"coding":[{"system":"http://hl7.org/fhir/sid/cvx","code":"49","display":"Haemophilus influenzae type b vaccine, PRP-OMP conjugate"}]},"patient":{"reference":"Patient/1e7dc519-5d75-4c07-b23f-ae9421a12943"},"occurrenceDateTime":"2024-01-02T00:00:00.000Z","recorded":"2024-01-02T00:00:00.000Z","primarySource":true},"request":{"method":"PUT","url":"Immunization/8d3ee9c7-113b-40d1-958e-f1cf0cba3636"}},{"fullUrl":"https://madie.cms.gov/Immunization/Immunization-4b","resource":{"resourceType":"Immunization","id":"1c586021-3e2c-46f9-ba4e-46655ad08bda","meta":{"profile":["http://hl7.org/fhir/us/qicore/StructureDefinition/qicore-immunization"]},"status":"completed","vaccineCode":{"coding":[{"system":"http://hl7.org/fhir/sid/cvx","code":"49","display":"Haemophilus influenzae type b vaccine, PRP-OMP conjugate"}]},"patient":{"reference":"Patient/1e7dc519-5d75-4c07-b23f-ae9421a12943"},"occurrenceDateTime":"2024-01-02T00:00:00.000Z","recorded":"2024-01-02T00:00:00.000Z","primarySource":true},"request":{"method":"PUT","url":"Immunization/1c586021-3e2c-46f9-ba4e-46655ad08bda"}},{"fullUrl":"https://madie.cms.gov/Procedure/Procedure-4c","resource":{"resourceType":"Procedure","id":"b6ec670b-1ccf-448b-86f0-bca05702be5d","meta":{"profile":["http://hl7.org/fhir/us/qicore/StructureDefinition/qicore-procedure"]},"extension":[{"url":"http://hl7.org/fhir/us/qicore/StructureDefinition/qicore-recorded","valueDateTime":"2024-01-02T00:00:00.000Z"}],"status":"completed","code":{"coding":[{"system":"http://www.ama-assn.org/go/cpt","code":"90697","display":"Diphtheria, tetanus toxoids, acellular pertussis vaccine, inactivated poliovirus vaccine, Haemophilus influenzae type b PRP-OMP conjugate vaccine, and hepatitis B vaccine (DTaP-IPV-Hib-HepB), for intramuscular use"}]},"subject":{"reference":"Patient/1e7dc519-5d75-4c07-b23f-ae9421a12943"},"performedPeriod":{"start":"2024-01-02T00:00:00.000Z","end":"2024-01-02T23:59:59.000Z"}},"request":{"method":"PUT","url":"Procedure/b6ec670b-1ccf-448b-86f0-bca05702be5d"}},{"fullUrl":"https://madie.cms.gov/Immunization/Immunization-5a","resource":{"resourceType":"Immunization","id":"689f5241-f1e5-474c-8ea6-2a1b2bd09485","meta":{"profile":["http://hl7.org/fhir/us/qicore/StructureDefinition/qicore-immunization"]},"status":"completed","vaccineCode":{"coding":[{"system":"http://hl7.org/fhir/sid/cvx","code":"51","display":"Haemophilus influenzae type b conjugate and Hepatitis B vaccine"}]},"patient":{"reference":"Patient/1e7dc519-5d75-4c07-b23f-ae9421a12943"},"occurrenceDateTime":"2024-01-02T00:00:00.000Z","recorded":"2024-01-02T00:00:00.000Z","primarySource":true},"request":{"method":"PUT","url":"Immunization/689f5241-f1e5-474c-8ea6-2a1b2bd09485"}},{"fullUrl":"https://madie.cms.gov/Immunization/Immunization-5b","resource":{"resourceType":"Immunization","id":"13177f6f-b481-4a05-a52c-c1e529ddeba0","meta":{"profile":["http://hl7.org/fhir/us/qicore/StructureDefinition/qicore-immunization"]},"status":"completed","vaccineCode":{"coding":[{"system":"http://hl7.org/fhir/sid/cvx","code":"51","display":"Haemophilus influenzae type b conjugate and Hepatitis B vaccine"}]},"patient":{"reference":"Patient/1e7dc519-5d75-4c07-b23f-ae9421a12943"},"occurrenceDateTime":"2024-01-10T00:00:00.000Z","recorded":"2024-01-02T00:00:00.000Z","primarySource":true},"request":{"method":"PUT","url":"Immunization/13177f6f-b481-4a05-a52c-c1e529ddeba0"}},{"fullUrl":"https://madie.cms.gov/Procedure/Procedure-5c","resource":{"resourceType":"Procedure","id":"94ac73a1-d158-4382-98e8-3ce5f7507ff7","meta":{"profile":["http://hl7.org/fhir/us/qicore/StructureDefinition/qicore-procedure"]},"extension":[{"url":"http://hl7.org/fhir/us/qicore/StructureDefinition/qicore-recorded","valueDateTime":"2024-01-02T00:00:00.000Z"}],"status":"completed","code":{"coding":[{"system":"http://www.ama-assn.org/go/cpt","code":"90740","display":"Hepatitis B vaccine (HepB), dialysis or immunosuppressed patient dosage, 3 dose schedule, for intramuscular use"}]},"subject":{"reference":"Patient/1e7dc519-5d75-4c07-b23f-ae9421a12943"},"performedPeriod":{"start":"2024-01-02T00:00:00.000Z","end":"2024-01-02T23:59:59.000Z"}},"request":{"method":"PUT","url":"Procedure/94ac73a1-d158-4382-98e8-3ce5f7507ff7"}},{"fullUrl":"https://madie.cms.gov/Immunization/Immunization-6","resource":{"resourceType":"Immunization","id":"a3c7ba89-0977-49dd-b345-9ab26db325bd","meta":{"profile":["http://hl7.org/fhir/us/qicore/StructureDefinition/qicore-immunization"]},"status":"completed","vaccineCode":{"coding":[{"system":"http://hl7.org/fhir/sid/cvx","code":"94","display":"measles, mumps, rubella, and varicella virus vaccine"}]},"patient":{"reference":"Patient/1e7dc519-5d75-4c07-b23f-ae9421a12943"},"occurrenceDateTime":"2024-01-02T00:00:00.000Z","recorded":"2024-01-02T00:00:00.000Z","primarySource":true},"request":{"method":"PUT","url":"Immunization/a3c7ba89-0977-49dd-b345-9ab26db325bd"}},{"fullUrl":"https://madie.cms.gov/Immunization/Immunization-7a","resource":{"resourceType":"Immunization","id":"607a970a-24e5-4581-835b-2ff41a64f0ff","meta":{"profile":["http://hl7.org/fhir/us/qicore/StructureDefinition/qicore-immunization"]},"status":"completed","vaccineCode":{"coding":[{"system":"http://hl7.org/fhir/sid/cvx","code":"215","display":"Pneumococcal conjugate vaccine 15-valent (PCV15), polysaccharide CRM197 conjugate, adjuvant, preservative free"}]},"patient":{"reference":"Patient/1e7dc519-5d75-4c07-b23f-ae9421a12943"},"occurrenceDateTime":"2024-01-12T00:00:00.000Z","recorded":"2024-01-02T00:00:00.000Z","primarySource":true},"request":{"method":"PUT","url":"Immunization/607a970a-24e5-4581-835b-2ff41a64f0ff"}},{"fullUrl":"https://madie.cms.gov/Immunization/Immunization-7b","resource":{"resourceType":"Immunization","id":"78034192-0dc0-49e1-af09-ab9cac1b14fe","meta":{"profile":["http://hl7.org/fhir/us/qicore/StructureDefinition/qicore-immunization"]},"status":"completed","vaccineCode":{"coding":[{"system":"http://hl7.org/fhir/sid/cvx","code":"215","display":"Pneumococcal conjugate vaccine 15-valent (PCV15), polysaccharide CRM197 conjugate, adjuvant, preservative free"}]},"patient":{"reference":"Patient/1e7dc519-5d75-4c07-b23f-ae9421a12943"},"occurrenceDateTime":"2024-01-14T00:00:00.000Z","recorded":"2024-01-02T00:00:00.000Z","primarySource":true},"request":{"method":"PUT","url":"Immunization/78034192-0dc0-49e1-af09-ab9cac1b14fe"}},{"fullUrl":"https://madie.cms.gov/Immunization/Immunization-7c","resource":{"resourceType":"Immunization","id":"d36ef96d-a901-4802-b6b9-dcd79a025e31","meta":{"profile":["http://hl7.org/fhir/us/qicore/StructureDefinition/qicore-immunization"]},"status":"completed","vaccineCode":{"coding":[{"system":"http://hl7.org/fhir/sid/cvx","code":"215","display":"Pneumococcal conjugate vaccine 15-valent (PCV15), polysaccharide CRM197 conjugate, adjuvant, preservative free"}]},"patient":{"reference":"Patient/1e7dc519-5d75-4c07-b23f-ae9421a12943"},"occurrenceDateTime":"2024-01-20T00:00:00.000Z","recorded":"2024-01-02T00:00:00.000Z","primarySource":true},"request":{"method":"PUT","url":"Immunization/d36ef96d-a901-4802-b6b9-dcd79a025e31"}},{"fullUrl":"https://madie.cms.gov/Procedure/Procedure-7d","resource":{"resourceType":"Procedure","id":"86fabab3-7087-4842-9b1f-f8eda440f324","meta":{"profile":["http://hl7.org/fhir/us/qicore/StructureDefinition/qicore-procedure"]},"extension":[{"url":"http://hl7.org/fhir/us/qicore/StructureDefinition/qicore-recorded","valueDateTime":"2024-01-02T00:00:00.000Z"}],"status":"completed","code":{"coding":[{"system":"http://www.ama-assn.org/go/cpt","code":"90670","display":"Pneumococcal conjugate vaccine, 13 valent (PCV13), for intramuscular use"}]},"subject":{"reference":"Patient/1e7dc519-5d75-4c07-b23f-ae9421a12943"},"performedPeriod":{"start":"2024-01-02T00:00:00.000Z","end":"2024-01-02T23:59:59.000Z"}},"request":{"method":"PUT","url":"Procedure/86fabab3-7087-4842-9b1f-f8eda440f324"}},{"fullUrl":"https://madie.cms.gov/Procedure/Procedure-8","resource":{"resourceType":"Procedure","id":"e825554f-a0da-4882-ab17-af58026ee494","meta":{"profile":["http://hl7.org/fhir/us/qicore/StructureDefinition/qicore-procedure"]},"extension":[{"url":"http://hl7.org/fhir/us/qicore/StructureDefinition/qicore-recorded","valueDateTime":"2024-01-02T00:00:00.000Z"}],"status":"completed","code":{"coding":[{"system":"http://www.ama-assn.org/go/cpt","code":"90633","display":"Hepatitis A vaccine (HepA), pediatric/adolescent dosage-2 dose schedule, for intramuscular use"}]},"subject":{"reference":"Patient/1e7dc519-5d75-4c07-b23f-ae9421a12943"},"performedPeriod":{"start":"2024-01-02T00:00:00.000Z","end":"2024-01-02T23:59:59.000Z"}},"request":{"method":"PUT","url":"Procedure/e825554f-a0da-4882-ab17-af58026ee494"}},{"fullUrl":"https://madie.cms.gov/Immunization/Immunization-9a","resource":{"resourceType":"Immunization","id":"8acf538f-f733-4cce-b06a-c505a0055cce","meta":{"profile":["http://hl7.org/fhir/us/qicore/StructureDefinition/qicore-immunization"]},"status":"completed","vaccineCode":{"coding":[{"system":"http://hl7.org/fhir/sid/cvx","code":"119","display":"rotavirus, live, monovalent vaccine"}]},"patient":{"reference":"Patient/1e7dc519-5d75-4c07-b23f-ae9421a12943"},"occurrenceDateTime":"2024-01-02T00:00:00.000Z","recorded":"2024-01-02T00:00:00.000Z","primarySource":true},"request":{"method":"PUT","url":"Immunization/8acf538f-f733-4cce-b06a-c505a0055cce"}},{"fullUrl":"https://madie.cms.gov/Procedure/Procedure-9b","resource":{"resourceType":"Procedure","id":"1d87cc17-b1f4-45d4-92cc-c0b9c0d0ef8d","meta":{"profile":["http://hl7.org/fhir/us/qicore/StructureDefinition/qicore-procedure"]},"extension":[{"url":"http://hl7.org/fhir/us/qicore/StructureDefinition/qicore-recorded","valueDateTime":"2024-01-02T00:00:00.000Z"}],"status":"completed","code":{"coding":[{"system":"http://www.ama-assn.org/go/cpt","code":"90681","display":"Rotavirus vaccine, human, attenuated (RV1), 2 dose schedule, live, for oral use"}]},"subject":{"reference":"Patient/1e7dc519-5d75-4c07-b23f-ae9421a12943"},"performedPeriod":{"start":"2024-01-07T00:00:00.000Z","end":"2024-01-07T23:59:59.000Z"}},"request":{"method":"PUT","url":"Procedure/1d87cc17-b1f4-45d4-92cc-c0b9c0d0ef8d"}},{"fullUrl":"https://madie.cms.gov/Immunization/Immunization-10a","resource":{"resourceType":"Immunization","id":"1a364441-9557-4c4d-b6ef-d2bf09a01d80","meta":{"profile":["http://hl7.org/fhir/us/qicore/StructureDefinition/qicore-immunization"]},"status":"completed","vaccineCode":{"coding":[{"system":"http://hl7.org/fhir/sid/cvx","code":"153","display":"\tInfluenza, injectable, Madin Darby Canine Kidney, preservative free"}]},"patient":{"reference":"Patient/1e7dc519-5d75-4c07-b23f-ae9421a12943"},"occurrenceDateTime":"2024-01-02T00:00:00.000Z","recorded":"2024-01-02T00:00:00.000Z","primarySource":true},"request":{"method":"PUT","url":"Immunization/1a364441-9557-4c4d-b6ef-d2bf09a01d80"}},{"fullUrl":"https://madie.cms.gov/Procedure/Procedure-10b","resource":{"resourceType":"Procedure","id":"5ae6ffb1-bcc5-445d-8a2e-bedd24aa2497","meta":{"profile":["http://hl7.org/fhir/us/qicore/StructureDefinition/qicore-procedure"]},"extension":[{"url":"http://hl7.org/fhir/us/qicore/StructureDefinition/qicore-recorded","valueDateTime":"2024-01-10T00:00:00.000Z"}],"status":"completed","code":{"coding":[{"system":"http://www.ama-assn.org/go/cpt","code":"90689","display":"Influenza virus vaccine, quadrivalent (IIV4), inactivated, adjuvanted, preservative free, 0.25 mL dosage, for intramuscular use"}]},"subject":{"reference":"Patient/1e7dc519-5d75-4c07-b23f-ae9421a12943"},"performedPeriod":{"start":"2024-01-10T00:00:00.000Z","end":"2024-01-10T23:59:59.000Z"}},"request":{"method":"PUT","url":"Procedure/5ae6ffb1-bcc5-445d-8a2e-bedd24aa2497"}},{"fullUrl":"https://madie.cms.gov/MeasureReport/10989c2d-73c0-4e5f-8973-47a73f50ff72","resource":{"resourceType":"MeasureReport","id":"10989c2d-73c0-4e5f-8973-47a73f50ff72","meta":{"profile":["http://hl7.org/fhir/us/cqfmeasures/StructureDefinition/test-case-cqfm"]},"contained":[{"resourceType":"Parameters","id":"5d466efd-4349-4d9a-b6a6-1a749a05435d-parameters","parameter":[{"name":"subject","valueString":"1e7dc519-5d75-4c07-b23f-ae9421a12943"}]}],"extension":[{"url":"http://hl7.org/fhir/us/cqfmeasures/StructureDefinition/cqfm-inputParameters","valueReference":{"reference":"#5d466efd-4349-4d9a-b6a6-1a749a05435d-parameters"}},{"url":"http://hl7.org/fhir/us/cqfmeasures/StructureDefinition/cqfm-testCaseDescription","valueMarkdown":"All vaccines met - procedures"}],"modifierExtension":[{"url":"http://hl7.org/fhir/us/cqfmeasures/StructureDefinition/cqfm-isTestCase","valueBoolean":true}],"status":"complete","type":"individual","measure":"https://madie.cms.gov/Measure/ChildhoodImmunizationStatusFHIR","period":{"start":"2025-01-01","end":"2025-12-31"},"group":[{"population":[{"code":{"coding":[{"system":"http://terminology.hl7.org/CodeSystem/measure-population","code":"initial-population","display":"Initial Population"}]},"count":1},{"code":{"coding":[{"system":"http://terminology.hl7.org/CodeSystem/measure-population","code":"denominator","display":"Denominator"}]},"count":1},{"code":{"coding":[{"system":"http://terminology.hl7.org/CodeSystem/measure-population","code":"denominator-exclusion","display":"Denominator Exclusion"}]},"count":0},{"code":{"coding":[{"system":"http://terminology.hl7.org/CodeSystem/measure-population","code":"numerator","display":"Numerator"}]},"count":1}]}]},"request":{"method":"PUT","url":"MeasureReport/10989c2d-73c0-4e5f-8973-47a73f50ff72"}}]}