{"resourceType":"Bundle","id":"tests-a5ca4525-88bc-4b67-b880-ca1cf54daa88-bundle","type":"transaction","entry":[{"fullUrl":"https://madie.cms.gov/Patient/a5ca4525-88bc-4b67-b880-ca1cf54daa88","resource":{"resourceType":"Patient","id":"a5ca4525-88bc-4b67-b880-ca1cf54daa88","meta":{"profile":["http://hl7.org/fhir/us/qicore/StructureDefinition/qicore-patient"]},"extension":[{"url":"http://hl7.org/fhir/us/core/StructureDefinition/us-core-race","extension":[{"url":"ombCategory","valueCoding":{"system":"urn:oid:2.16.840.1.113883.6.238","code":"2028-9","display":"Asian","userSelected":true}},{"url":"text","valueString":"Asian"}]},{"url":"http://hl7.org/fhir/us/core/StructureDefinition/us-core-ethnicity","extension":[{"url":"ombCategory","valueCoding":{"system":"urn:oid:2.16.840.1.113883.6.238","code":"2135-2","display":"Hispanic or Latino","userSelected":true}},{"url":"text","valueString":"Hispanic or Latino"}]}],"identifier":[{"type":{"coding":[{"system":"http://terminology.hl7.org/CodeSystem/v2-0203","code":"MR"}]},"system":"http://hospital.smarthealthit.org","value":"999999995"}],"name":[{"family":"Bertha","given":["Betty"]}],"gender":"female","birthDate":"2023-01-01"},"request":{"method":"PUT","url":"Patient/a5ca4525-88bc-4b67-b880-ca1cf54daa88"}},{"fullUrl":"https://madie.cms.gov/Encounter/Encounter-1","resource":{"resourceType":"Encounter","id":"e75201f0-36ca-44d7-9426-2945e49c26a6","meta":{"profile":["http://hl7.org/fhir/us/qicore/StructureDefinition/qicore-encounter"]},"status":"finished","class":{"system":"http://terminology.hl7.org/CodeSystem/v3-ActCode","code":"AMB","display":"ambulatory"},"type":[{"coding":[{"system":"http://snomed.info/sct","code":"185317003","display":"Telephone encounter (procedure)"}]}],"subject":{"reference":"Patient/a5ca4525-88bc-4b67-b880-ca1cf54daa88"},"period":{"start":"2025-01-01T01:00:00.000Z","end":"2025-01-01T01:15:00.000Z"}},"request":{"method":"PUT","url":"Encounter/e75201f0-36ca-44d7-9426-2945e49c26a6"}},{"fullUrl":"https://madie.cms.gov/Condition/Condition-1","resource":{"resourceType":"Condition","id":"358b9cb2-4b48-4c8a-a560-122347adae4a","meta":{"profile":["http://hl7.org/fhir/us/qicore/StructureDefinition/qicore-condition"]},"clinicalStatus":{"coding":[{"system":"http://terminology.hl7.org/CodeSystem/condition-clinical","code":"active"}]},"category":[{"coding":[{"system":"http://terminology.hl7.org/CodeSystem/condition-category","code":"problem-list-item","display":"Problem List Item"}]}],"code":{"coding":[{"system":"http://snomed.info/sct","code":"192711008","display":"Post diphtheria vaccination encephalitis (disorder)"}]},"subject":{"reference":"Patient/a5ca4525-88bc-4b67-b880-ca1cf54daa88"},"onsetDateTime":"2024-01-02T00:00:00.000Z"},"request":{"method":"PUT","url":"Condition/358b9cb2-4b48-4c8a-a560-122347adae4a"}},{"fullUrl":"https://madie.cms.gov/Condition/Condition-2","resource":{"resourceType":"Condition","id":"e67c42aa-0e4c-4a34-8b86-97b5201bdbc8","meta":{"profile":["http://hl7.org/fhir/us/qicore/StructureDefinition/qicore-condition"]},"clinicalStatus":{"coding":[{"system":"http://terminology.hl7.org/CodeSystem/condition-clinical","code":"active"}]},"category":[{"coding":[{"system":"http://terminology.hl7.org/CodeSystem/condition-category","code":"problem-list-item","display":"Problem List Item"}]}],"code":{"coding":[{"system":"http://snomed.info/sct","code":"471321000124106","display":"Anaphylaxis caused by vaccine product containing human poliovirus antigen (disorder)"}]},"subject":{"reference":"Patient/a5ca4525-88bc-4b67-b880-ca1cf54daa88"},"onsetDateTime":"2024-01-02T00:00:00.000Z"},"request":{"method":"PUT","url":"Condition/e67c42aa-0e4c-4a34-8b86-97b5201bdbc8"}},{"fullUrl":"https://madie.cms.gov/Condition/Condition-3","resource":{"resourceType":"Condition","id":"d097b664-b3fb-4974-8bb3-5754514c061a","meta":{"profile":["http://hl7.org/fhir/us/qicore/StructureDefinition/qicore-condition"]},"clinicalStatus":{"coding":[{"system":"http://terminology.hl7.org/CodeSystem/condition-clinical","code":"active"}]},"category":[{"coding":[{"system":"http://terminology.hl7.org/CodeSystem/condition-category","code":"problem-list-item","display":"Problem List Item"}]}],"code":{"coding":[{"system":"http://snomed.info/sct","code":"471331000124109","display":"Anaphylaxis caused by vaccine product containing Measles morbillivirus and Mumps orthorubulavirus and Rubella virus antigens (disorder)"}]},"subject":{"reference":"Patient/a5ca4525-88bc-4b67-b880-ca1cf54daa88"},"onsetDateTime":"2024-01-02T00:00:00.000Z"},"request":{"method":"PUT","url":"Condition/d097b664-b3fb-4974-8bb3-5754514c061a"}},{"fullUrl":"https://madie.cms.gov/Condition/Condition-4","resource":{"resourceType":"Condition","id":"a2e4eeb2-903d-4db5-902b-b868dd77c4f7","meta":{"profile":["http://hl7.org/fhir/us/qicore/StructureDefinition/qicore-condition"]},"clinicalStatus":{"coding":[{"system":"http://terminology.hl7.org/CodeSystem/condition-clinical","code":"active"}]},"category":[{"coding":[{"system":"http://terminology.hl7.org/CodeSystem/condition-category","code":"problem-list-item","display":"Problem List Item"}]}],"code":{"coding":[{"system":"http://snomed.info/sct","code":"433621000124101","display":"Anaphylaxis due to Haemophilus influenzae type b vaccine (disorder)"}]},"subject":{"reference":"Patient/a5ca4525-88bc-4b67-b880-ca1cf54daa88"},"onsetDateTime":"2024-01-02T00:00:00.000Z"},"request":{"method":"PUT","url":"Condition/a2e4eeb2-903d-4db5-902b-b868dd77c4f7"}},{"fullUrl":"https://madie.cms.gov/Condition/Condition-5","resource":{"resourceType":"Condition","id":"e26439fd-e103-4503-83c0-460eeee90f85","meta":{"profile":["http://hl7.org/fhir/us/qicore/StructureDefinition/qicore-condition"]},"clinicalStatus":{"coding":[{"system":"http://terminology.hl7.org/CodeSystem/condition-clinical","code":"active"}]},"category":[{"coding":[{"system":"http://terminology.hl7.org/CodeSystem/condition-category","code":"problem-list-item","display":"Problem List Item"}]}],"code":{"coding":[{"system":"http://snomed.info/sct","code":"235864009","display":"Acute hepatitis B with hepatitis D (disorder)"}]},"subject":{"reference":"Patient/a5ca4525-88bc-4b67-b880-ca1cf54daa88"},"onsetDateTime":"2024-01-02T00:00:00.000Z"},"request":{"method":"PUT","url":"Condition/e26439fd-e103-4503-83c0-460eeee90f85"}},{"fullUrl":"https://madie.cms.gov/Condition/Condition-6","resource":{"resourceType":"Condition","id":"fe994698-6509-48c9-9c07-8529bae1d0d2","meta":{"profile":["http://hl7.org/fhir/us/qicore/StructureDefinition/qicore-condition"]},"clinicalStatus":{"coding":[{"system":"http://terminology.hl7.org/CodeSystem/condition-clinical","code":"active"}]},"category":[{"coding":[{"system":"http://terminology.hl7.org/CodeSystem/condition-category","code":"problem-list-item","display":"Problem List Item"}]}],"code":{"coding":[{"system":"http://snomed.info/sct","code":"426570007","display":"Herpes zoster interstitial keratitis (disorder)"}]},"subject":{"reference":"Patient/a5ca4525-88bc-4b67-b880-ca1cf54daa88"},"onsetDateTime":"2024-01-02T00:00:00.000Z"},"request":{"method":"PUT","url":"Condition/fe994698-6509-48c9-9c07-8529bae1d0d2"}},{"fullUrl":"https://madie.cms.gov/Condition/Condition-7","resource":{"resourceType":"Condition","id":"fc3099c9-8f3f-4e9b-b5cc-4ad06545b19e","meta":{"profile":["http://hl7.org/fhir/us/qicore/StructureDefinition/qicore-condition"]},"clinicalStatus":{"coding":[{"system":"http://terminology.hl7.org/CodeSystem/condition-clinical","code":"active"}]},"category":[{"coding":[{"system":"http://terminology.hl7.org/CodeSystem/condition-category","code":"problem-list-item","display":"Problem List Item"}]}],"code":{"coding":[{"system":"http://snomed.info/sct","code":"471141000124102","display":"Anaphylaxis caused by vaccine product containing Streptococcus pneumoniae antigen (disorder)"}]},"subject":{"reference":"Patient/a5ca4525-88bc-4b67-b880-ca1cf54daa88"},"onsetDateTime":"2024-01-12T00:00:00.000Z"},"request":{"method":"PUT","url":"Condition/fc3099c9-8f3f-4e9b-b5cc-4ad06545b19e"}},{"fullUrl":"https://madie.cms.gov/Condition/Condition-8","resource":{"resourceType":"Condition","id":"11d1b54a-0a49-46e0-8179-d32964d48007","meta":{"profile":["http://hl7.org/fhir/us/qicore/StructureDefinition/qicore-condition"]},"clinicalStatus":{"coding":[{"system":"http://terminology.hl7.org/CodeSystem/condition-clinical","code":"active"}]},"category":[{"coding":[{"system":"http://terminology.hl7.org/CodeSystem/condition-category","code":"problem-list-item","display":"Problem List Item"}]}],"code":{"coding":[{"system":"http://snomed.info/sct","code":"40468003","display":"Viral hepatitis, type A (disorder)"}]},"subject":{"reference":"Patient/a5ca4525-88bc-4b67-b880-ca1cf54daa88"},"onsetDateTime":"2024-01-02T00:00:00.000Z"},"request":{"method":"PUT","url":"Condition/11d1b54a-0a49-46e0-8179-d32964d48007"}},{"fullUrl":"https://madie.cms.gov/Condition/Condition-9","resource":{"resourceType":"Condition","id":"452b40d4-e9eb-4840-89b0-4814ec8dd350","meta":{"profile":["http://hl7.org/fhir/us/qicore/StructureDefinition/qicore-condition"]},"clinicalStatus":{"coding":[{"system":"http://terminology.hl7.org/CodeSystem/condition-clinical","code":"active"}]},"category":[{"coding":[{"system":"http://terminology.hl7.org/CodeSystem/condition-category","code":"problem-list-item","display":"Problem List Item"}]}],"code":{"coding":[{"system":"http://snomed.info/sct","code":"428331000124103","display":"Anaphylaxis caused by rotavirus vaccine (disorder)"}]},"subject":{"reference":"Patient/a5ca4525-88bc-4b67-b880-ca1cf54daa88"},"onsetDateTime":"2024-01-02T00:00:00.000Z"},"request":{"method":"PUT","url":"Condition/452b40d4-e9eb-4840-89b0-4814ec8dd350"}},{"fullUrl":"https://madie.cms.gov/Condition/Condition-10","resource":{"resourceType":"Condition","id":"4ce183d4-503d-4709-9cc5-87c6baaf1158","meta":{"profile":["http://hl7.org/fhir/us/qicore/StructureDefinition/qicore-condition"]},"clinicalStatus":{"coding":[{"system":"http://terminology.hl7.org/CodeSystem/condition-clinical","code":"active"}]},"category":[{"coding":[{"system":"http://terminology.hl7.org/CodeSystem/condition-category","code":"problem-list-item","display":"Problem List Item"}]}],"code":{"coding":[{"system":"http://snomed.info/sct","code":"471361000124100","display":"Anaphylaxis caused by vaccine product containing Influenza virus antigen (disorder)"}]},"subject":{"reference":"Patient/a5ca4525-88bc-4b67-b880-ca1cf54daa88"},"onsetDateTime":"2024-01-02T00:00:00.000Z"},"request":{"method":"PUT","url":"Condition/4ce183d4-503d-4709-9cc5-87c6baaf1158"}},{"fullUrl":"https://madie.cms.gov/MeasureReport/d87038d0-ca89-44e2-8ef1-4fd3e7fe2a70","resource":{"resourceType":"MeasureReport","id":"d87038d0-ca89-44e2-8ef1-4fd3e7fe2a70","meta":{"profile":["http://hl7.org/fhir/us/cqfmeasures/StructureDefinition/test-case-cqfm"]},"contained":[{"resourceType":"Parameters","id":"e4f388f1-d5a4-4f4a-ae02-d04d7f2d552d-parameters","parameter":[{"name":"subject","valueString":"a5ca4525-88bc-4b67-b880-ca1cf54daa88"}]}],"extension":[{"url":"http://hl7.org/fhir/us/cqfmeasures/StructureDefinition/cqfm-inputParameters","valueReference":{"reference":"#e4f388f1-d5a4-4f4a-ae02-d04d7f2d552d-parameters"}},{"url":"http://hl7.org/fhir/us/cqfmeasures/StructureDefinition/cqfm-testCaseDescription","valueMarkdown":"All anaphylaxis or conditions in lieu"}],"modifierExtension":[{"url":"http://hl7.org/fhir/us/cqfmeasures/StructureDefinition/cqfm-isTestCase","valueBoolean":true}],"status":"complete","type":"individual","measure":"https://madie.cms.gov/Measure/ChildhoodImmunizationStatusFHIR","period":{"start":"2025-01-01","end":"2025-12-31"},"group":[{"population":[{"code":{"coding":[{"system":"http://terminology.hl7.org/CodeSystem/measure-population","code":"initial-population","display":"Initial Population"}]},"count":1},{"code":{"coding":[{"system":"http://terminology.hl7.org/CodeSystem/measure-population","code":"denominator","display":"Denominator"}]},"count":1},{"code":{"coding":[{"system":"http://terminology.hl7.org/CodeSystem/measure-population","code":"denominator-exclusion","display":"Denominator Exclusion"}]},"count":0},{"code":{"coding":[{"system":"http://terminology.hl7.org/CodeSystem/measure-population","code":"numerator","display":"Numerator"}]},"count":1}]}]},"request":{"method":"PUT","url":"MeasureReport/d87038d0-ca89-44e2-8ef1-4fd3e7fe2a70"}}]}