{"resourceType":"Bundle","id":"tests-46362f30-f48e-4839-a562-941e85cf55ea-bundle","type":"transaction","entry":[{"fullUrl":"https://madie.cms.gov/Patient/46362f30-f48e-4839-a562-941e85cf55ea","resource":{"resourceType":"Patient","id":"46362f30-f48e-4839-a562-941e85cf55ea","meta":{"profile":["http://hl7.org/fhir/us/qicore/StructureDefinition/qicore-patient"]},"extension":[{"url":"http://hl7.org/fhir/us/core/StructureDefinition/us-core-race","extension":[{"url":"ombCategory","valueCoding":{"system":"urn:oid:2.16.840.1.113883.6.238","code":"2028-9","display":"Asian"}},{"url":"text","valueString":"Asian"}]},{"url":"http://hl7.org/fhir/us/core/StructureDefinition/us-core-ethnicity","extension":[{"url":"ombCategory","valueCoding":{"system":"urn:oid:2.16.840.1.113883.6.238","code":"2135-2","display":"Hispanic or Latino"}},{"url":"text","valueString":"Hispanic or Latino"}]}],"identifier":[{"system":"http://hospital.smarthealthit.org","value":"999999995"}],"name":[{"family":"Bertha","given":["Betty"]}],"gender":"female","birthDate":"2023-01-01"},"request":{"method":"PUT","url":"Patient/46362f30-f48e-4839-a562-941e85cf55ea"}},{"fullUrl":"https://madie.cms.gov/Encounter/Encounter-1","resource":{"resourceType":"Encounter","id":"4bd10639-afd6-45b8-9636-e2efd5c1a9c1","meta":{"profile":["http://hl7.org/fhir/us/qicore/StructureDefinition/qicore-encounter"]},"status":"finished","class":{"system":"http://terminology.hl7.org/CodeSystem/v3-ActCode","code":"AMB","display":"ambulatory"},"type":[{"coding":[{"system":"http://snomed.info/sct","code":"185317003","display":"Telephone encounter (procedure)"}]}],"subject":{"reference":"Patient/46362f30-f48e-4839-a562-941e85cf55ea"},"period":{"start":"2025-01-01T01:00:00.000Z","end":"2025-01-01T01:15:00.000Z"}},"request":{"method":"PUT","url":"Encounter/4bd10639-afd6-45b8-9636-e2efd5c1a9c1"}},{"fullUrl":"https://madie.cms.gov/Immunization/Immunization-1a","resource":{"resourceType":"Immunization","id":"bc3fd162-c04b-4b0c-a7d7-057bcce7c3b7","meta":{"profile":["http://hl7.org/fhir/us/qicore/StructureDefinition/qicore-immunization"]},"status":"completed","vaccineCode":{"coding":[{"system":"http://hl7.org/fhir/sid/cvx","code":"146","display":"Diphtheria and Tetanus Toxoids and Acellular Pertussis Adsorbed, Inactivated Poliovirus, Haemophilus b Conjugate (Meningococcal Protein Conjugate), and Hepatitis B (Recombinant) Vaccine."}]},"patient":{"reference":"Patient/46362f30-f48e-4839-a562-941e85cf55ea"},"occurrenceDateTime":"2024-01-02T00:00:00.000Z","recorded":"2024-01-02T00:00:00.000Z","primarySource":true},"request":{"method":"PUT","url":"Immunization/bc3fd162-c04b-4b0c-a7d7-057bcce7c3b7"}},{"fullUrl":"https://madie.cms.gov/Immunization/Immunization-1b","resource":{"resourceType":"Immunization","id":"4210cd4a-3392-4ebb-8ed6-56a0890f3960","meta":{"profile":["http://hl7.org/fhir/us/qicore/StructureDefinition/qicore-immunization"]},"status":"completed","vaccineCode":{"coding":[{"system":"http://hl7.org/fhir/sid/cvx","code":"146","display":"Diphtheria and Tetanus Toxoids and Acellular Pertussis Adsorbed, Inactivated Poliovirus, Haemophilus b Conjugate (Meningococcal Protein Conjugate), and Hepatitis B (Recombinant) Vaccine."}]},"patient":{"reference":"Patient/46362f30-f48e-4839-a562-941e85cf55ea"},"occurrenceDateTime":"2024-01-05T00:00:00.000Z","recorded":"2024-01-02T00:00:00.000Z","primarySource":true},"request":{"method":"PUT","url":"Immunization/4210cd4a-3392-4ebb-8ed6-56a0890f3960"}},{"fullUrl":"https://madie.cms.gov/Immunization/Immunization-1c","resource":{"resourceType":"Immunization","id":"d24a1cb8-a54b-4567-84c9-4cc37c471af2","meta":{"profile":["http://hl7.org/fhir/us/qicore/StructureDefinition/qicore-immunization"]},"status":"completed","vaccineCode":{"coding":[{"system":"http://hl7.org/fhir/sid/cvx","code":"146","display":"Diphtheria and Tetanus Toxoids and Acellular Pertussis Adsorbed, Inactivated Poliovirus, Haemophilus b Conjugate (Meningococcal Protein Conjugate), and Hepatitis B (Recombinant) Vaccine."}]},"patient":{"reference":"Patient/46362f30-f48e-4839-a562-941e85cf55ea"},"occurrenceDateTime":"2024-01-07T00:00:00.000Z","recorded":"2024-01-02T00:00:00.000Z","primarySource":true},"request":{"method":"PUT","url":"Immunization/d24a1cb8-a54b-4567-84c9-4cc37c471af2"}},{"fullUrl":"https://madie.cms.gov/Immunization/Immunization-1d","resource":{"resourceType":"Immunization","id":"73c1f2c0-a419-499d-b053-8c57e6fcc63e","meta":{"profile":["http://hl7.org/fhir/us/qicore/StructureDefinition/qicore-immunization"]},"status":"completed","vaccineCode":{"coding":[{"system":"http://hl7.org/fhir/sid/cvx","code":"146","display":"Diphtheria and Tetanus Toxoids and Acellular Pertussis Adsorbed, Inactivated Poliovirus, Haemophilus b Conjugate (Meningococcal Protein Conjugate), and Hepatitis B (Recombinant) Vaccine."}]},"patient":{"reference":"Patient/46362f30-f48e-4839-a562-941e85cf55ea"},"occurrenceDateTime":"2024-01-10T00:00:00.000Z","recorded":"2024-01-02T00:00:00.000Z","primarySource":true},"request":{"method":"PUT","url":"Immunization/73c1f2c0-a419-499d-b053-8c57e6fcc63e"}},{"fullUrl":"https://madie.cms.gov/Immunization/Immunization-2a","resource":{"resourceType":"Immunization","id":"b8176efd-b190-4e22-a03c-07d2a8ce25e0","meta":{"profile":["http://hl7.org/fhir/us/qicore/StructureDefinition/qicore-immunization"]},"status":"completed","vaccineCode":{"coding":[{"system":"http://hl7.org/fhir/sid/cvx","code":"146","display":"\tDiphtheria and Tetanus Toxoids and Acellular Pertussis Adsorbed, Inactivated Poliovirus, Haemophilus b Conjugate (Meningococcal Protein Conjugate), and Hepatitis B (Recombinant) Vaccine."}]},"patient":{"reference":"Patient/46362f30-f48e-4839-a562-941e85cf55ea"},"occurrenceDateTime":"2024-01-02T00:00:00.000Z","recorded":"2024-01-02T00:00:00.000Z","primarySource":true},"request":{"method":"PUT","url":"Immunization/b8176efd-b190-4e22-a03c-07d2a8ce25e0"}},{"fullUrl":"https://madie.cms.gov/Immunization/Immunization-2b","resource":{"resourceType":"Immunization","id":"2997f520-97b6-46a7-b44c-da463e9685dd","meta":{"profile":["http://hl7.org/fhir/us/qicore/StructureDefinition/qicore-immunization"]},"status":"completed","vaccineCode":{"coding":[{"system":"http://hl7.org/fhir/sid/cvx","code":"146","display":"\tDiphtheria and Tetanus Toxoids and Acellular Pertussis Adsorbed, Inactivated Poliovirus, Haemophilus b Conjugate (Meningococcal Protein Conjugate), and Hepatitis B (Recombinant) Vaccine."}]},"patient":{"reference":"Patient/46362f30-f48e-4839-a562-941e85cf55ea"},"occurrenceDateTime":"2024-01-06T00:00:00.000Z","recorded":"2024-01-02T00:00:00.000Z","primarySource":true},"request":{"method":"PUT","url":"Immunization/2997f520-97b6-46a7-b44c-da463e9685dd"}},{"fullUrl":"https://madie.cms.gov/Immunization/Immunization-2c","resource":{"resourceType":"Immunization","id":"d0bbcaa6-6d5c-457a-98ce-6c791f740a1d","meta":{"profile":["http://hl7.org/fhir/us/qicore/StructureDefinition/qicore-immunization"]},"status":"completed","vaccineCode":{"coding":[{"system":"http://hl7.org/fhir/sid/cvx","code":"146","display":"\tDiphtheria and Tetanus Toxoids and Acellular Pertussis Adsorbed, Inactivated Poliovirus, Haemophilus b Conjugate (Meningococcal Protein Conjugate), and Hepatitis B (Recombinant) Vaccine."}]},"patient":{"reference":"Patient/46362f30-f48e-4839-a562-941e85cf55ea"},"occurrenceDateTime":"2024-01-09T00:00:00.000Z","recorded":"2024-01-02T00:00:00.000Z","primarySource":true},"request":{"method":"PUT","url":"Immunization/d0bbcaa6-6d5c-457a-98ce-6c791f740a1d"}},{"fullUrl":"https://madie.cms.gov/Immunization/Immunization-3","resource":{"resourceType":"Immunization","id":"8546a9d5-8ea4-45ba-ac7b-939fae9aee9c","meta":{"profile":["http://hl7.org/fhir/us/qicore/StructureDefinition/qicore-immunization"]},"status":"completed","vaccineCode":{"coding":[{"system":"http://hl7.org/fhir/sid/cvx","code":"94","display":"measles, mumps, rubella, and varicella virus vaccine"}]},"patient":{"reference":"Patient/46362f30-f48e-4839-a562-941e85cf55ea"},"occurrenceDateTime":"2024-01-02T00:00:00.000Z","recorded":"2024-01-02T00:00:00.000Z","primarySource":true},"request":{"method":"PUT","url":"Immunization/8546a9d5-8ea4-45ba-ac7b-939fae9aee9c"}},{"fullUrl":"https://madie.cms.gov/Immunization/Immunization-4a","resource":{"resourceType":"Immunization","id":"960076a0-6cdf-41ce-8c34-d89264e1ffb6","meta":{"profile":["http://hl7.org/fhir/us/qicore/StructureDefinition/qicore-immunization"]},"status":"completed","vaccineCode":{"coding":[{"system":"http://hl7.org/fhir/sid/cvx","code":"49","display":"Haemophilus influenzae type b vaccine, PRP-OMP conjugate"}]},"patient":{"reference":"Patient/46362f30-f48e-4839-a562-941e85cf55ea"},"occurrenceDateTime":"2024-01-02T00:00:00.000Z","recorded":"2024-01-02T00:00:00.000Z","primarySource":true},"request":{"method":"PUT","url":"Immunization/960076a0-6cdf-41ce-8c34-d89264e1ffb6"}},{"fullUrl":"https://madie.cms.gov/Immunization/Immunization-4b","resource":{"resourceType":"Immunization","id":"f9bc0216-88fe-4540-a877-774c7cd06a09","meta":{"profile":["http://hl7.org/fhir/us/qicore/StructureDefinition/qicore-immunization"]},"status":"completed","vaccineCode":{"coding":[{"system":"http://hl7.org/fhir/sid/cvx","code":"49","display":"Haemophilus influenzae type b vaccine, PRP-OMP conjugate"}]},"patient":{"reference":"Patient/46362f30-f48e-4839-a562-941e85cf55ea"},"occurrenceDateTime":"2024-01-02T00:00:00.000Z","recorded":"2024-01-02T00:00:00.000Z","primarySource":true},"request":{"method":"PUT","url":"Immunization/f9bc0216-88fe-4540-a877-774c7cd06a09"}},{"fullUrl":"https://madie.cms.gov/Immunization/Immunization-4c","resource":{"resourceType":"Immunization","id":"35d7d797-8d2e-450c-9cc3-f347814e3631","meta":{"profile":["http://hl7.org/fhir/us/qicore/StructureDefinition/qicore-immunization"]},"status":"completed","vaccineCode":{"coding":[{"system":"http://hl7.org/fhir/sid/cvx","code":"49","display":"Haemophilus influenzae type b vaccine, PRP-OMP conjugate"}]},"patient":{"reference":"Patient/46362f30-f48e-4839-a562-941e85cf55ea"},"occurrenceDateTime":"2024-01-02T00:00:00.000Z","recorded":"2024-01-02T00:00:00.000Z","primarySource":true},"request":{"method":"PUT","url":"Immunization/35d7d797-8d2e-450c-9cc3-f347814e3631"}},{"fullUrl":"https://madie.cms.gov/Immunization/Immunization-5a","resource":{"resourceType":"Immunization","id":"cdf5763c-0145-4bc2-a3c1-5550a46047b5","meta":{"profile":["http://hl7.org/fhir/us/qicore/StructureDefinition/qicore-immunization"]},"status":"completed","vaccineCode":{"coding":[{"system":"http://hl7.org/fhir/sid/cvx","code":"51","display":"Haemophilus influenzae type b conjugate and Hepatitis B vaccine"}]},"patient":{"reference":"Patient/46362f30-f48e-4839-a562-941e85cf55ea"},"occurrenceDateTime":"2024-01-02T00:00:00.000Z","recorded":"2024-01-02T00:00:00.000Z","primarySource":true},"request":{"method":"PUT","url":"Immunization/cdf5763c-0145-4bc2-a3c1-5550a46047b5"}},{"fullUrl":"https://madie.cms.gov/Immunization/Immunization-5b","resource":{"resourceType":"Immunization","id":"18f17f13-258c-4dd8-b0c4-146501d69c21","meta":{"profile":["http://hl7.org/fhir/us/qicore/StructureDefinition/qicore-immunization"]},"status":"completed","vaccineCode":{"coding":[{"system":"http://hl7.org/fhir/sid/cvx","code":"51","display":"Haemophilus influenzae type b conjugate and Hepatitis B vaccine"}]},"patient":{"reference":"Patient/46362f30-f48e-4839-a562-941e85cf55ea"},"occurrenceDateTime":"2024-01-10T00:00:00.000Z","recorded":"2024-01-02T00:00:00.000Z","primarySource":true},"request":{"method":"PUT","url":"Immunization/18f17f13-258c-4dd8-b0c4-146501d69c21"}},{"fullUrl":"https://madie.cms.gov/Immunization/Immunization-5c","resource":{"resourceType":"Immunization","id":"80555b59-f401-433f-a30e-e7015d6c7503","meta":{"profile":["http://hl7.org/fhir/us/qicore/StructureDefinition/qicore-immunization"]},"status":"completed","vaccineCode":{"coding":[{"system":"http://hl7.org/fhir/sid/cvx","code":"51","display":"Haemophilus influenzae type b conjugate and Hepatitis B vaccine"}]},"patient":{"reference":"Patient/46362f30-f48e-4839-a562-941e85cf55ea"},"occurrenceDateTime":"2024-01-12T00:00:00.000Z","recorded":"2024-01-02T00:00:00.000Z","primarySource":true},"request":{"method":"PUT","url":"Immunization/80555b59-f401-433f-a30e-e7015d6c7503"}},{"fullUrl":"https://madie.cms.gov/Immunization/Immunization-6","resource":{"resourceType":"Immunization","id":"7ef0047b-5a15-41d7-8569-a27d902fea95","meta":{"profile":["http://hl7.org/fhir/us/qicore/StructureDefinition/qicore-immunization"]},"status":"completed","vaccineCode":{"coding":[{"system":"http://hl7.org/fhir/sid/cvx","code":"94","display":"measles, mumps, rubella, and varicella virus vaccine"}]},"patient":{"reference":"Patient/46362f30-f48e-4839-a562-941e85cf55ea"},"occurrenceDateTime":"2024-01-02T00:00:00.000Z","recorded":"2024-01-02T00:00:00.000Z","primarySource":true},"request":{"method":"PUT","url":"Immunization/7ef0047b-5a15-41d7-8569-a27d902fea95"}},{"fullUrl":"https://madie.cms.gov/Immunization/Immunization-7a","resource":{"resourceType":"Immunization","id":"6a4e4989-13b6-4a02-bf2b-f0c8f87d45a0","meta":{"profile":["http://hl7.org/fhir/us/qicore/StructureDefinition/qicore-immunization"]},"status":"completed","vaccineCode":{"coding":[{"system":"http://hl7.org/fhir/sid/cvx","code":"215","display":"Pneumococcal conjugate vaccine 15-valent (PCV15), polysaccharide CRM197 conjugate, adjuvant, preservative free"}]},"patient":{"reference":"Patient/46362f30-f48e-4839-a562-941e85cf55ea"},"occurrenceDateTime":"2024-01-12T00:00:00.000Z","recorded":"2024-01-02T00:00:00.000Z","primarySource":true},"request":{"method":"PUT","url":"Immunization/6a4e4989-13b6-4a02-bf2b-f0c8f87d45a0"}},{"fullUrl":"https://madie.cms.gov/Immunization/Immunization-7b","resource":{"resourceType":"Immunization","id":"d74d2fbb-dd20-44bc-b72e-f5025d2c9998","meta":{"profile":["http://hl7.org/fhir/us/qicore/StructureDefinition/qicore-immunization"]},"status":"completed","vaccineCode":{"coding":[{"system":"http://hl7.org/fhir/sid/cvx","code":"215","display":"Pneumococcal conjugate vaccine 15-valent (PCV15), polysaccharide CRM197 conjugate, adjuvant, preservative free"}]},"patient":{"reference":"Patient/46362f30-f48e-4839-a562-941e85cf55ea"},"occurrenceDateTime":"2024-01-14T00:00:00.000Z","recorded":"2024-01-02T00:00:00.000Z","primarySource":true},"request":{"method":"PUT","url":"Immunization/d74d2fbb-dd20-44bc-b72e-f5025d2c9998"}},{"fullUrl":"https://madie.cms.gov/Immunization/Immunization-7c","resource":{"resourceType":"Immunization","id":"009a2a5c-77ce-4719-bf5b-1812d113db4d","meta":{"profile":["http://hl7.org/fhir/us/qicore/StructureDefinition/qicore-immunization"]},"status":"completed","vaccineCode":{"coding":[{"system":"http://hl7.org/fhir/sid/cvx","code":"215","display":"Pneumococcal conjugate vaccine 15-valent (PCV15), polysaccharide CRM197 conjugate, adjuvant, preservative free"}]},"patient":{"reference":"Patient/46362f30-f48e-4839-a562-941e85cf55ea"},"occurrenceDateTime":"2024-01-20T00:00:00.000Z","recorded":"2024-01-02T00:00:00.000Z","primarySource":true},"request":{"method":"PUT","url":"Immunization/009a2a5c-77ce-4719-bf5b-1812d113db4d"}},{"fullUrl":"https://madie.cms.gov/Immunization/Immunization-7d","resource":{"resourceType":"Immunization","id":"87cd743f-017d-44f0-be33-f7fd349410aa","meta":{"profile":["http://hl7.org/fhir/us/qicore/StructureDefinition/qicore-immunization"]},"status":"completed","vaccineCode":{"coding":[{"system":"http://hl7.org/fhir/sid/cvx","code":"215","display":"Pneumococcal conjugate vaccine 15-valent (PCV15), polysaccharide CRM197 conjugate, adjuvant, preservative free"}]},"patient":{"reference":"Patient/46362f30-f48e-4839-a562-941e85cf55ea"},"occurrenceDateTime":"2024-01-22T00:00:00.000Z","recorded":"2024-01-02T00:00:00.000Z","primarySource":true},"request":{"method":"PUT","url":"Immunization/87cd743f-017d-44f0-be33-f7fd349410aa"}},{"fullUrl":"https://madie.cms.gov/Immunization/Immunization-8","resource":{"resourceType":"Immunization","id":"56661051-6726-450e-bd62-8fd6f7ecc825","meta":{"profile":["http://hl7.org/fhir/us/qicore/StructureDefinition/qicore-immunization"]},"status":"completed","vaccineCode":{"coding":[{"system":"http://hl7.org/fhir/sid/cvx","code":"85","display":"hepatitis A vaccine, unspecified formulation"}]},"patient":{"reference":"Patient/46362f30-f48e-4839-a562-941e85cf55ea"},"occurrenceDateTime":"2024-01-02T00:00:00.000Z","recorded":"2024-01-02T00:00:00.000Z","primarySource":true},"request":{"method":"PUT","url":"Immunization/56661051-6726-450e-bd62-8fd6f7ecc825"}},{"fullUrl":"https://madie.cms.gov/Immunization/Immunization-9a","resource":{"resourceType":"Immunization","id":"5f623672-d6ce-4b98-bf57-f719a9e24362","meta":{"profile":["http://hl7.org/fhir/us/qicore/StructureDefinition/qicore-immunization"]},"status":"completed","vaccineCode":{"coding":[{"system":"http://hl7.org/fhir/sid/cvx","code":"119","display":"rotavirus, live, monovalent vaccine"}]},"patient":{"reference":"Patient/46362f30-f48e-4839-a562-941e85cf55ea"},"occurrenceDateTime":"2024-01-02T00:00:00.000Z","recorded":"2024-01-02T00:00:00.000Z","primarySource":true},"request":{"method":"PUT","url":"Immunization/5f623672-d6ce-4b98-bf57-f719a9e24362"}},{"fullUrl":"https://madie.cms.gov/Immunization/Immunization-9b","resource":{"resourceType":"Immunization","id":"a76c8e3d-b4e3-4207-8847-7ecb8b73b0bc","meta":{"profile":["http://hl7.org/fhir/us/qicore/StructureDefinition/qicore-immunization"]},"status":"completed","vaccineCode":{"coding":[{"system":"http://hl7.org/fhir/sid/cvx","code":"119","display":"rotavirus, live, monovalent vaccine"}]},"patient":{"reference":"Patient/46362f30-f48e-4839-a562-941e85cf55ea"},"occurrenceDateTime":"2024-01-07T00:00:00.000Z","recorded":"2024-01-02T00:00:00.000Z","primarySource":true},"request":{"method":"PUT","url":"Immunization/a76c8e3d-b4e3-4207-8847-7ecb8b73b0bc"}},{"fullUrl":"https://madie.cms.gov/Immunization/Immunization-10a","resource":{"resourceType":"Immunization","id":"c20064e7-972b-42eb-8f79-5eaaead740aa","meta":{"profile":["http://hl7.org/fhir/us/qicore/StructureDefinition/qicore-immunization"]},"status":"completed","vaccineCode":{"coding":[{"system":"http://hl7.org/fhir/sid/cvx","code":"153","display":"\tInfluenza, injectable, Madin Darby Canine Kidney, preservative free"}]},"patient":{"reference":"Patient/46362f30-f48e-4839-a562-941e85cf55ea"},"occurrenceDateTime":"2024-01-02T00:00:00.000Z","recorded":"2024-01-02T00:00:00.000Z","primarySource":true},"request":{"method":"PUT","url":"Immunization/c20064e7-972b-42eb-8f79-5eaaead740aa"}},{"fullUrl":"https://madie.cms.gov/Immunization/Immunization-10b","resource":{"resourceType":"Immunization","id":"84b7336d-32d2-427c-836f-91df74b4de34","meta":{"profile":["http://hl7.org/fhir/us/qicore/StructureDefinition/qicore-immunization"]},"status":"completed","vaccineCode":{"coding":[{"system":"http://hl7.org/fhir/sid/cvx","code":"149","display":"influenza, live, intranasal, quadrivalent"}]},"patient":{"reference":"Patient/46362f30-f48e-4839-a562-941e85cf55ea"},"occurrenceDateTime":"2025-01-01T00:00:00.000Z","recorded":"2025-01-01T00:00:00.000Z","primarySource":true},"request":{"method":"PUT","url":"Immunization/84b7336d-32d2-427c-836f-91df74b4de34"}},{"fullUrl":"https://madie.cms.gov/MeasureReport/9829b306-58aa-48d2-86fc-d5210b423da7","resource":{"resourceType":"MeasureReport","id":"9829b306-58aa-48d2-86fc-d5210b423da7","meta":{"profile":["http://hl7.org/fhir/us/cqfmeasures/StructureDefinition/test-case-cqfm"]},"contained":[{"resourceType":"Parameters","id":"fff0e97a-e38f-4798-b277-0b703813d9c7-parameters","parameter":[{"name":"subject","valueString":"46362f30-f48e-4839-a562-941e85cf55ea"}]}],"extension":[{"url":"http://hl7.org/fhir/us/cqfmeasures/StructureDefinition/cqfm-inputParameters","valueReference":{"reference":"#fff0e97a-e38f-4798-b277-0b703813d9c7-parameters"}},{"url":"http://hl7.org/fhir/us/cqfmeasures/StructureDefinition/cqfm-testCaseDescription","valueMarkdown":"Patient has LAIV"}],"modifierExtension":[{"url":"http://hl7.org/fhir/us/cqfmeasures/StructureDefinition/cqfm-isTestCase","valueBoolean":true}],"status":"complete","type":"individual","measure":"https://madie.cms.gov/Measure/ChildhoodImmunizationStatusFHIR","period":{"start":"2025-01-01","end":"2025-12-31"},"group":[{"population":[{"code":{"coding":[{"system":"http://terminology.hl7.org/CodeSystem/measure-population","code":"initial-population","display":"Initial Population"}]},"count":1},{"code":{"coding":[{"system":"http://terminology.hl7.org/CodeSystem/measure-population","code":"denominator","display":"Denominator"}]},"count":1},{"code":{"coding":[{"system":"http://terminology.hl7.org/CodeSystem/measure-population","code":"denominator-exclusion","display":"Denominator Exclusion"}]},"count":0},{"code":{"coding":[{"system":"http://terminology.hl7.org/CodeSystem/measure-population","code":"numerator","display":"Numerator"}]},"count":1}]}]},"request":{"method":"PUT","url":"MeasureReport/9829b306-58aa-48d2-86fc-d5210b423da7"}}]}