{"resourceType":"Bundle","id":"tests-1e7dc519-5d75-4c07-b23f-ae9421a12943-bundle","type":"transaction","entry":[{"fullUrl":"https://madie.cms.gov/Patient/1e7dc519-5d75-4c07-b23f-ae9421a12943","resource":{"resourceType":"Patient","id":"1e7dc519-5d75-4c07-b23f-ae9421a12943","meta":{"profile":["http://hl7.org/fhir/us/qicore/StructureDefinition/qicore-patient"]},"extension":[{"url":"http://hl7.org/fhir/us/core/StructureDefinition/us-core-race","extension":[{"url":"ombCategory","valueCoding":{"system":"urn:oid:2.16.840.1.113883.6.238","code":"2028-9","display":"Asian","userSelected":true}},{"url":"text","valueString":"Asian"}]},{"url":"http://hl7.org/fhir/us/core/StructureDefinition/us-core-ethnicity","extension":[{"url":"ombCategory","valueCoding":{"system":"urn:oid:2.16.840.1.113883.6.238","code":"2135-2","display":"Hispanic or Latino","userSelected":true}},{"url":"text","valueString":"Hispanic or Latino"}]}],"identifier":[{"type":{"coding":[{"system":"http://terminology.hl7.org/CodeSystem/v2-0203","code":"MR"}]},"system":"http://hospital.smarthealthit.org","value":"999999995"}],"name":[{"family":"Bertha","given":["Betty"]}],"gender":"female","birthDate":"2023-01-01"},"request":{"method":"PUT","url":"Patient/1e7dc519-5d75-4c07-b23f-ae9421a12943"}},{"fullUrl":"https://madie.cms.gov/Encounter/Encounter-1","resource":{"resourceType":"Encounter","id":"69154e92-b9b4-4877-9042-f850e08d6a15","meta":{"profile":["http://hl7.org/fhir/us/qicore/StructureDefinition/qicore-encounter"]},"status":"finished","class":{"system":"http://terminology.hl7.org/CodeSystem/v3-ActCode","code":"AMB","display":"ambulatory"},"type":[{"coding":[{"system":"http://snomed.info/sct","code":"185317003","display":"Telephone encounter (procedure)"}]}],"subject":{"reference":"Patient/1e7dc519-5d75-4c07-b23f-ae9421a12943"},"period":{"start":"2025-01-01T01:00:00.000Z","end":"2025-01-01T01:15:00.000Z"}},"request":{"method":"PUT","url":"Encounter/69154e92-b9b4-4877-9042-f850e08d6a15"}},{"fullUrl":"https://madie.cms.gov/Immunization/Immunization-1a","resource":{"resourceType":"Immunization","id":"80dcff00-13dc-4205-a923-81a74ec8f0f6","meta":{"profile":["http://hl7.org/fhir/us/qicore/StructureDefinition/qicore-immunization"]},"status":"completed","vaccineCode":{"coding":[{"system":"http://hl7.org/fhir/sid/cvx","code":"146","display":"Diphtheria and Tetanus Toxoids and Acellular Pertussis Adsorbed, Inactivated Poliovirus, Haemophilus b Conjugate (Meningococcal Protein Conjugate), and Hepatitis B (Recombinant) Vaccine."}]},"patient":{"reference":"Patient/1e7dc519-5d75-4c07-b23f-ae9421a12943"},"occurrenceDateTime":"2024-01-02T00:00:00.000Z","recorded":"2024-01-02T00:00:00.000Z","primarySource":true},"request":{"method":"PUT","url":"Immunization/80dcff00-13dc-4205-a923-81a74ec8f0f6"}},{"fullUrl":"https://madie.cms.gov/Immunization/Immunization-1b","resource":{"resourceType":"Immunization","id":"d5883b49-0664-47fe-82ec-9ef7322156fd","meta":{"profile":["http://hl7.org/fhir/us/qicore/StructureDefinition/qicore-immunization"]},"status":"completed","vaccineCode":{"coding":[{"system":"http://hl7.org/fhir/sid/cvx","code":"146","display":"Diphtheria and Tetanus Toxoids and Acellular Pertussis Adsorbed, Inactivated Poliovirus, Haemophilus b Conjugate (Meningococcal Protein Conjugate), and Hepatitis B (Recombinant) Vaccine."}]},"patient":{"reference":"Patient/1e7dc519-5d75-4c07-b23f-ae9421a12943"},"occurrenceDateTime":"2024-01-05T00:00:00.000Z","recorded":"2024-01-02T00:00:00.000Z","primarySource":true},"request":{"method":"PUT","url":"Immunization/d5883b49-0664-47fe-82ec-9ef7322156fd"}},{"fullUrl":"https://madie.cms.gov/Immunization/Immunization-1c","resource":{"resourceType":"Immunization","id":"4112c8ee-f3f4-4b42-8be9-8ea8acc7b2af","meta":{"profile":["http://hl7.org/fhir/us/qicore/StructureDefinition/qicore-immunization"]},"status":"completed","vaccineCode":{"coding":[{"system":"http://hl7.org/fhir/sid/cvx","code":"146","display":"Diphtheria and Tetanus Toxoids and Acellular Pertussis Adsorbed, Inactivated Poliovirus, Haemophilus b Conjugate (Meningococcal Protein Conjugate), and Hepatitis B (Recombinant) Vaccine."}]},"patient":{"reference":"Patient/1e7dc519-5d75-4c07-b23f-ae9421a12943"},"occurrenceDateTime":"2024-01-07T00:00:00.000Z","recorded":"2024-01-02T00:00:00.000Z","primarySource":true},"request":{"method":"PUT","url":"Immunization/4112c8ee-f3f4-4b42-8be9-8ea8acc7b2af"}},{"fullUrl":"https://madie.cms.gov/Procedure/Procedure-1d","resource":{"resourceType":"Procedure","id":"6b16c998-59dc-4368-bcf2-17869f935642","meta":{"profile":["http://hl7.org/fhir/us/qicore/StructureDefinition/qicore-procedure"]},"extension":[{"url":"http://hl7.org/fhir/us/qicore/StructureDefinition/qicore-recorded","valueDateTime":"2024-01-02T00:00:00.000Z"}],"status":"completed","code":{"coding":[{"system":"http://www.ama-assn.org/go/cpt","code":"90700","display":"Diphtheria, tetanus toxoids, and acellular pertussis vaccine (DTaP), when administered to individuals younger than 7 years, for intramuscular use"}]},"subject":{"reference":"Patient/1e7dc519-5d75-4c07-b23f-ae9421a12943"},"performedPeriod":{"start":"2024-01-02T00:00:00.000Z","end":"2024-01-02T23:59:59.000Z"}},"request":{"method":"PUT","url":"Procedure/6b16c998-59dc-4368-bcf2-17869f935642"}},{"fullUrl":"https://madie.cms.gov/Immunization/Immunization-2a","resource":{"resourceType":"Immunization","id":"6128a92b-fe5f-468f-945a-010064f32f73","meta":{"profile":["http://hl7.org/fhir/us/qicore/StructureDefinition/qicore-immunization"]},"status":"completed","vaccineCode":{"coding":[{"system":"http://hl7.org/fhir/sid/cvx","code":"146","display":"\tDiphtheria and Tetanus Toxoids and Acellular Pertussis Adsorbed, Inactivated Poliovirus, Haemophilus b Conjugate (Meningococcal Protein Conjugate), and Hepatitis B (Recombinant) Vaccine."}]},"patient":{"reference":"Patient/1e7dc519-5d75-4c07-b23f-ae9421a12943"},"occurrenceDateTime":"2024-01-02T00:00:00.000Z","recorded":"2024-01-02T00:00:00.000Z","primarySource":true},"request":{"method":"PUT","url":"Immunization/6128a92b-fe5f-468f-945a-010064f32f73"}},{"fullUrl":"https://madie.cms.gov/Immunization/Immunization-2b","resource":{"resourceType":"Immunization","id":"a7820e62-3315-4ac1-ae6a-c64e9f5d670e","meta":{"profile":["http://hl7.org/fhir/us/qicore/StructureDefinition/qicore-immunization"]},"status":"completed","vaccineCode":{"coding":[{"system":"http://hl7.org/fhir/sid/cvx","code":"146","display":"\tDiphtheria and Tetanus Toxoids and Acellular Pertussis Adsorbed, Inactivated Poliovirus, Haemophilus b Conjugate (Meningococcal Protein Conjugate), and Hepatitis B (Recombinant) Vaccine."}]},"patient":{"reference":"Patient/1e7dc519-5d75-4c07-b23f-ae9421a12943"},"occurrenceDateTime":"2024-01-06T00:00:00.000Z","recorded":"2024-01-02T00:00:00.000Z","primarySource":true},"request":{"method":"PUT","url":"Immunization/a7820e62-3315-4ac1-ae6a-c64e9f5d670e"}},{"fullUrl":"https://madie.cms.gov/Procedure/Procedure-2c","resource":{"resourceType":"Procedure","id":"98bb192d-3a2d-4380-a996-d05195419403","meta":{"profile":["http://hl7.org/fhir/us/qicore/StructureDefinition/qicore-procedure"]},"extension":[{"url":"http://hl7.org/fhir/us/qicore/StructureDefinition/qicore-recorded","valueDateTime":"2024-01-02T00:00:00.000Z"}],"status":"completed","code":{"coding":[{"system":"http://www.ama-assn.org/go/cpt","code":"90713","display":"Poliovirus vaccine, inactivated (IPV), for subcutaneous or intramuscular use"}]},"subject":{"reference":"Patient/1e7dc519-5d75-4c07-b23f-ae9421a12943"},"performedPeriod":{"start":"2024-01-02T00:00:00.000Z","end":"2024-01-02T23:59:59.000Z"}},"request":{"method":"PUT","url":"Procedure/98bb192d-3a2d-4380-a996-d05195419403"}},{"fullUrl":"https://madie.cms.gov/Procedure/Procedure-3","resource":{"resourceType":"Procedure","id":"7edd2830-834c-4e40-9c5a-03d97b74d87a","meta":{"profile":["http://hl7.org/fhir/us/qicore/StructureDefinition/qicore-procedure"]},"extension":[{"url":"http://hl7.org/fhir/us/qicore/StructureDefinition/qicore-recorded","valueDateTime":"2024-01-02T00:00:00.000Z"}],"status":"completed","code":{"coding":[{"system":"http://www.ama-assn.org/go/cpt","code":"90710","display":"Measles, mumps, rubella, and varicella vaccine (MMRV), live, for subcutaneous use"}]},"subject":{"reference":"Patient/1e7dc519-5d75-4c07-b23f-ae9421a12943"},"performedPeriod":{"start":"2024-01-02T00:00:00.000Z","end":"2024-01-02T23:59:59.000Z"}},"request":{"method":"PUT","url":"Procedure/7edd2830-834c-4e40-9c5a-03d97b74d87a"}},{"fullUrl":"https://madie.cms.gov/Immunization/Immunization-4a","resource":{"resourceType":"Immunization","id":"ae6563bd-4ef5-49b2-94b0-028d6ab781d1","meta":{"profile":["http://hl7.org/fhir/us/qicore/StructureDefinition/qicore-immunization"]},"status":"completed","vaccineCode":{"coding":[{"system":"http://hl7.org/fhir/sid/cvx","code":"49","display":"Haemophilus influenzae type b vaccine, PRP-OMP conjugate"}]},"patient":{"reference":"Patient/1e7dc519-5d75-4c07-b23f-ae9421a12943"},"occurrenceDateTime":"2024-01-02T00:00:00.000Z","recorded":"2024-01-02T00:00:00.000Z","primarySource":true},"request":{"method":"PUT","url":"Immunization/ae6563bd-4ef5-49b2-94b0-028d6ab781d1"}},{"fullUrl":"https://madie.cms.gov/Immunization/Immunization-4b","resource":{"resourceType":"Immunization","id":"7cd07a4d-8cca-44f1-86e1-6e6f48a417a4","meta":{"profile":["http://hl7.org/fhir/us/qicore/StructureDefinition/qicore-immunization"]},"status":"completed","vaccineCode":{"coding":[{"system":"http://hl7.org/fhir/sid/cvx","code":"49","display":"Haemophilus influenzae type b vaccine, PRP-OMP conjugate"}]},"patient":{"reference":"Patient/1e7dc519-5d75-4c07-b23f-ae9421a12943"},"occurrenceDateTime":"2024-01-02T00:00:00.000Z","recorded":"2024-01-02T00:00:00.000Z","primarySource":true},"request":{"method":"PUT","url":"Immunization/7cd07a4d-8cca-44f1-86e1-6e6f48a417a4"}},{"fullUrl":"https://madie.cms.gov/Procedure/Procedure-4c","resource":{"resourceType":"Procedure","id":"0a33142b-f8e2-456e-bfb8-cbae12eb794d","meta":{"profile":["http://hl7.org/fhir/us/qicore/StructureDefinition/qicore-procedure"]},"extension":[{"url":"http://hl7.org/fhir/us/qicore/StructureDefinition/qicore-recorded","valueDateTime":"2024-01-02T00:00:00.000Z"}],"status":"completed","code":{"coding":[{"system":"http://www.ama-assn.org/go/cpt","code":"90697","display":"Diphtheria, tetanus toxoids, acellular pertussis vaccine, inactivated poliovirus vaccine, Haemophilus influenzae type b PRP-OMP conjugate vaccine, and hepatitis B vaccine (DTaP-IPV-Hib-HepB), for intramuscular use"}]},"subject":{"reference":"Patient/1e7dc519-5d75-4c07-b23f-ae9421a12943"},"performedPeriod":{"start":"2024-01-02T00:00:00.000Z","end":"2024-01-02T23:59:59.000Z"}},"request":{"method":"PUT","url":"Procedure/0a33142b-f8e2-456e-bfb8-cbae12eb794d"}},{"fullUrl":"https://madie.cms.gov/Immunization/Immunization-5a","resource":{"resourceType":"Immunization","id":"f6673e8f-9b6c-451b-9cc7-8c8412d67f0f","meta":{"profile":["http://hl7.org/fhir/us/qicore/StructureDefinition/qicore-immunization"]},"status":"completed","vaccineCode":{"coding":[{"system":"http://hl7.org/fhir/sid/cvx","code":"51","display":"Haemophilus influenzae type b conjugate and Hepatitis B vaccine"}]},"patient":{"reference":"Patient/1e7dc519-5d75-4c07-b23f-ae9421a12943"},"occurrenceDateTime":"2024-01-02T00:00:00.000Z","recorded":"2024-01-02T00:00:00.000Z","primarySource":true},"request":{"method":"PUT","url":"Immunization/f6673e8f-9b6c-451b-9cc7-8c8412d67f0f"}},{"fullUrl":"https://madie.cms.gov/Immunization/Immunization-5b","resource":{"resourceType":"Immunization","id":"ff8cfdac-975e-4a05-acd3-b1cc61ab524e","meta":{"profile":["http://hl7.org/fhir/us/qicore/StructureDefinition/qicore-immunization"]},"status":"completed","vaccineCode":{"coding":[{"system":"http://hl7.org/fhir/sid/cvx","code":"51","display":"Haemophilus influenzae type b conjugate and Hepatitis B vaccine"}]},"patient":{"reference":"Patient/1e7dc519-5d75-4c07-b23f-ae9421a12943"},"occurrenceDateTime":"2024-01-10T00:00:00.000Z","recorded":"2024-01-02T00:00:00.000Z","primarySource":true},"request":{"method":"PUT","url":"Immunization/ff8cfdac-975e-4a05-acd3-b1cc61ab524e"}},{"fullUrl":"https://madie.cms.gov/Procedure/Procedure-5c","resource":{"resourceType":"Procedure","id":"299bf10b-7bbe-4834-ae96-17e5d7e0ab5a","meta":{"profile":["http://hl7.org/fhir/us/qicore/StructureDefinition/qicore-procedure"]},"extension":[{"url":"http://hl7.org/fhir/us/qicore/StructureDefinition/qicore-recorded","valueDateTime":"2024-01-02T00:00:00.000Z"}],"status":"completed","code":{"coding":[{"system":"http://www.ama-assn.org/go/cpt","code":"90740","display":"Hepatitis B vaccine (HepB), dialysis or immunosuppressed patient dosage, 3 dose schedule, for intramuscular use"}]},"subject":{"reference":"Patient/1e7dc519-5d75-4c07-b23f-ae9421a12943"},"performedPeriod":{"start":"2024-01-02T00:00:00.000Z","end":"2024-01-02T23:59:59.000Z"}},"request":{"method":"PUT","url":"Procedure/299bf10b-7bbe-4834-ae96-17e5d7e0ab5a"}},{"fullUrl":"https://madie.cms.gov/Immunization/Immunization-6","resource":{"resourceType":"Immunization","id":"d5e02834-cf48-4c75-8496-d1c1042d81e0","meta":{"profile":["http://hl7.org/fhir/us/qicore/StructureDefinition/qicore-immunization"]},"status":"completed","vaccineCode":{"coding":[{"system":"http://hl7.org/fhir/sid/cvx","code":"94","display":"measles, mumps, rubella, and varicella virus vaccine"}]},"patient":{"reference":"Patient/1e7dc519-5d75-4c07-b23f-ae9421a12943"},"occurrenceDateTime":"2024-01-02T00:00:00.000Z","recorded":"2024-01-02T00:00:00.000Z","primarySource":true},"request":{"method":"PUT","url":"Immunization/d5e02834-cf48-4c75-8496-d1c1042d81e0"}},{"fullUrl":"https://madie.cms.gov/Immunization/Immunization-7a","resource":{"resourceType":"Immunization","id":"943036be-b627-4a22-9ccb-6c2af1216711","meta":{"profile":["http://hl7.org/fhir/us/qicore/StructureDefinition/qicore-immunization"]},"status":"completed","vaccineCode":{"coding":[{"system":"http://hl7.org/fhir/sid/cvx","code":"215","display":"Pneumococcal conjugate vaccine 15-valent (PCV15), polysaccharide CRM197 conjugate, adjuvant, preservative free"}]},"patient":{"reference":"Patient/1e7dc519-5d75-4c07-b23f-ae9421a12943"},"occurrenceDateTime":"2024-01-12T00:00:00.000Z","recorded":"2024-01-02T00:00:00.000Z","primarySource":true},"request":{"method":"PUT","url":"Immunization/943036be-b627-4a22-9ccb-6c2af1216711"}},{"fullUrl":"https://madie.cms.gov/Immunization/Immunization-7b","resource":{"resourceType":"Immunization","id":"2162267c-c8c9-42f0-bc81-bfaa78220b18","meta":{"profile":["http://hl7.org/fhir/us/qicore/StructureDefinition/qicore-immunization"]},"status":"completed","vaccineCode":{"coding":[{"system":"http://hl7.org/fhir/sid/cvx","code":"215","display":"Pneumococcal conjugate vaccine 15-valent (PCV15), polysaccharide CRM197 conjugate, adjuvant, preservative free"}]},"patient":{"reference":"Patient/1e7dc519-5d75-4c07-b23f-ae9421a12943"},"occurrenceDateTime":"2024-01-14T00:00:00.000Z","recorded":"2024-01-02T00:00:00.000Z","primarySource":true},"request":{"method":"PUT","url":"Immunization/2162267c-c8c9-42f0-bc81-bfaa78220b18"}},{"fullUrl":"https://madie.cms.gov/Immunization/Immunization-7c","resource":{"resourceType":"Immunization","id":"545a5c1b-554d-48d0-bc71-8f5f58a67f56","meta":{"profile":["http://hl7.org/fhir/us/qicore/StructureDefinition/qicore-immunization"]},"status":"completed","vaccineCode":{"coding":[{"system":"http://hl7.org/fhir/sid/cvx","code":"215","display":"Pneumococcal conjugate vaccine 15-valent (PCV15), polysaccharide CRM197 conjugate, adjuvant, preservative free"}]},"patient":{"reference":"Patient/1e7dc519-5d75-4c07-b23f-ae9421a12943"},"occurrenceDateTime":"2024-01-20T00:00:00.000Z","recorded":"2024-01-02T00:00:00.000Z","primarySource":true},"request":{"method":"PUT","url":"Immunization/545a5c1b-554d-48d0-bc71-8f5f58a67f56"}},{"fullUrl":"https://madie.cms.gov/Procedure/Procedure-7d","resource":{"resourceType":"Procedure","id":"d2afe4fd-50a2-448e-873a-7378c2fc49ea","meta":{"profile":["http://hl7.org/fhir/us/qicore/StructureDefinition/qicore-procedure"]},"extension":[{"url":"http://hl7.org/fhir/us/qicore/StructureDefinition/qicore-recorded","valueDateTime":"2024-01-02T00:00:00.000Z"}],"status":"completed","code":{"coding":[{"system":"http://www.ama-assn.org/go/cpt","code":"90670","display":"Pneumococcal conjugate vaccine, 13 valent (PCV13), for intramuscular use"}]},"subject":{"reference":"Patient/1e7dc519-5d75-4c07-b23f-ae9421a12943"},"performedPeriod":{"start":"2024-01-02T00:00:00.000Z","end":"2024-01-02T23:59:59.000Z"}},"request":{"method":"PUT","url":"Procedure/d2afe4fd-50a2-448e-873a-7378c2fc49ea"}},{"fullUrl":"https://madie.cms.gov/Procedure/Procedure-8","resource":{"resourceType":"Procedure","id":"8e9b54ad-c711-4a94-b422-5ca444028131","meta":{"profile":["http://hl7.org/fhir/us/qicore/StructureDefinition/qicore-procedure"]},"extension":[{"url":"http://hl7.org/fhir/us/qicore/StructureDefinition/qicore-recorded","valueDateTime":"2024-01-02T00:00:00.000Z"}],"status":"completed","code":{"coding":[{"system":"http://www.ama-assn.org/go/cpt","code":"90633","display":"Hepatitis A vaccine (HepA), pediatric/adolescent dosage-2 dose schedule, for intramuscular use"}]},"subject":{"reference":"Patient/1e7dc519-5d75-4c07-b23f-ae9421a12943"},"performedPeriod":{"start":"2024-01-02T00:00:00.000Z","end":"2024-01-02T23:59:59.000Z"}},"request":{"method":"PUT","url":"Procedure/8e9b54ad-c711-4a94-b422-5ca444028131"}},{"fullUrl":"https://madie.cms.gov/Immunization/Immunization-9a","resource":{"resourceType":"Immunization","id":"0b423cbc-07a0-43a3-b27e-2ae9b6a2e485","meta":{"profile":["http://hl7.org/fhir/us/qicore/StructureDefinition/qicore-immunization"]},"status":"completed","vaccineCode":{"coding":[{"system":"http://hl7.org/fhir/sid/cvx","code":"119","display":"rotavirus, live, monovalent vaccine"}]},"patient":{"reference":"Patient/1e7dc519-5d75-4c07-b23f-ae9421a12943"},"occurrenceDateTime":"2024-01-02T00:00:00.000Z","recorded":"2024-01-02T00:00:00.000Z","primarySource":true},"request":{"method":"PUT","url":"Immunization/0b423cbc-07a0-43a3-b27e-2ae9b6a2e485"}},{"fullUrl":"https://madie.cms.gov/Procedure/Procedure-9b","resource":{"resourceType":"Procedure","id":"983cc441-1ee3-42e7-a91e-4c19e719001d","meta":{"profile":["http://hl7.org/fhir/us/qicore/StructureDefinition/qicore-procedure"]},"extension":[{"url":"http://hl7.org/fhir/us/qicore/StructureDefinition/qicore-recorded","valueDateTime":"2024-01-02T00:00:00.000Z"}],"status":"completed","code":{"coding":[{"system":"http://www.ama-assn.org/go/cpt","code":"90681","display":"Rotavirus vaccine, human, attenuated (RV1), 2 dose schedule, live, for oral use"}]},"subject":{"reference":"Patient/1e7dc519-5d75-4c07-b23f-ae9421a12943"},"performedPeriod":{"start":"2024-01-07T00:00:00.000Z","end":"2024-01-07T23:59:59.000Z"}},"request":{"method":"PUT","url":"Procedure/983cc441-1ee3-42e7-a91e-4c19e719001d"}},{"fullUrl":"https://madie.cms.gov/Immunization/Immunization-10a","resource":{"resourceType":"Immunization","id":"d47d2788-d313-4721-9ea0-533230c59475","meta":{"profile":["http://hl7.org/fhir/us/qicore/StructureDefinition/qicore-immunization"]},"status":"completed","vaccineCode":{"coding":[{"system":"http://hl7.org/fhir/sid/cvx","code":"153","display":"\tInfluenza, injectable, Madin Darby Canine Kidney, preservative free"}]},"patient":{"reference":"Patient/1e7dc519-5d75-4c07-b23f-ae9421a12943"},"occurrenceDateTime":"2024-01-02T00:00:00.000Z","recorded":"2024-01-02T00:00:00.000Z","primarySource":true},"request":{"method":"PUT","url":"Immunization/d47d2788-d313-4721-9ea0-533230c59475"}},{"fullUrl":"https://madie.cms.gov/Procedure/Procedure-10b","resource":{"resourceType":"Procedure","id":"1c58d23d-71b5-4045-bc45-f91aedea1ba7","meta":{"profile":["http://hl7.org/fhir/us/qicore/StructureDefinition/qicore-procedure"]},"extension":[{"url":"http://hl7.org/fhir/us/qicore/StructureDefinition/qicore-recorded","valueDateTime":"2024-01-10T00:00:00.000Z"}],"status":"completed","code":{"coding":[{"system":"http://www.ama-assn.org/go/cpt","code":"90689","display":"Influenza virus vaccine, quadrivalent (IIV4), inactivated, adjuvanted, preservative free, 0.25 mL dosage, for intramuscular use"}]},"subject":{"reference":"Patient/1e7dc519-5d75-4c07-b23f-ae9421a12943"},"performedPeriod":{"start":"2024-01-10T00:00:00.000Z","end":"2024-01-10T23:59:59.000Z"}},"request":{"method":"PUT","url":"Procedure/1c58d23d-71b5-4045-bc45-f91aedea1ba7"}},{"fullUrl":"https://madie.cms.gov/MeasureReport/10989c2d-73c0-4e5f-8973-47a73f50ff72","resource":{"resourceType":"MeasureReport","id":"10989c2d-73c0-4e5f-8973-47a73f50ff72","meta":{"profile":["http://hl7.org/fhir/us/cqfmeasures/StructureDefinition/test-case-cqfm"]},"contained":[{"resourceType":"Parameters","id":"5d466efd-4349-4d9a-b6a6-1a749a05435d-parameters","parameter":[{"name":"subject","valueString":"1e7dc519-5d75-4c07-b23f-ae9421a12943"}]}],"extension":[{"url":"http://hl7.org/fhir/us/cqfmeasures/StructureDefinition/cqfm-inputParameters","valueReference":{"reference":"#5d466efd-4349-4d9a-b6a6-1a749a05435d-parameters"}},{"url":"http://hl7.org/fhir/us/cqfmeasures/StructureDefinition/cqfm-testCaseDescription","valueMarkdown":"All vaccines met - procedures"}],"modifierExtension":[{"url":"http://hl7.org/fhir/us/cqfmeasures/StructureDefinition/cqfm-isTestCase","valueBoolean":true}],"status":"complete","type":"individual","measure":"https://madie.cms.gov/Measure/ChildhoodImmunizationStatusFHIR","period":{"start":"2025-01-01","end":"2025-12-31"},"group":[{"population":[{"code":{"coding":[{"system":"http://terminology.hl7.org/CodeSystem/measure-population","code":"initial-population","display":"Initial Population"}]},"count":1},{"code":{"coding":[{"system":"http://terminology.hl7.org/CodeSystem/measure-population","code":"denominator","display":"Denominator"}]},"count":1},{"code":{"coding":[{"system":"http://terminology.hl7.org/CodeSystem/measure-population","code":"denominator-exclusion","display":"Denominator Exclusion"}]},"count":0},{"code":{"coding":[{"system":"http://terminology.hl7.org/CodeSystem/measure-population","code":"numerator","display":"Numerator"}]},"count":1}]}]},"request":{"method":"PUT","url":"MeasureReport/10989c2d-73c0-4e5f-8973-47a73f50ff72"}}]}