{
  "resourceType": "Bundle",
  "id": "DENEXPass-Enc1FallPOAEnc2FallNPOAAndInjuryNPOA-bundle",
  "type": "transaction",
  "entry": [ {
    "fullUrl": "https://madie.cms.gov/Encounter/8bb9c2b6-66f5-43ef-bb0c-c8edb8886e1b",
    "resource": {
      "resourceType": "Encounter",
      "id": "8bb9c2b6-66f5-43ef-bb0c-c8edb8886e1b",
      "meta": {
        "profile": [ "http://hl7.org/fhir/us/qicore/StructureDefinition/qicore-encounter" ]
      },
      "status": "finished",
      "class": {
        "system": "http://terminology.hl7.org/CodeSystem/v3-ActCode",
        "code": "IMP",
        "display": "inpatient encounter"
      },
      "type": [ {
        "coding": [ {
          "system": "http://snomed.info/sct",
          "code": "183452005"
        } ]
      } ],
      "subject": {
        "reference": "Patient/404570c9-b21f-4fa2-be5d-6d02c910fea6"
      },
      "period": {
        "start": "2026-12-10T08:00:00+00:00",
        "end": "2026-12-14T08:15:00+00:00"
      },
      "diagnosis": [ {
        "extension": [ {
          "url": "http://hl7.org/fhir/us/qicore/StructureDefinition/qicore-encounter-diagnosisPresentOnAdmission",
          "valueCodeableConcept": {
            "coding": [ {
              "system": "https://www.cms.gov/Medicare/Medicare-Fee-for-Service-Payment/HospitalAcqCond/Coding",
              "code": "N"
            } ]
          }
        } ],
        "condition": {
          "reference": "Condition/96d9918f-1a16-46e9-9a83-d214d714ff0d"
        }
      }, {
        "extension": [ {
          "url": "http://hl7.org/fhir/us/qicore/StructureDefinition/qicore-encounter-diagnosisPresentOnAdmission",
          "valueCodeableConcept": {
            "coding": [ {
              "system": "https://www.cms.gov/Medicare/Medicare-Fee-for-Service-Payment/HospitalAcqCond/Coding",
              "code": "N"
            } ]
          }
        } ],
        "condition": {
          "reference": "Condition/1574229d-97ed-4a73-96b6-9ca677f3bd94"
        }
      } ]
    },
    "request": {
      "method": "PUT",
      "url": "Encounter/8bb9c2b6-66f5-43ef-bb0c-c8edb8886e1b"
    }
  }, {
    "fullUrl": "https://madie.cms.gov/Encounter/bd5a7416-4d7b-41da-812e-23f9eaac812c",
    "resource": {
      "resourceType": "Encounter",
      "id": "bd5a7416-4d7b-41da-812e-23f9eaac812c",
      "meta": {
        "profile": [ "http://hl7.org/fhir/us/qicore/StructureDefinition/qicore-encounter" ]
      },
      "status": "finished",
      "class": {
        "system": "http://terminology.hl7.org/CodeSystem/v3-ActCode",
        "code": "IMP",
        "display": "inpatient encounter"
      },
      "type": [ {
        "coding": [ {
          "system": "http://snomed.info/sct",
          "code": "183452005"
        } ]
      } ],
      "subject": {
        "reference": "Patient/404570c9-b21f-4fa2-be5d-6d02c910fea6"
      },
      "period": {
        "start": "2026-11-09T11:00:00+00:00",
        "end": "2026-11-12T08:15:00+00:00"
      },
      "diagnosis": [ {
        "extension": [ {
          "url": "http://hl7.org/fhir/us/qicore/StructureDefinition/qicore-encounter-diagnosisPresentOnAdmission",
          "valueCodeableConcept": {
            "coding": [ {
              "system": "https://www.cms.gov/Medicare/Medicare-Fee-for-Service-Payment/HospitalAcqCond/Coding",
              "code": "Y"
            } ]
          }
        } ],
        "condition": {
          "reference": "Condition/961ded5a-3258-4c61-9e42-9c2948f90b9e"
        }
      } ]
    },
    "request": {
      "method": "PUT",
      "url": "Encounter/bd5a7416-4d7b-41da-812e-23f9eaac812c"
    }
  }, {
    "fullUrl": "https://madie.cms.gov/Encounter/3d704e3f-64d2-43ea-97b0-2483e588e8b5",
    "resource": {
      "resourceType": "Encounter",
      "id": "3d704e3f-64d2-43ea-97b0-2483e588e8b5",
      "meta": {
        "profile": [ "http://hl7.org/fhir/us/qicore/StructureDefinition/qicore-encounter" ]
      },
      "status": "finished",
      "class": {
        "system": "http://terminology.hl7.org/CodeSystem/v3-ActCode",
        "code": "IMP",
        "display": "inpatient encounter"
      },
      "type": [ {
        "coding": [ {
          "system": "http://snomed.info/sct",
          "code": "4525004"
        } ]
      } ],
      "subject": {
        "reference": "Patient/404570c9-b21f-4fa2-be5d-6d02c910fea6"
      },
      "period": {
        "start": "2026-11-09T08:00:00+00:00",
        "end": "2026-11-09T10:15:00+00:00"
      }
    },
    "request": {
      "method": "PUT",
      "url": "Encounter/3d704e3f-64d2-43ea-97b0-2483e588e8b5"
    }
  }, {
    "fullUrl": "https://madie.cms.gov/Condition/1574229d-97ed-4a73-96b6-9ca677f3bd94",
    "resource": {
      "resourceType": "Condition",
      "id": "1574229d-97ed-4a73-96b6-9ca677f3bd94",
      "meta": {
        "profile": [ "http://hl7.org/fhir/us/qicore/StructureDefinition/qicore-condition" ]
      },
      "clinicalStatus": {
        "coding": [ {
          "system": "http://terminology.hl7.org/CodeSystem/condition-clinical",
          "code": "active"
        } ]
      },
      "verificationStatus": {
        "coding": [ {
          "system": "http://terminology.hl7.org/CodeSystem/condition-ver-status",
          "code": "confirmed"
        } ]
      },
      "category": [ {
        "coding": [ {
          "system": "http://terminology.hl7.org/CodeSystem/condition-category",
          "code": "encounter-diagnosis",
          "display": "Encounter Diagnosis"
        } ]
      } ],
      "code": {
        "coding": [ {
          "system": "http://hl7.org/fhir/sid/icd-10-cm",
          "code": "S01.121A"
        } ]
      },
      "subject": {
        "reference": "Patient/404570c9-b21f-4fa2-be5d-6d02c910fea6"
      },
      "encounter": {
        "reference": "Encounter/8bb9c2b6-66f5-43ef-bb0c-c8edb8886e1b"
      }
    },
    "request": {
      "method": "PUT",
      "url": "Condition/1574229d-97ed-4a73-96b6-9ca677f3bd94"
    }
  }, {
    "fullUrl": "https://madie.cms.gov/Condition/96d9918f-1a16-46e9-9a83-d214d714ff0d",
    "resource": {
      "resourceType": "Condition",
      "id": "96d9918f-1a16-46e9-9a83-d214d714ff0d",
      "meta": {
        "profile": [ "http://hl7.org/fhir/us/qicore/StructureDefinition/qicore-condition" ]
      },
      "clinicalStatus": {
        "coding": [ {
          "system": "http://terminology.hl7.org/CodeSystem/condition-clinical",
          "code": "active"
        } ]
      },
      "verificationStatus": {
        "coding": [ {
          "system": "http://terminology.hl7.org/CodeSystem/condition-ver-status",
          "code": "confirmed"
        } ]
      },
      "category": [ {
        "coding": [ {
          "system": "http://terminology.hl7.org/CodeSystem/condition-category",
          "code": "encounter-diagnosis",
          "display": "Encounter Diagnosis"
        } ]
      } ],
      "code": {
        "coding": [ {
          "system": "http://hl7.org/fhir/sid/icd-10-cm",
          "code": "W01.0XXA"
        } ]
      },
      "subject": {
        "reference": "Patient/404570c9-b21f-4fa2-be5d-6d02c910fea6"
      },
      "encounter": {
        "reference": "Encounter/8bb9c2b6-66f5-43ef-bb0c-c8edb8886e1b"
      }
    },
    "request": {
      "method": "PUT",
      "url": "Condition/96d9918f-1a16-46e9-9a83-d214d714ff0d"
    }
  }, {
    "fullUrl": "https://madie.cms.gov/Condition/961ded5a-3258-4c61-9e42-9c2948f90b9e",
    "resource": {
      "resourceType": "Condition",
      "id": "961ded5a-3258-4c61-9e42-9c2948f90b9e",
      "meta": {
        "profile": [ "http://hl7.org/fhir/us/qicore/StructureDefinition/qicore-condition" ]
      },
      "clinicalStatus": {
        "coding": [ {
          "system": "http://terminology.hl7.org/CodeSystem/condition-clinical",
          "code": "active"
        } ]
      },
      "verificationStatus": {
        "coding": [ {
          "system": "http://terminology.hl7.org/CodeSystem/condition-ver-status",
          "code": "confirmed"
        } ]
      },
      "category": [ {
        "coding": [ {
          "system": "http://terminology.hl7.org/CodeSystem/condition-category",
          "code": "encounter-diagnosis",
          "display": "Encounter Diagnosis"
        } ]
      } ],
      "code": {
        "coding": [ {
          "system": "http://hl7.org/fhir/sid/icd-10-cm",
          "code": "W01.0XXA"
        } ]
      },
      "subject": {
        "reference": "Patient/404570c9-b21f-4fa2-be5d-6d02c910fea6"
      },
      "encounter": {
        "reference": "Encounter/bd5a7416-4d7b-41da-812e-23f9eaac812c"
      }
    },
    "request": {
      "method": "PUT",
      "url": "Condition/961ded5a-3258-4c61-9e42-9c2948f90b9e"
    }
  }, {
    "fullUrl": "https://madie.cms.gov/Patient/404570c9-b21f-4fa2-be5d-6d02c910fea6",
    "resource": {
      "resourceType": "Patient",
      "id": "404570c9-b21f-4fa2-be5d-6d02c910fea6",
      "meta": {
        "profile": [ "http://hl7.org/fhir/us/qicore/StructureDefinition/qicore-patient" ]
      },
      "extension": [ {
        "url": "http://hl7.org/fhir/us/core/StructureDefinition/us-core-race",
        "extension": [ {
          "url": "ombCategory",
          "valueCoding": {
            "system": "urn:oid:2.16.840.1.113883.6.238",
            "code": "2054-5",
            "display": "Black or African American",
            "userSelected": true
          }
        }, {
          "url": "text",
          "valueString": "Black or African American"
        } ]
      }, {
        "url": "http://hl7.org/fhir/us/core/StructureDefinition/us-core-ethnicity",
        "extension": [ {
          "url": "ombCategory",
          "valueCoding": {
            "system": "urn:oid:2.16.840.1.113883.6.238",
            "code": "2186-5",
            "display": "Not Hispanic or Latino",
            "userSelected": true
          }
        }, {
          "url": "text",
          "valueString": "Not Hispanic or Latino"
        } ]
      } ],
      "identifier": [ {
        "type": {
          "coding": [ {
            "system": "http://terminology.hl7.org/CodeSystem/v2-0203",
            "code": "MR"
          } ]
        },
        "system": "https://bonnie-fhir.healthit.gov/",
        "value": "61152a3b98086b7a79cbd7c1"
      } ],
      "active": true,
      "name": [ {
        "use": "usual",
        "family": "DENEXPass",
        "given": [ "Enc1FallPOAEnc2FallNPOAAndInjuryNPOA" ]
      } ],
      "gender": "male",
      "birthDate": "1992-11-10"
    },
    "request": {
      "method": "PUT",
      "url": "Patient/404570c9-b21f-4fa2-be5d-6d02c910fea6"
    }
  }, {
    "fullUrl": "https://madie.cms.gov/MeasureReport/2911b5dd-8586-4aa9-85ca-408bf607c3a7",
    "resource": {
      "resourceType": "MeasureReport",
      "id": "2911b5dd-8586-4aa9-85ca-408bf607c3a7",
      "meta": {
        "profile": [ "http://hl7.org/fhir/us/cqfmeasures/StructureDefinition/test-case-cqfm" ]
      },
      "contained": [ {
        "resourceType": "Parameters",
        "id": "eeaca24f-b84d-4689-9c9e-075a3daffef8-parameters",
        "parameter": [ {
          "name": "subject",
          "valueString": "404570c9-b21f-4fa2-be5d-6d02c910fea6"
        } ]
      } ],
      "extension": [ {
        "url": "http://hl7.org/fhir/us/cqfmeasures/StructureDefinition/cqfm-inputParameters",
        "valueReference": {
          "reference": "#eeaca24f-b84d-4689-9c9e-075a3daffef8-parameters"
        }
      }, {
        "url": "http://hl7.org/fhir/us/cqfmeasures/StructureDefinition/cqfm-testCaseDescription",
        "valueMarkdown": "Enc 1: Fall POA = Y. Meets denom exclusion.\nEnc: 2 Fall POA = N and injury POA = N. Meets numerator."
      } ],
      "modifierExtension": [ {
        "url": "http://hl7.org/fhir/us/cqfmeasures/StructureDefinition/cqfm-isTestCase",
        "valueBoolean": true
      } ],
      "status": "complete",
      "type": "individual",
      "measure": "https://madie.cms.gov/Measure/FallsWithInjuryFHIR",
      "period": {
        "start": "2026-01-01",
        "end": "2026-12-31"
      },
      "group": [ {
        "population": [ {
          "code": {
            "coding": [ {
              "system": "http://terminology.hl7.org/CodeSystem/measure-population",
              "code": "initial-population",
              "display": "Initial Population"
            } ]
          },
          "count": 2
        }, {
          "code": {
            "coding": [ {
              "system": "http://terminology.hl7.org/CodeSystem/measure-population",
              "code": "denominator",
              "display": "Denominator"
            } ]
          },
          "count": 2
        }, {
          "code": {
            "coding": [ {
              "system": "http://terminology.hl7.org/CodeSystem/measure-population",
              "code": "denominator-exclusion",
              "display": "Denominator Exclusion"
            } ]
          },
          "count": 1
        }, {
          "code": {
            "coding": [ {
              "system": "http://terminology.hl7.org/CodeSystem/measure-population",
              "code": "numerator",
              "display": "Numerator"
            } ]
          },
          "count": 1
        }, {
          "code": {
            "coding": [ {
              "system": "http://terminology.hl7.org/CodeSystem/measure-population",
              "code": "numerator-exclusion",
              "display": "Numerator Exclusion"
            } ]
          },
          "count": 1
        }, {
          "code": {
            "coding": [ {
              "system": "http://terminology.hl7.org/CodeSystem/measure-population",
              "code": "denominator-observation",
              "display": "DenominatorObservation"
            } ]
          },
          "count": 4
        } ]
      } ],
      "evaluatedResource": [ {
        "reference": "Encounter/8bb9c2b6-66f5-43ef-bb0c-c8edb8886e1b"
      }, {
        "reference": "Encounter/bd5a7416-4d7b-41da-812e-23f9eaac812c"
      }, {
        "reference": "Encounter/3d704e3f-64d2-43ea-97b0-2483e588e8b5"
      }, {
        "reference": "Condition/1574229d-97ed-4a73-96b6-9ca677f3bd94"
      }, {
        "reference": "Condition/96d9918f-1a16-46e9-9a83-d214d714ff0d"
      }, {
        "reference": "Condition/961ded5a-3258-4c61-9e42-9c2948f90b9e"
      }, {
        "reference": "Patient/404570c9-b21f-4fa2-be5d-6d02c910fea6"
      } ]
    },
    "request": {
      "method": "PUT",
      "url": "MeasureReport/2911b5dd-8586-4aa9-85ca-408bf607c3a7"
    }
  } ]
}