{
  "resourceType": "Bundle",
  "id": "612e6e9302c62a011f2eee8b",
  "type": "transaction",
  "entry": [ {
    "fullUrl": "https://madie.cms.gov/Patient/a6f83dff-1b0c-4584-babd-8c369c0c7d51",
    "resource": {
      "resourceType": "Patient",
      "id": "a6f83dff-1b0c-4584-babd-8c369c0c7d51",
      "meta": {
        "profile": [ "http://hl7.org/fhir/us/qicore/StructureDefinition/qicore-patient" ]
      },
      "text": {
        "status": "generated",
        "div": "<div xmlns=\"http://www.w3.org/1999/xhtml\"><div class=\"hapiHeaderText\">HipFxNotPrin <b>DENEXFAIL </b></div><table class=\"hapiPropertyTable\"><tbody><tr><td>Identifier</td><td>31862da5e01d3c5e5400146c9a207dfa</td></tr><tr><td>Date of birth</td><td><span>03 March 1974</span></td></tr></tbody></table></div>"
      },
      "extension": [ {
        "url": "http://hl7.org/fhir/us/core/StructureDefinition/us-core-race",
        "extension": [ {
          "url": "ombCategory",
          "valueCoding": {
            "system": "urn:oid:2.16.840.1.113883.6.238",
            "code": "1002-5",
            "display": "American Indian or Alaska Native",
            "userSelected": true
          }
        }, {
          "url": "text",
          "valueString": "American Indian or Alaska Native"
        } ]
      }, {
        "url": "http://hl7.org/fhir/us/core/StructureDefinition/us-core-ethnicity",
        "extension": [ {
          "url": "ombCategory",
          "valueCoding": {
            "system": "urn:oid:2.16.840.1.113883.6.238",
            "code": "2135-2",
            "display": "Hispanic or Latino",
            "userSelected": true
          }
        }, {
          "url": "text",
          "valueString": "Hispanic or Latino"
        } ]
      } ],
      "identifier": [ {
        "type": {
          "coding": [ {
            "system": "http://terminology.hl7.org/CodeSystem/v2-0203",
            "code": "MR"
          } ]
        },
        "system": "https://bonnie-fhir.healthit.gov/",
        "value": "612e6e9302c62a011f2eee8b"
      } ],
      "active": true,
      "name": [ {
        "use": "usual",
        "family": "DENEXFail",
        "given": [ "HipFxNotPrin" ]
      } ],
      "gender": "female",
      "birthDate": "1975-03-03"
    },
    "request": {
      "method": "PUT",
      "url": "Patient/a6f83dff-1b0c-4584-babd-8c369c0c7d51"
    }
  }, {
    "fullUrl": "https://madie.cms.gov/Encounter/85e0692f-d55e-42e0-9c91-3165803ecbd1",
    "resource": {
      "resourceType": "Encounter",
      "id": "85e0692f-d55e-42e0-9c91-3165803ecbd1",
      "meta": {
        "profile": [ "http://hl7.org/fhir/us/qicore/StructureDefinition/qicore-encounter" ]
      },
      "status": "finished",
      "class": {
        "system": "http://terminology.hl7.org/CodeSystem/v3-ActCode",
        "code": "IMP",
        "display": "inpatient encounter"
      },
      "type": [ {
        "coding": [ {
          "system": "http://snomed.info/sct",
          "code": "8715000"
        } ]
      } ],
      "subject": {
        "reference": "Patient/a6f83dff-1b0c-4584-babd-8c369c0c7d51"
      },
      "period": {
        "start": "2026-12-04T08:00:00+00:00",
        "end": "2026-12-30T08:15:00+00:00"
      },
      "length": {
        "value": 26.0,
        "unit": "days"
      },
      "location": [ {
        "location": {
          "reference": "Location/46665b12-58aa-4402-9db1-84079015cca7"
        },
        "period": {
          "start": "2026-12-06T08:00:00.000+00:00",
          "end": "2026-12-08T08:15:00.000+00:00"
        }
      } ]
    },
    "request": {
      "method": "PUT",
      "url": "Encounter/85e0692f-d55e-42e0-9c91-3165803ecbd1"
    }
  }, {
    "fullUrl": "https://madie.cms.gov/Coverage/b052660d-51d5-4863-8c6b-29ef5fa4cf92",
    "resource": {
      "resourceType": "Coverage",
      "id": "b052660d-51d5-4863-8c6b-29ef5fa4cf92",
      "status": "active",
      "beneficiary": {
        "reference": "Patient/a6f83dff-1b0c-4584-babd-8c369c0c7d51"
      },
      "period": {
        "start": "1975-03-03T08:00:00+00:00"
      },
      "payor": [ {
        "reference": "Organization/6dbd6217-5560-4f9c-86d7-d0df43efe220"
      } ]
    },
    "request": {
      "method": "PUT",
      "url": "Coverage/b052660d-51d5-4863-8c6b-29ef5fa4cf92"
    }
  }, {
    "fullUrl": "https://madie.cms.gov/Procedure/566fe9fc-933d-4e38-9953-0530e1affcb5",
    "resource": {
      "resourceType": "Procedure",
      "id": "566fe9fc-933d-4e38-9953-0530e1affcb5",
      "meta": {
        "profile": [ "http://hl7.org/fhir/us/qicore/StructureDefinition/qicore-procedure" ]
      },
      "extension": [ {
        "url": "http://hl7.org/fhir/us/qicore/StructureDefinition/qicore-recorded",
        "valueDateTime": "2013-12-06T09:35:00-04:00"
      } ],
      "status": "completed",
      "code": {
        "coding": [ {
          "system": "http://www.cms.gov/Medicare/Coding/ICD10",
          "code": "0F150D3",
          "display": "Bypass Right Hepatic Duct to Duodenum with Intraluminal Device, Open Approach"
        } ]
      },
      "subject": {
        "reference": "Patient/a6f83dff-1b0c-4584-babd-8c369c0c7d51"
      },
      "performedPeriod": {
        "start": "2026-12-06T08:15:00+00:00",
        "end": "2026-12-06T11:15:00+00:00"
      }
    },
    "request": {
      "method": "PUT",
      "url": "Procedure/566fe9fc-933d-4e38-9953-0530e1affcb5"
    }
  }, {
    "fullUrl": "https://madie.cms.gov/Location/46665b12-58aa-4402-9db1-84079015cca7",
    "resource": {
      "resourceType": "Location",
      "id": "46665b12-58aa-4402-9db1-84079015cca7",
      "meta": {
        "profile": [ "http://hl7.org/fhir/us/qicore/StructureDefinition/qicore-location" ]
      },
      "identifier": [ {
        "use": "usual",
        "system": "http://exampleoflocation.com",
        "value": "B1-S.F2"
      } ],
      "name": "Medical Surgical East, first floor",
      "type": [ {
        "coding": [ {
          "system": "https://www.cdc.gov/nhsn/cdaportal/terminology/codesystem/hsloc.html",
          "code": "1025-6",
          "display": "Trauma Critical Care",
          "userSelected": true
        } ]
      } ]
    },
    "request": {
      "method": "PUT",
      "url": "Location/46665b12-58aa-4402-9db1-84079015cca7"
    }
  }, {
    "fullUrl": "https://madie.cms.gov/Organization/6dbd6217-5560-4f9c-86d7-d0df43efe220",
    "resource": {
      "resourceType": "Organization",
      "id": "6dbd6217-5560-4f9c-86d7-d0df43efe220",
      "meta": {
        "profile": [ "http://hl7.org/fhir/us/qicore/StructureDefinition/qicore-organization" ]
      },
      "identifier": [ {
        "use": "temp",
        "system": "urn:oid:2.16.840.1.113883.4.4",
        "value": "21-3259825"
      } ],
      "active": true,
      "type": [ {
        "coding": [ {
          "system": "http://terminology.hl7.org/CodeSystem/organization-type",
          "code": "pay",
          "display": "Payer"
        } ]
      } ],
      "name": "Blue Cross Blue Shield of Texas",
      "telecom": [ {
        "system": "phone",
        "value": "(+1) 972-766-6900"
      } ],
      "address": [ {
        "use": "billing",
        "type": "postal",
        "line": [ "P.O. Box 660044" ],
        "city": "Dallas",
        "state": "TX",
        "postalCode": "75266-0044",
        "country": "USA"
      } ]
    },
    "request": {
      "method": "PUT",
      "url": "Organization/6dbd6217-5560-4f9c-86d7-d0df43efe220"
    }
  }, {
    "fullUrl": "https://madie.cms.gov/Practitioner/adc2387f-dd77-45cf-862e-1fe39f854a79",
    "resource": {
      "resourceType": "Practitioner",
      "id": "adc2387f-dd77-45cf-862e-1fe39f854a79",
      "identifier": [ {
        "system": "http://hl7.org/fhir/sid/us-npi",
        "value": "123456"
      } ],
      "name": [ {
        "family": "Evil",
        "prefix": [ "Dr" ]
      } ]
    },
    "request": {
      "method": "PUT",
      "url": "Practitioner/adc2387f-dd77-45cf-862e-1fe39f854a79"
    }
  }, {
    "fullUrl": "https://madie.cms.gov/MeasureReport/3cb09163-0563-4311-8822-2c4c9589ad38",
    "resource": {
      "resourceType": "MeasureReport",
      "id": "3cb09163-0563-4311-8822-2c4c9589ad38",
      "meta": {
        "profile": [ "http://hl7.org/fhir/us/cqfmeasures/StructureDefinition/test-case-cqfm" ]
      },
      "contained": [ {
        "resourceType": "Parameters",
        "id": "e712d347-d45c-4e66-9291-ae7378b3dd4a-parameters",
        "parameter": [ {
          "name": "subject",
          "valueString": "a6f83dff-1b0c-4584-babd-8c369c0c7d51"
        } ]
      } ],
      "extension": [ {
        "url": "http://hl7.org/fhir/us/cqfmeasures/StructureDefinition/cqfm-inputParameters",
        "valueReference": {
          "reference": "#e712d347-d45c-4e66-9291-ae7378b3dd4a-parameters"
        }
      }, {
        "url": "http://hl7.org/fhir/us/cqfmeasures/StructureDefinition/cqfm-testCaseDescription",
        "valueMarkdown": "general surgery starts not principal\n"
      } ],
      "modifierExtension": [ {
        "url": "http://hl7.org/fhir/us/cqfmeasures/StructureDefinition/cqfm-isTestCase",
        "valueBoolean": true
      } ],
      "status": "complete",
      "type": "individual",
      "measure": "https://madie.cms.gov/Measure/CMS190VTEProphylaxisICUFHIR",
      "period": {
        "start": "2026-01-01",
        "end": "2026-12-31"
      },
      "group": [ {
        "population": [ {
          "code": {
            "coding": [ {
              "system": "http://terminology.hl7.org/CodeSystem/measure-population",
              "code": "initial-population",
              "display": "Initial Population"
            } ]
          },
          "count": 1
        }, {
          "code": {
            "coding": [ {
              "system": "http://terminology.hl7.org/CodeSystem/measure-population",
              "code": "denominator",
              "display": "Denominator"
            } ]
          },
          "count": 1
        }, {
          "code": {
            "coding": [ {
              "system": "http://terminology.hl7.org/CodeSystem/measure-population",
              "code": "denominator-exclusion",
              "display": "Denominator Exclusion"
            } ]
          },
          "count": 0
        }, {
          "code": {
            "coding": [ {
              "system": "http://terminology.hl7.org/CodeSystem/measure-population",
              "code": "numerator",
              "display": "Numerator"
            } ]
          },
          "count": 0
        }, {
          "code": {
            "coding": [ {
              "system": "http://terminology.hl7.org/CodeSystem/measure-population",
              "code": "denominator-exception",
              "display": "Denominator Exception"
            } ]
          },
          "count": 0
        } ]
      } ],
      "evaluatedResource": [ {
        "reference": "Patient/a6f83dff-1b0c-4584-babd-8c369c0c7d51"
      }, {
        "reference": "Encounter/85e0692f-d55e-42e0-9c91-3165803ecbd1"
      }, {
        "reference": "Coverage/b052660d-51d5-4863-8c6b-29ef5fa4cf92"
      }, {
        "reference": "Procedure/566fe9fc-933d-4e38-9953-0530e1affcb5"
      }, {
        "reference": "Location/46665b12-58aa-4402-9db1-84079015cca7"
      }, {
        "reference": "Organization/6dbd6217-5560-4f9c-86d7-d0df43efe220"
      }, {
        "reference": "Practitioner/adc2387f-dd77-45cf-862e-1fe39f854a79"
      } ]
    },
    "request": {
      "method": "PUT",
      "url": "MeasureReport/3cb09163-0563-4311-8822-2c4c9589ad38"
    }
  } ]
}