{
  "resourceType": "Bundle",
  "id": "61168b8798086b77ef9c5ecc",
  "type": "transaction",
  "entry": [ {
    "fullUrl": "Patient/41ae0086-ac99-4a31-9546-21b054bbf7d8",
    "resource": {
      "resourceType": "Patient",
      "id": "41ae0086-ac99-4a31-9546-21b054bbf7d8",
      "meta": {
        "profile": [ "http://hl7.org/fhir/us/qicore/StructureDefinition/qicore-patient" ]
      },
      "extension": [ {
        "url": "http://hl7.org/fhir/us/core/StructureDefinition/us-core-race",
        "extension": [ {
          "url": "ombCategory",
          "valueCoding": {
            "system": "urn:oid:2.16.840.1.113883.6.238",
            "code": "2076-8",
            "display": "Native Hawaiian or Other Pacific Islander",
            "userSelected": true
          }
        }, {
          "url": "text",
          "valueString": "Native Hawaiian or Other Pacific Islander"
        } ]
      }, {
        "url": "http://hl7.org/fhir/us/core/StructureDefinition/us-core-ethnicity",
        "extension": [ {
          "url": "ombCategory",
          "valueCoding": {
            "system": "urn:oid:2.16.840.1.113883.6.238",
            "code": "2186-5",
            "display": "Not Hispanic or Latino",
            "userSelected": true
          }
        }, {
          "url": "text",
          "valueString": "Not Hispanic or Latino"
        } ]
      } ],
      "identifier": [ {
        "type": {
          "coding": [ {
            "system": "http://terminology.hl7.org/CodeSystem/v2-0203",
            "code": "MR"
          } ]
        },
        "system": "https://bonnie-fhir.healthit.gov/",
        "value": "61168b8798086b77ef9c5ecc"
      } ],
      "active": true,
      "name": [ {
        "use": "usual",
        "family": "DENEXCEPPass",
        "given": [ "CommEdemaPresentNotDonePR" ]
      } ],
      "gender": "male",
      "birthDate": "1979-01-14"
    },
    "request": {
      "method": "PUT",
      "url": "Patient/41ae0086-ac99-4a31-9546-21b054bbf7d8"
    }
  }, {
    "fullUrl": "Communication/5c9a42e9b8484623838500a0",
    "resource": {
      "resourceType": "Communication",
      "id": "5c9a42e9b8484623838500a0",
      "meta": {
        "profile": [ "http://hl7.org/fhir/us/qicore/StructureDefinition/qicore-communication" ]
      },
      "extension": [ {
        "url": "http://hl7.org/fhir/us/qicore/StructureDefinition/qicore-recorded",
        "valueDateTime": "2012-07-02T15:00:00+00:00"
      } ],
      "modifierExtension": [ {
        "url": "http://hl7.org/fhir/us/qicore/StructureDefinition/qicore-notDone",
        "valueBoolean": true
      }, {
        "url": "http://hl7.org/fhir/us/qicore/StructureDefinition/qicore-notDone",
        "valueBoolean": true
      } ],
      "status": "not-done",
      "statusReason": {
        "coding": [ {
          "system": "http://snomed.info/sct",
          "version": "http://snomed.info/sct/731000124108/version/20230301",
          "code": "183945002",
          "display": "Procedure declined for religious reason (situation)"
        } ]
      },
      "subject": {
        "reference": "Patient/41ae0086-ac99-4a31-9546-21b054bbf7d8"
      },
      "sent": "2025-07-09T08:00:00.000+00:00",
      "reasonCode": [ {
        "coding": [ {
          "system": "http://snomed.info/sct",
          "version": "http://snomed.info/sct/731000124108/version/20230301",
          "code": "312911008",
          "display": "Clinically significant macular edema (disorder)"
        } ]
      } ]
    },
    "request": {
      "method": "PUT",
      "url": "Communication/5c9a42e9b8484623838500a0"
    }
  }, {
    "fullUrl": "Condition/5c9a42e9b84846238385009c",
    "resource": {
      "resourceType": "Condition",
      "id": "5c9a42e9b84846238385009c",
      "meta": {
        "profile": [ "http://hl7.org/fhir/us/qicore/StructureDefinition/qicore-condition" ]
      },
      "clinicalStatus": {
        "coding": [ {
          "system": "http://terminology.hl7.org/CodeSystem/condition-clinical",
          "code": "active",
          "display": "active",
          "userSelected": true
        } ]
      },
      "category": [ {
        "coding": [ {
          "system": "http://terminology.hl7.org/CodeSystem/condition-category",
          "code": "problem-list-item",
          "display": "Problem List Item"
        } ]
      } ],
      "code": {
        "coding": [ {
          "system": "http://snomed.info/sct",
          "version": "http://snomed.info/sct/731000124108/version/202303",
          "code": "193349004"
        }, {
          "system": "http://hl7.org/fhir/sid/icd-10-cm",
          "version": "2023",
          "code": "E08.311"
        } ]
      },
      "subject": {
        "reference": "Patient/41ae0086-ac99-4a31-9546-21b054bbf7d8"
      },
      "onsetDateTime": "2021-07-01T15:00:00+00:00"
    },
    "request": {
      "method": "PUT",
      "url": "Condition/5c9a42e9b84846238385009c"
    }
  }, {
    "fullUrl": "Observation/5c9a42e9b84846238385009e",
    "resource": {
      "resourceType": "Observation",
      "id": "5c9a42e9b84846238385009e",
      "meta": {
        "profile": [ "http://hl7.org/fhir/us/qicore/StructureDefinition/qicore-observation" ]
      },
      "status": "final",
      "category": [ {
        "coding": [ {
          "system": "http://terminology.hl7.org/CodeSystem/observation-category",
          "code": "vital-signs",
          "display": "Vital Signs"
        } ]
      } ],
      "code": {
        "coding": [ {
          "system": "http://loinc.org",
          "version": "2.73",
          "code": "32451-7"
        } ]
      },
      "subject": {
        "reference": "Patient/41ae0086-ac99-4a31-9546-21b054bbf7d8"
      },
      "effectiveDateTime": "2025-07-09T08:00:00.000+00:00",
      "valueBoolean": true
    },
    "request": {
      "method": "PUT",
      "url": "Observation/5c9a42e9b84846238385009e"
    }
  }, {
    "fullUrl": "Encounter/5c9a42e9b84846238385009d",
    "resource": {
      "resourceType": "Encounter",
      "id": "5c9a42e9b84846238385009d",
      "meta": {
        "profile": [ "http://hl7.org/fhir/us/qicore/StructureDefinition/qicore-encounter" ]
      },
      "status": "finished",
      "class": {
        "system": "http://terminology.hl7.org/CodeSystem/v3-ActCode",
        "code": "AMB"
      },
      "type": [ {
        "coding": [ {
          "system": "http://www.ama-assn.org/go/cpt",
          "version": "2023",
          "code": "99205"
        } ]
      } ],
      "subject": {
        "reference": "Patient/41ae0086-ac99-4a31-9546-21b054bbf7d8"
      },
      "period": {
        "start": "2025-07-02T15:00:00.000+00:00",
        "end": "2025-08-02T16:00:00.000+00:00"
      }
    },
    "request": {
      "method": "PUT",
      "url": "Encounter/5c9a42e9b84846238385009d"
    }
  }, {
    "fullUrl": "Communication/C-64589200014",
    "resource": {
      "resourceType": "Communication",
      "id": "C-64589200014",
      "meta": {
        "profile": [ "http://hl7.org/fhir/us/qicore/StructureDefinition/qicore-communicationnotdone" ]
      },
      "extension": [ {
        "url": "http://hl7.org/fhir/us/qicore/StructureDefinition/qicore-recorded",
        "valueDateTime": "2025-07-09T08:00:00.000+00:00"
      } ],
      "status": "not-done",
      "statusReason": {
        "coding": [ {
          "system": "http://snomed.info/sct",
          "version": "http://snomed.info/sct/731000124108/version/20230301",
          "code": "183945002",
          "display": "Procedure declined for religious reason (situation)"
        } ]
      },
      "category": [ {
        "coding": [ {
          "system": "http://snomed.info/sct",
          "code": "428341000124108",
          "display": "Macular edema absent (situation)",
          "userSelected": true
        } ]
      } ],
      "sent": "2025-07-09T08:00:00.000+00:00",
      "reasonCode": [ {
        "coding": [ {
          "system": "http://snomed.info/sct",
          "version": "http://snomed.info/sct/731000124108/version/202303",
          "code": "428341000124108",
          "display": "Macular edema absent (situation)"
        } ]
      } ]
    },
    "request": {
      "method": "PUT",
      "url": "Communication/C-64589200014"
    }
  }, {
    "fullUrl": "MeasureReport/627143fb-250f-4b5b-a0ed-af6089baf685",
    "resource": {
      "resourceType": "MeasureReport",
      "id": "627143fb-250f-4b5b-a0ed-af6089baf685",
      "meta": {
        "profile": [ "http://hl7.org/fhir/us/cqfmeasures/StructureDefinition/test-case-cqfm" ]
      },
      "contained": [ {
        "resourceType": "Parameters",
        "id": "34db51df-8557-4b15-8d1f-1f55dbf122a8-parameters",
        "parameter": [ {
          "name": "subject",
          "valueString": "41ae0086-ac99-4a31-9546-21b054bbf7d8"
        } ]
      } ],
      "extension": [ {
        "url": "http://hl7.org/fhir/us/cqfmeasures/StructureDefinition/cqfm-inputParameters",
        "valueReference": {
          "reference": "#34db51df-8557-4b15-8d1f-1f55dbf122a8-parameters"
        }
      }, {
        "url": "http://hl7.org/fhir/us/cqfmeasures/StructureDefinition/cqfm-testCaseDescription",
        "valueMarkdown": "Communication of Edema Present not Done for Patient Reasons meeting Denominator Exception"
      } ],
      "modifierExtension": [ {
        "url": "http://hl7.org/fhir/us/cqfmeasures/StructureDefinition/cqfm-isTestCase",
        "valueBoolean": true
      } ],
      "status": "complete",
      "type": "individual",
      "measure": "Measure/DRCommunicationWithPhysicianManagingDiabetesFHIR",
      "period": {
        "start": "2025-01-01",
        "end": "2025-12-31"
      },
      "group": [ {
        "population": [ {
          "code": {
            "coding": [ {
              "system": "http://terminology.hl7.org/CodeSystem/measure-population",
              "code": "initial-population",
              "display": "Initial Population"
            } ]
          },
          "count": 1
        }, {
          "code": {
            "coding": [ {
              "system": "http://terminology.hl7.org/CodeSystem/measure-population",
              "code": "denominator",
              "display": "Denominator"
            } ]
          },
          "count": 1
        }, {
          "code": {
            "coding": [ {
              "system": "http://terminology.hl7.org/CodeSystem/measure-population",
              "code": "numerator",
              "display": "Numerator"
            } ]
          },
          "count": 0
        }, {
          "code": {
            "coding": [ {
              "system": "http://terminology.hl7.org/CodeSystem/measure-population",
              "code": "denominator-exception",
              "display": "Denominator Exception"
            } ]
          },
          "count": 1
        } ]
      } ],
      "evaluatedResource": [ {
        "reference": "Patient/41ae0086-ac99-4a31-9546-21b054bbf7d8"
      }, {
        "reference": "Communication/5c9a42e9b8484623838500a0"
      }, {
        "reference": "Condition/5c9a42e9b84846238385009c"
      }, {
        "reference": "Observation/5c9a42e9b84846238385009e"
      }, {
        "reference": "Encounter/5c9a42e9b84846238385009d"
      }, {
        "reference": "Communication/C-64589200014"
      } ]
    },
    "request": {
      "method": "PUT",
      "url": "MeasureReport/627143fb-250f-4b5b-a0ed-af6089baf685"
    }
  } ]
}
