{"resourceType":"Bundle","id":"tests-fa93e3b9-fe40-4a1c-be89-536969a54f2c-bundle","type":"transaction","entry":[{"fullUrl":"https://madie.cms.gov/Patient/fa93e3b9-fe40-4a1c-be89-536969a54f2c","resource":{"resourceType":"Patient","id":"fa93e3b9-fe40-4a1c-be89-536969a54f2c","meta":{"profile":["http://hl7.org/fhir/us/qicore/StructureDefinition/qicore-patient"]},"extension":[{"url":"http://hl7.org/fhir/us/core/StructureDefinition/us-core-race","extension":[{"url":"ombCategory","valueCoding":{"system":"urn:oid:2.16.840.1.113883.6.238","code":"2106-3","display":"White","userSelected":true}},{"url":"text","valueString":"White"}]},{"url":"http://hl7.org/fhir/us/core/StructureDefinition/us-core-ethnicity","extension":[{"url":"ombCategory","valueCoding":{"system":"urn:oid:2.16.840.1.113883.6.238","code":"2135-2","display":"Hispanic or Latino","userSelected":true}},{"url":"text","valueString":"Hispanic or Latino"}]}],"identifier":[{"type":{"coding":[{"system":"http://terminology.hl7.org/CodeSystem/v2-0203","code":"MR"}]},"system":"https://myGoodHealtchare.com/","value":"61168b8798086b77ef9c5ec1"}],"active":true,"name":[{"use":"usual","family":"IPFail","given":["DiabeticRetinopathyDx1MinB4EncStart"]}],"gender":"female","birthDate":"1984-01-10"},"request":{"method":"PUT","url":"Patient/fa93e3b9-fe40-4a1c-be89-536969a54f2c"}},{"fullUrl":"https://madie.cms.gov/Condition/5c9a42eab8484623838500c0","resource":{"resourceType":"Condition","id":"781110ed-6e74-4fdb-a5cf-e04ec74df7e6","meta":{"profile":["http://hl7.org/fhir/us/qicore/StructureDefinition/qicore-condition"]},"clinicalStatus":{"coding":[{"system":"http://terminology.hl7.org/CodeSystem/condition-clinical","code":"inactive","display":"inactivective","userSelected":true}]},"category":[{"coding":[{"system":"http://terminology.hl7.org/CodeSystem/condition-category","code":"problem-list-item","display":"Problem List Item"}]}],"code":{"coding":[{"system":"http://snomed.info/sct","version":"http://snomed.info/sct/731000124108/version/20230301","code":"232020009","display":"Disorder of macula due to diabetes mellitus (disorder)"}]},"subject":{"reference":"Patient/fa93e3b9-fe40-4a1c-be89-536969a54f2c"},"onsetPeriod":{"start":"2023-12-01T08:00:00+00:00","end":"2025-09-11T09:59:00+00:00"}},"request":{"method":"PUT","url":"Condition/781110ed-6e74-4fdb-a5cf-e04ec74df7e6"}},{"fullUrl":"https://madie.cms.gov/Encounter/5c9a42eab8484623839000a","resource":{"resourceType":"Encounter","id":"485f8879-667a-443e-a5dc-da3feab015ed","meta":{"profile":["http://hl7.org/fhir/us/qicore/StructureDefinition/qicore-encounter"]},"status":"finished","class":{"system":"http://terminology.hl7.org/CodeSystem/v3-ActCode","code":"AMB"},"type":[{"coding":[{"system":"http://www.ama-assn.org/go/cpt","version":"2023","code":"99205"}]}],"subject":{"reference":"Patient/fa93e3b9-fe40-4a1c-be89-536969a54f2c"},"period":{"start":"2025-09-11T10:00:00+00:00","end":"2025-09-11T11:00:00+00:00"}},"request":{"method":"PUT","url":"Encounter/485f8879-667a-443e-a5dc-da3feab015ed"}},{"fullUrl":"https://madie.cms.gov/Coverage/900090","resource":{"resourceType":"Coverage","id":"b93925e0-a936-4738-8608-a2db236afcc5","meta":{"profile":["http://hl7.org/fhir/us/qicore/StructureDefinition/qicore-coverage"]},"status":"active","beneficiary":{"reference":"Patient/fa93e3b9-fe40-4a1c-be89-536969a54f2c"},"payor":[{"reference":"Organization/4d7da20f-8773-4347-8f6b-80adcdcee1f4"}]},"request":{"method":"PUT","url":"Coverage/b93925e0-a936-4738-8608-a2db236afcc5"}},{"fullUrl":"https://madie.cms.gov/Organization/123456","resource":{"resourceType":"Organization","id":"4d7da20f-8773-4347-8f6b-80adcdcee1f4","meta":{"profile":["http://hl7.org/fhir/us/qicore/StructureDefinition/qicore-organization"]},"identifier":[{"use":"temp","system":"urn:oid:2.16.840.1.113883.4.4","value":"21-3259825"}],"active":true,"type":[{"coding":[{"system":"http://terminology.hl7.org/CodeSystem/organization-type","code":"pay","display":"Payer"}]}],"name":"Blue Cross Blue Shield of Texas","telecom":[{"system":"phone","value":"(+1) 972-766-6900"}],"address":[{"use":"billing","type":"postal","line":["P.O. Box 660044"],"city":"Dallas","state":"TX","postalCode":"75266-0044","country":"USA"}]},"request":{"method":"PUT","url":"Organization/4d7da20f-8773-4347-8f6b-80adcdcee1f4"}},{"fullUrl":"https://madie.cms.gov/MeasureReport/45ac04e1-b029-491d-bcbf-6dbaad47ac94","resource":{"resourceType":"MeasureReport","id":"45ac04e1-b029-491d-bcbf-6dbaad47ac94","meta":{"profile":["http://hl7.org/fhir/us/cqfmeasures/StructureDefinition/test-case-cqfm"]},"contained":[{"resourceType":"Parameters","id":"982dc7e8-449c-4bc2-9be3-3a053a04c16c-parameters","parameter":[{"name":"subject","valueString":"fa93e3b9-fe40-4a1c-be89-536969a54f2c"}]}],"extension":[{"url":"http://hl7.org/fhir/us/cqfmeasures/StructureDefinition/cqfm-inputParameters","valueReference":{"reference":"#982dc7e8-449c-4bc2-9be3-3a053a04c16c-parameters"}},{"url":"http://hl7.org/fhir/us/cqfmeasures/StructureDefinition/cqfm-testCaseDescription","valueMarkdown":"Passes Initial Population criteria with Qualifying Encounter such that  Diabetic Retinopathy Diagnosis onset Period end is 1 minute before Encounter Start"}],"modifierExtension":[{"url":"http://hl7.org/fhir/us/cqfmeasures/StructureDefinition/cqfm-isTestCase","valueBoolean":true}],"status":"complete","type":"individual","measure":"https://madie.cms.gov/Measure/DRCommunicationWithPhysicianManagingDiabetesFHIR","period":{"start":"2025-01-01","end":"2025-12-31"},"group":[{"population":[{"code":{"coding":[{"system":"http://terminology.hl7.org/CodeSystem/measure-population","code":"initial-population","display":"Initial Population"}]},"count":0},{"code":{"coding":[{"system":"http://terminology.hl7.org/CodeSystem/measure-population","code":"denominator","display":"Denominator"}]},"count":0},{"code":{"coding":[{"system":"http://terminology.hl7.org/CodeSystem/measure-population","code":"numerator","display":"Numerator"}]},"count":0},{"code":{"coding":[{"system":"http://terminology.hl7.org/CodeSystem/measure-population","code":"denominator-exception","display":"Denominator Exception"}]},"count":0}]}]},"request":{"method":"PUT","url":"MeasureReport/45ac04e1-b029-491d-bcbf-6dbaad47ac94"}}]}