{"resourceType":"Bundle","id":"tests-9a9e1543-79a1-47a0-a3dd-5ac008bbea65-bundle","type":"transaction","entry":[{"fullUrl":"https://madie.cms.gov/Patient/9a9e1543-79a1-47a0-a3dd-5ac008bbea65","resource":{"resourceType":"Patient","id":"9a9e1543-79a1-47a0-a3dd-5ac008bbea65","meta":{"profile":["http://hl7.org/fhir/us/qicore/StructureDefinition/qicore-patient"]},"extension":[{"url":"http://hl7.org/fhir/us/core/StructureDefinition/us-core-race","extension":[{"url":"ombCategory","valueCoding":{"system":"urn:oid:2.16.840.1.113883.6.238","code":"2028-9","display":"Asian","userSelected":true}},{"url":"text","valueString":"Asian"}]},{"url":"http://hl7.org/fhir/us/core/StructureDefinition/us-core-ethnicity","extension":[{"url":"ombCategory","valueCoding":{"system":"urn:oid:2.16.840.1.113883.6.238","code":"2135-2","display":"Hispanic or Latino","userSelected":true}},{"url":"text","valueString":"Hispanic or Latino"}]}],"identifier":[{"type":{"coding":[{"system":"http://terminology.hl7.org/CodeSystem/v2-0203","code":"MR"}]},"system":"https://bonnie-fhir.healthit.gov/","value":"63f628d8d289cd498bb84238"}],"name":[{"family":"DENOMFail","given":["MacularExambeforeEncounter"]}],"gender":"male","birthDate":"1995-11-01"},"request":{"method":"PUT","url":"Patient/9a9e1543-79a1-47a0-a3dd-5ac008bbea65"}},{"fullUrl":"https://madie.cms.gov/Encounter/163000320","resource":{"resourceType":"Encounter","id":"2612f561-a677-4926-99f6-5367fbc03ea1","meta":{"profile":["http://hl7.org/fhir/us/qicore/StructureDefinition/qicore-encounter"]},"status":"finished","class":{"system":"http://terminology.hl7.org/CodeSystem/v3-ActCode","code":"AMB","display":"ambulatory","userSelected":true},"type":[{"coding":[{"system":"http://snomed.info/sct","version":"2021-09","code":"18170008","display":"Subsequent nursing facility visit (procedure)","userSelected":true}]}],"subject":{"reference":"Patient/9a9e1543-79a1-47a0-a3dd-5ac008bbea65"},"period":{"start":"2025-01-01T08:00:00.000+00:00","end":"2025-01-01T08:15:00.000+00:00"}},"request":{"method":"PUT","url":"Encounter/2612f561-a677-4926-99f6-5367fbc03ea1"}},{"fullUrl":"https://madie.cms.gov/Condition/1230000197","resource":{"resourceType":"Condition","id":"27ccc9b2-c3d9-41ac-9253-29f340dd35fd","meta":{"profile":["http://hl7.org/fhir/us/qicore/StructureDefinition/qicore-condition"]},"clinicalStatus":{"coding":[{"system":"http://terminology.hl7.org/CodeSystem/condition-clinical","code":"active","display":"active","userSelected":true}]},"category":[{"coding":[{"system":"http://terminology.hl7.org/CodeSystem/condition-ver-status","code":"confirmed","display":"confirmed","userSelected":true}]}],"code":{"coding":[{"system":"http://snomed.info/sct","version":"http://snomed.info/sct/731000124108/version/202303","code":"193349004","display":"Preproliferative retinopathy due to diabetes mellitus (disorder)","userSelected":true}]},"subject":{"reference":"Patient/9a9e1543-79a1-47a0-a3dd-5ac008bbea65"},"onsetDateTime":"2023-12-31T08:00:00.000+00:00"},"request":{"method":"PUT","url":"Condition/27ccc9b2-c3d9-41ac-9253-29f340dd35fd"}},{"fullUrl":"https://madie.cms.gov/Observation/1230500029","resource":{"resourceType":"Observation","id":"7088022d-b51f-4c3f-bf09-9e26eac243f6","meta":{"profile":["http://hl7.org/fhir/us/qicore/StructureDefinition/qicore-observation"]},"status":"final","category":[{"coding":[{"system":"http://terminology.hl7.org/CodeSystem/condition-ver-status","code":"confirmed","display":"confirmed","userSelected":true}]}],"code":{"coding":[{"system":"http://loinc.org","version":"2.73","code":"32451-7","display":"Physical findings of Macula","userSelected":true}]},"subject":{"reference":"Patient/9a9e1543-79a1-47a0-a3dd-5ac008bbea65"},"effectiveDateTime":"2023-03-09T08:02:00.000+00:00","issued":"2023-03-09T08:05:00.000+00:00","valueBoolean":true},"request":{"method":"PUT","url":"Observation/7088022d-b51f-4c3f-bf09-9e26eac243f6"}},{"fullUrl":"https://madie.cms.gov/Coverage/1","resource":{"resourceType":"Coverage","id":"fdc43202-0a91-4f25-b400-4c931dbc71aa","meta":{"profile":["http://hl7.org/fhir/us/qicore/StructureDefinition/qicore-coverage"]},"status":"active","beneficiary":{"reference":"Patient/9a9e1543-79a1-47a0-a3dd-5ac008bbea65"},"payor":[{"reference":"Organization/890316dc-a4ad-43b4-ba6f-9fb9e6eca282"}]},"request":{"method":"PUT","url":"Coverage/fdc43202-0a91-4f25-b400-4c931dbc71aa"}},{"fullUrl":"https://madie.cms.gov/Organization/123456","resource":{"resourceType":"Organization","id":"890316dc-a4ad-43b4-ba6f-9fb9e6eca282","meta":{"profile":["http://hl7.org/fhir/us/qicore/StructureDefinition/qicore-organization"]},"identifier":[{"use":"temp","system":"urn:oid:2.16.840.1.113883.4.4","value":"21-3259825"}],"active":true,"type":[{"coding":[{"system":"http://terminology.hl7.org/CodeSystem/organization-type","code":"pay","display":"Payer"}]}],"name":"Blue Cross Blue Shield of Texas","telecom":[{"system":"phone","value":"(+1) 972-766-6900"}],"address":[{"use":"billing","type":"postal","line":["P.O. Box 660044"],"city":"Dallas","state":"TX","postalCode":"75266-0044","country":"USA"}]},"request":{"method":"PUT","url":"Organization/890316dc-a4ad-43b4-ba6f-9fb9e6eca282"}},{"fullUrl":"https://madie.cms.gov/Practitioner/practitioner-123456","resource":{"resourceType":"Practitioner","id":"3131410a-9a0b-4712-9e35-a51b0fa5c504","meta":{"profile":["http://hl7.org/fhir/us/qicore/StructureDefinition/qicore-practitioner"]},"identifier":[{"system":"http://hl7.org/fhir/sid/us-npi","value":"123456"}],"name":[{"family":"Goodboy","prefix":["Dr"]}]},"request":{"method":"PUT","url":"Practitioner/3131410a-9a0b-4712-9e35-a51b0fa5c504"}},{"fullUrl":"https://madie.cms.gov/MeasureReport/31bcbc49-770b-405e-a4a7-1e464812a99c","resource":{"resourceType":"MeasureReport","id":"31bcbc49-770b-405e-a4a7-1e464812a99c","meta":{"profile":["http://hl7.org/fhir/us/cqfmeasures/StructureDefinition/test-case-cqfm"]},"contained":[{"resourceType":"Parameters","id":"ae7fbb93-2751-4dc2-8686-4f693601ef93-parameters","parameter":[{"name":"subject","valueString":"9a9e1543-79a1-47a0-a3dd-5ac008bbea65"}]}],"extension":[{"url":"http://hl7.org/fhir/us/cqfmeasures/StructureDefinition/cqfm-inputParameters","valueReference":{"reference":"#ae7fbb93-2751-4dc2-8686-4f693601ef93-parameters"}},{"url":"http://hl7.org/fhir/us/cqfmeasures/StructureDefinition/cqfm-testCaseDescription","valueMarkdown":"Patient >=18 years with qualifying encounter and macular exam which occurs outside of the Diabetic Retinopathy Encounter"}],"modifierExtension":[{"url":"http://hl7.org/fhir/us/cqfmeasures/StructureDefinition/cqfm-isTestCase","valueBoolean":true}],"status":"complete","type":"individual","measure":"https://madie.cms.gov/Measure/DRCommunicationWithPhysicianManagingDiabetesFHIR","period":{"start":"2025-01-01","end":"2025-12-31"},"group":[{"population":[{"code":{"coding":[{"system":"http://terminology.hl7.org/CodeSystem/measure-population","code":"initial-population","display":"Initial Population"}]},"count":1},{"code":{"coding":[{"system":"http://terminology.hl7.org/CodeSystem/measure-population","code":"denominator","display":"Denominator"}]},"count":0},{"code":{"coding":[{"system":"http://terminology.hl7.org/CodeSystem/measure-population","code":"numerator","display":"Numerator"}]},"count":0},{"code":{"coding":[{"system":"http://terminology.hl7.org/CodeSystem/measure-population","code":"denominator-exception","display":"Denominator Exception"}]},"count":0}]}]},"request":{"method":"PUT","url":"MeasureReport/31bcbc49-770b-405e-a4a7-1e464812a99c"}}]}