{"resourceType":"Bundle","id":"tests-eb2a3c55-9084-4fee-bb24-a645a7d74835-bundle","type":"transaction","entry":[{"fullUrl":"https://madie.cms.gov/Patient/eb2a3c55-9084-4fee-bb24-a645a7d74835","resource":{"resourceType":"Patient","id":"eb2a3c55-9084-4fee-bb24-a645a7d74835","meta":{"profile":["http://hl7.org/fhir/us/qicore/StructureDefinition/qicore-patient"]},"extension":[{"url":"http://hl7.org/fhir/us/core/StructureDefinition/us-core-race","extension":[{"url":"ombCategory","valueCoding":{"system":"urn:oid:2.16.840.1.113883.6.238","code":"1002-5","display":"American Indian or Alaska Native","userSelected":true}},{"url":"text","valueString":"American Indian or Alaska Native"}]},{"url":"http://hl7.org/fhir/us/core/StructureDefinition/us-core-ethnicity","extension":[{"url":"ombCategory","valueCoding":{"system":"urn:oid:2.16.840.1.113883.6.238","code":"2135-2","display":"Hispanic or Latino","userSelected":true}},{"url":"text","valueString":"Hispanic or Latino"}]}],"identifier":[{"type":{"coding":[{"system":"http://terminology.hl7.org/CodeSystem/v2-0203","code":"MR"}]},"system":"https://bonnie-fhir.healthit.gov/","value":"6298e7375c5f0f80c3806875"}],"name":[{"family":"IPPass","given":["PtwithPrCaDxFirstDayofMP"]}],"gender":"male","birthDate":"1966-01-19"},"request":{"method":"PUT","url":"Patient/eb2a3c55-9084-4fee-bb24-a645a7d74835"}},{"fullUrl":"https://madie.cms.gov/Condition/prostate-cancer-6877","resource":{"resourceType":"Condition","id":"4082cb79-ace7-480e-86be-b686f209f961","meta":{"profile":["http://hl7.org/fhir/us/qicore/StructureDefinition/qicore-condition"]},"clinicalStatus":{"coding":[{"system":"http://terminology.hl7.org/CodeSystem/condition-clinical","code":"active","display":"active","userSelected":true}]},"category":[{"coding":[{"system":"http://hl7.org/fhir/us/core/CodeSystem/condition-category","code":"health-concern","display":"Health Concern"},{"system":"http://snomed.info/sct","code":"439401001","display":"Diagnosis"}]}],"code":{"coding":[{"system":"http://snomed.info/sct","code":"396198006","userSelected":true}]},"subject":{"reference":"Patient/eb2a3c55-9084-4fee-bb24-a645a7d74835"},"onsetPeriod":{"start":"2025-01-01T08:00:00.000+00:00"},"recordedDate":"2025-06-07T08:00:00.000+00:00"},"request":{"method":"PUT","url":"Condition/4082cb79-ace7-480e-86be-b686f209f961"}},{"fullUrl":"https://madie.cms.gov/Coverage/1","resource":{"resourceType":"Coverage","id":"1cdb97f6-f252-411a-99e5-12e2668c72a0","meta":{"profile":["http://hl7.org/fhir/us/qicore/StructureDefinition/qicore-coverage"]},"status":"active","beneficiary":{"reference":"Patient/eb2a3c55-9084-4fee-bb24-a645a7d74835"},"payor":[{"reference":"Organization/84b56847-ad40-4bf6-b612-9e42ad2a84e5"}]},"request":{"method":"PUT","url":"Coverage/1cdb97f6-f252-411a-99e5-12e2668c72a0"}},{"fullUrl":"https://madie.cms.gov/Organization/123456","resource":{"resourceType":"Organization","id":"84b56847-ad40-4bf6-b612-9e42ad2a84e5","meta":{"profile":["http://hl7.org/fhir/us/qicore/StructureDefinition/qicore-organization"]},"identifier":[{"use":"temp","system":"urn:oid:2.16.840.1.113883.4.4","value":"21-3259825"}],"active":true,"type":[{"coding":[{"system":"http://terminology.hl7.org/CodeSystem/organization-type","code":"pay","display":"Payer"}]}],"name":"Blue Cross Blue Shield of Texas","telecom":[{"system":"phone","value":"(+1) 972-766-6900"}],"address":[{"use":"billing","type":"postal","line":["P.O. Box 660044"],"city":"Dallas","state":"TX","postalCode":"75266-0044","country":"USA"}]},"request":{"method":"PUT","url":"Organization/84b56847-ad40-4bf6-b612-9e42ad2a84e5"}},{"fullUrl":"https://madie.cms.gov/Practitioner/practitioner-123456","resource":{"resourceType":"Practitioner","id":"734d120c-dffe-4b7c-90c2-c138a2f729f3","meta":{"profile":["http://hl7.org/fhir/us/qicore/StructureDefinition/qicore-practitioner"]},"identifier":[{"system":"http://hl7.org/fhir/sid/us-npi","value":"123456"}],"name":[{"family":"Evil","prefix":["Dr"]}]},"request":{"method":"PUT","url":"Practitioner/734d120c-dffe-4b7c-90c2-c138a2f729f3"}},{"fullUrl":"https://madie.cms.gov/MeasureReport/7f80a277-7190-41b4-b3bc-5270f697cbf3","resource":{"resourceType":"MeasureReport","id":"7f80a277-7190-41b4-b3bc-5270f697cbf3","meta":{"profile":["http://hl7.org/fhir/us/cqfmeasures/StructureDefinition/test-case-cqfm"]},"contained":[{"resourceType":"Parameters","id":"95b59038-1e66-44c6-8044-0dc4bcbeda69-parameters","parameter":[{"name":"subject","valueString":"eb2a3c55-9084-4fee-bb24-a645a7d74835"}]}],"extension":[{"url":"http://hl7.org/fhir/us/cqfmeasures/StructureDefinition/cqfm-inputParameters","valueReference":{"reference":"#95b59038-1e66-44c6-8044-0dc4bcbeda69-parameters"}},{"url":"http://hl7.org/fhir/us/cqfmeasures/StructureDefinition/cqfm-testCaseDescription","valueMarkdown":"Patient  with diagnosis of  prostate cancer on first day of MP."}],"modifierExtension":[{"url":"http://hl7.org/fhir/us/cqfmeasures/StructureDefinition/cqfm-isTestCase","valueBoolean":true}],"status":"complete","type":"individual","measure":"https://madie.cms.gov/Measure/ProstateCaAvoidanceBoneScanOveruseFHIR","period":{"start":"2025-01-01","end":"2025-12-31"},"group":[{"population":[{"code":{"coding":[{"system":"http://terminology.hl7.org/CodeSystem/measure-population","code":"initial-population","display":"Initial Population"}]},"count":1},{"code":{"coding":[{"system":"http://terminology.hl7.org/CodeSystem/measure-population","code":"denominator","display":"Denominator"}]},"count":0},{"code":{"coding":[{"system":"http://terminology.hl7.org/CodeSystem/measure-population","code":"numerator","display":"Numerator"}]},"count":0},{"code":{"coding":[{"system":"http://terminology.hl7.org/CodeSystem/measure-population","code":"denominator-exception","display":"Denominator Exception"}]},"count":0}]}]},"request":{"method":"PUT","url":"MeasureReport/7f80a277-7190-41b4-b3bc-5270f697cbf3"}}]}