{"resourceType":"Bundle","id":"tests-1545691e-ae95-426e-a14d-b61602971a95-bundle","type":"transaction","entry":[{"fullUrl":"https://madie.cms.gov/Patient/1545691e-ae95-426e-a14d-b61602971a95","resource":{"resourceType":"Patient","id":"1545691e-ae95-426e-a14d-b61602971a95","meta":{"profile":["http://hl7.org/fhir/us/qicore/StructureDefinition/qicore-patient"]},"extension":[{"url":"http://hl7.org/fhir/us/core/StructureDefinition/us-core-race","extension":[{"url":"ombCategory","valueCoding":{"system":"urn:oid:2.16.840.1.113883.6.238","code":"1002-5","display":"American Indian or Alaska Native","userSelected":true}},{"url":"text","valueString":"American Indian or Alaska Native"}]},{"url":"http://hl7.org/fhir/us/core/StructureDefinition/us-core-ethnicity","extension":[{"url":"ombCategory","valueCoding":{"system":"urn:oid:2.16.840.1.113883.6.238","code":"2135-2","display":"Hispanic or Latino","userSelected":true}},{"url":"text","valueString":"Hispanic or Latino"}]}],"identifier":[{"type":{"coding":[{"system":"http://terminology.hl7.org/CodeSystem/v2-0203","code":"MR"}]},"system":"https://bonnie-fhir.healthit.gov/","value":"6298e96c5c5f0f80c3806878"}],"name":[{"family":"DENOMPass","given":["LastPSA8BeforeMostRecentStaging"]}],"gender":"male","birthDate":"1979-12-31"},"request":{"method":"PUT","url":"Patient/1545691e-ae95-426e-a14d-b61602971a95"}},{"fullUrl":"https://madie.cms.gov/Condition/prostate-cancer-a8d8","resource":{"resourceType":"Condition","id":"aef50301-2f4a-40fc-82c3-cdf2a423843d","meta":{"profile":["http://hl7.org/fhir/us/qicore/StructureDefinition/qicore-condition"]},"clinicalStatus":{"coding":[{"system":"http://terminology.hl7.org/CodeSystem/condition-clinical","code":"active","display":"active","userSelected":true}]},"category":[{"coding":[{"system":"http://terminology.hl7.org/CodeSystem/condition-category","code":"problem-list-item","display":"Problem List Item"},{"system":"http://snomed.info/sct","code":"439401001","display":"Diagnosis"}]}],"code":{"coding":[{"system":"http://snomed.info/sct","version":"2022-03","code":"254900004","display":"Carcinoma of prostate (disorder)","userSelected":true}]},"subject":{"reference":"Patient/1545691e-ae95-426e-a14d-b61602971a95"},"onsetPeriod":{"start":"2007-06-14T08:00:00.000+00:00"}},"request":{"method":"PUT","url":"Condition/aef50301-2f4a-40fc-82c3-cdf2a423843d"}},{"fullUrl":"https://madie.cms.gov/Procedure/prostate-cancer-treatment-a8d9","resource":{"resourceType":"Procedure","id":"8b67dcaa-1832-4176-8908-edd17c669f84","meta":{"profile":["http://hl7.org/fhir/us/qicore/StructureDefinition/qicore-procedure"]},"extension":[{"url":"http://hl7.org/fhir/us/qicore/StructureDefinition/qicore-recorded","valueDateTime":"2025-02-01T09:00:00.000+00:00"}],"status":"completed","code":{"coding":[{"system":"http://snomed.info/sct","version":"2022-03","code":"10492003","display":"Radionuclide therapy for glandular suppression (procedure)","userSelected":true}]},"subject":{"reference":"Patient/1545691e-ae95-426e-a14d-b61602971a95"},"performedDateTime":"2025-12-28T08:00:00.000+00:00"},"request":{"method":"PUT","url":"Procedure/8b67dcaa-1832-4176-8908-edd17c669f84"}},{"fullUrl":"https://madie.cms.gov/Observation/prostate-specific-antigen-test-a8db","resource":{"resourceType":"Observation","id":"dd3dd531-7844-4a58-a021-8d13af636365","meta":{"profile":["http://hl7.org/fhir/us/qicore/StructureDefinition/qicore-observation"]},"status":"final","category":[{"coding":[{"system":"http://terminology.hl7.org/CodeSystem/observation-category","code":"procedure","display":"Procedure"}]}],"code":{"coding":[{"system":"http://loinc.org","version":"2.72","code":"2857-1","display":"Prostate specific Ag [Mass/volume] in Serum or Plasma","userSelected":true}]},"subject":{"reference":"Patient/1545691e-ae95-426e-a14d-b61602971a95"},"effectiveDateTime":"2025-04-24T08:00:00.000+00:00","valueQuantity":{"value":10.1,"system":"http://unitsofmeasure.org","code":"ng/mL"}},"request":{"method":"PUT","url":"Observation/dd3dd531-7844-4a58-a021-8d13af636365"}},{"fullUrl":"https://madie.cms.gov/Observation/prostate-specific-antigen-test-a9db","resource":{"resourceType":"Observation","id":"4a550df9-82f7-4698-836e-33af2f6a934c","meta":{"profile":["http://hl7.org/fhir/us/qicore/StructureDefinition/qicore-observation"]},"status":"final","category":[{"coding":[{"system":"http://terminology.hl7.org/CodeSystem/observation-category","code":"procedure","display":"Procedure"}]}],"code":{"coding":[{"system":"http://loinc.org","version":"2.72","code":"2857-1","display":"Prostate specific Ag [Mass/volume] in Serum or Plasma","userSelected":true}]},"subject":{"reference":"Patient/1545691e-ae95-426e-a14d-b61602971a95"},"effectiveDateTime":"2025-08-25T08:00:00.000+00:00","valueQuantity":{"value":8.0,"system":"http://unitsofmeasure.org","code":"ng/mL"}},"request":{"method":"PUT","url":"Observation/4a550df9-82f7-4698-836e-33af2f6a934c"}},{"fullUrl":"https://madie.cms.gov/Observation/gleason-score-in-specimen-qualitative-a8dc","resource":{"resourceType":"Observation","id":"c4cca854-01ab-4ac7-8f3e-64f6b6dc3fdd","meta":{"profile":["http://hl7.org/fhir/us/qicore/StructureDefinition/qicore-observation"]},"status":"final","category":[{"coding":[{"system":"http://terminology.hl7.org/CodeSystem/observation-category","code":"procedure","display":"Procedure"}]}],"code":{"coding":[{"system":"http://loinc.org","code":"35266-6","display":"Gleason score in Specimen Qualitative","userSelected":true}]},"subject":{"reference":"Patient/1545691e-ae95-426e-a14d-b61602971a95"},"effectiveDateTime":"2025-01-02T08:00:00.000+00:00","valueInteger":5},"request":{"method":"PUT","url":"Observation/c4cca854-01ab-4ac7-8f3e-64f6b6dc3fdd"}},{"fullUrl":"https://madie.cms.gov/Observation/tumor-staging-tumor-staging-a8dd","resource":{"resourceType":"Observation","id":"7569ed0f-cb36-418a-b2b0-e0e01ee0286f","meta":{"profile":["http://hl7.org/fhir/us/qicore/StructureDefinition/qicore-observation"]},"status":"final","category":[{"coding":[{"system":"http://terminology.hl7.org/CodeSystem/observation-category","code":"procedure","display":"Procedure"}]}],"code":{"coding":[{"system":"http://snomed.info/sct","code":"254292007","display":"Tumor staging (tumor staging)","userSelected":true}]},"subject":{"reference":"Patient/1545691e-ae95-426e-a14d-b61602971a95"},"effectiveDateTime":"2025-04-26T08:00:00.000+00:00","valueCodeableConcept":{"coding":[{"system":"http://snomed.info/sct","code":"433361000124104","display":"Neoplasm of prostate primary tumor staging category T2a: Involves one-half of one lobe or less (finding)","userSelected":true}]}},"request":{"method":"PUT","url":"Observation/7569ed0f-cb36-418a-b2b0-e0e01ee0286f"}},{"fullUrl":"https://madie.cms.gov/Observation/tumor-staging-tumor-staging-a9dd","resource":{"resourceType":"Observation","id":"c7a3a39d-cda6-410a-9390-d6669c8d96a5","meta":{"profile":["http://hl7.org/fhir/us/qicore/StructureDefinition/qicore-observation"]},"status":"amended","category":[{"coding":[{"system":"http://terminology.hl7.org/CodeSystem/observation-category","code":"procedure","display":"Procedure"}]}],"code":{"coding":[{"system":"http://snomed.info/sct","code":"254292007","display":"Tumor staging (tumor staging)","userSelected":true}]},"subject":{"reference":"Patient/1545691e-ae95-426e-a14d-b61602971a95"},"effectiveDateTime":"2025-06-26T08:00:00.000+00:00","valueCodeableConcept":{"coding":[{"system":"http://snomed.info/sct","code":"433361000124104","display":"T1a: Prostate tumor incidental histologic finding in 5 percent or less of tissue resected (finding)","userSelected":true}]}},"request":{"method":"PUT","url":"Observation/c7a3a39d-cda6-410a-9390-d6669c8d96a5"}},{"fullUrl":"https://madie.cms.gov/Observation/tumor-staging-tumor-staging-a10dd","resource":{"resourceType":"Observation","id":"cd0b8e5f-d932-4133-b717-2828d730d72c","meta":{"profile":["http://hl7.org/fhir/us/qicore/StructureDefinition/qicore-observation"]},"status":"corrected","category":[{"coding":[{"system":"http://terminology.hl7.org/CodeSystem/observation-category","code":"procedure","display":"Procedure"}]}],"code":{"coding":[{"system":"http://snomed.info/sct","code":"254292007","display":"Tumor staging (tumor staging)","userSelected":true}]},"subject":{"reference":"Patient/1545691e-ae95-426e-a14d-b61602971a95"},"effectiveDateTime":"2025-08-26T08:00:00.000+00:00","valueCodeableConcept":{"coding":[{"system":"http://snomed.info/sct","code":"433361000124104","display":"T1b: Prostate tumor incidental histologic finding in greater than 5 percent of tissue resected (finding)","userSelected":true}]}},"request":{"method":"PUT","url":"Observation/cd0b8e5f-d932-4133-b717-2828d730d72c"}},{"fullUrl":"https://madie.cms.gov/Observation/bone-scan-5337","resource":{"resourceType":"Observation","id":"a1bdd64b-a924-49a4-a916-448db2844587","meta":{"profile":["http://hl7.org/fhir/us/qicore/StructureDefinition/qicore-observation"]},"status":"final","category":[{"coding":[{"system":"http://terminology.hl7.org/CodeSystem/observation-category","code":"procedure","display":"Procedure"}]}],"code":{"coding":[{"system":"http://loinc.org","version":"2.72","code":"25031-6","display":"NM Bone Views","userSelected":true}]},"subject":{"reference":"Patient/1545691e-ae95-426e-a14d-b61602971a95"},"effectiveDateTime":"2025-08-17T08:00:00.000+00:00","issued":"2025-08-17T08:00:00.000+00:00"},"request":{"method":"PUT","url":"Observation/a1bdd64b-a924-49a4-a916-448db2844587"}},{"fullUrl":"https://madie.cms.gov/Coverage/1","resource":{"resourceType":"Coverage","id":"bb46ef8c-a06c-48f9-a576-c0c0ee98b61c","meta":{"profile":["http://hl7.org/fhir/us/qicore/StructureDefinition/qicore-coverage"]},"status":"active","beneficiary":{"reference":"Patient/1545691e-ae95-426e-a14d-b61602971a95"},"payor":[{"reference":"Organization/41c75c00-82d9-4ab2-98f6-cfaf7fc3381d"}]},"request":{"method":"PUT","url":"Coverage/bb46ef8c-a06c-48f9-a576-c0c0ee98b61c"}},{"fullUrl":"https://madie.cms.gov/Organization/123456","resource":{"resourceType":"Organization","id":"41c75c00-82d9-4ab2-98f6-cfaf7fc3381d","meta":{"profile":["http://hl7.org/fhir/us/qicore/StructureDefinition/qicore-organization"]},"identifier":[{"use":"temp","system":"urn:oid:2.16.840.1.113883.4.4","value":"21-3259825"}],"active":true,"type":[{"coding":[{"system":"http://terminology.hl7.org/CodeSystem/organization-type","code":"pay","display":"Payer"}]}],"name":"Blue Cross Blue Shield of Texas","telecom":[{"system":"phone","value":"(+1) 972-766-6900"}],"address":[{"use":"billing","type":"postal","line":["P.O. Box 660044"],"city":"Dallas","state":"TX","postalCode":"75266-0044","country":"USA"}]},"request":{"method":"PUT","url":"Organization/41c75c00-82d9-4ab2-98f6-cfaf7fc3381d"}},{"fullUrl":"https://madie.cms.gov/Practitioner/practitioner-123456","resource":{"resourceType":"Practitioner","id":"64d774e4-ce90-434c-9b26-40412b6faf7d","meta":{"profile":["http://hl7.org/fhir/us/qicore/StructureDefinition/qicore-practitioner"]},"identifier":[{"system":"http://hl7.org/fhir/sid/us-npi","value":"123456"}],"name":[{"family":"Evil","prefix":["Dr"]}]},"request":{"method":"PUT","url":"Practitioner/64d774e4-ce90-434c-9b26-40412b6faf7d"}},{"fullUrl":"https://madie.cms.gov/MeasureReport/cd737707-6ecd-45b2-9bed-a1ce174d1c63","resource":{"resourceType":"MeasureReport","id":"cd737707-6ecd-45b2-9bed-a1ce174d1c63","meta":{"profile":["http://hl7.org/fhir/us/cqfmeasures/StructureDefinition/test-case-cqfm"]},"contained":[{"resourceType":"Parameters","id":"5e6ddd6d-f4fb-4bcc-a9c6-8a58777b83bb-parameters","parameter":[{"name":"subject","valueString":"1545691e-ae95-426e-a14d-b61602971a95"}]}],"extension":[{"url":"http://hl7.org/fhir/us/cqfmeasures/StructureDefinition/cqfm-inputParameters","valueReference":{"reference":"#5e6ddd6d-f4fb-4bcc-a9c6-8a58777b83bb-parameters"}},{"url":"http://hl7.org/fhir/us/cqfmeasures/StructureDefinition/cqfm-testCaseDescription","valueMarkdown":"1st PSA of 10, 2nd PSA of 8 (low) before most recent tumor staging"}],"modifierExtension":[{"url":"http://hl7.org/fhir/us/cqfmeasures/StructureDefinition/cqfm-isTestCase","valueBoolean":true}],"status":"complete","type":"individual","measure":"https://madie.cms.gov/Measure/ProstateCaAvoidanceBoneScanOveruseFHIR","period":{"start":"2025-01-01","end":"2025-12-31"},"group":[{"population":[{"code":{"coding":[{"system":"http://terminology.hl7.org/CodeSystem/measure-population","code":"initial-population","display":"Initial Population"}]},"count":1},{"code":{"coding":[{"system":"http://terminology.hl7.org/CodeSystem/measure-population","code":"denominator","display":"Denominator"}]},"count":1},{"code":{"coding":[{"system":"http://terminology.hl7.org/CodeSystem/measure-population","code":"numerator","display":"Numerator"}]},"count":0},{"code":{"coding":[{"system":"http://terminology.hl7.org/CodeSystem/measure-population","code":"denominator-exception","display":"Denominator Exception"}]},"count":0}]}]},"request":{"method":"PUT","url":"MeasureReport/cd737707-6ecd-45b2-9bed-a1ce174d1c63"}}]}