{"resourceType":"Bundle","id":"tests-eb2a3c55-9084-4fee-bb24-a645a7d74835-bundle","type":"transaction","entry":[{"fullUrl":"https://madie.cms.gov/Patient/eb2a3c55-9084-4fee-bb24-a645a7d74835","resource":{"resourceType":"Patient","id":"eb2a3c55-9084-4fee-bb24-a645a7d74835","meta":{"profile":["http://hl7.org/fhir/us/qicore/StructureDefinition/qicore-patient"]},"extension":[{"url":"http://hl7.org/fhir/us/core/StructureDefinition/us-core-race","extension":[{"url":"ombCategory","valueCoding":{"system":"urn:oid:2.16.840.1.113883.6.238","code":"1002-5","display":"American Indian or Alaska Native","userSelected":true}},{"url":"text","valueString":"American Indian or Alaska Native"}]},{"url":"http://hl7.org/fhir/us/core/StructureDefinition/us-core-ethnicity","extension":[{"url":"ombCategory","valueCoding":{"system":"urn:oid:2.16.840.1.113883.6.238","code":"2135-2","display":"Hispanic or Latino","userSelected":true}},{"url":"text","valueString":"Hispanic or Latino"}]}],"identifier":[{"type":{"coding":[{"system":"http://terminology.hl7.org/CodeSystem/v2-0203","code":"MR"}]},"system":"https://bonnie-fhir.healthit.gov/","value":"6298e7375c5f0f80c3806875"}],"name":[{"family":"IPPass","given":["PtwithPrCaDxFirstDayofMP"]}],"gender":"male","birthDate":"1966-01-19"},"request":{"method":"PUT","url":"Patient/eb2a3c55-9084-4fee-bb24-a645a7d74835"}},{"fullUrl":"https://madie.cms.gov/Condition/prostate-cancer-6877","resource":{"resourceType":"Condition","id":"5efe3eab-8fb8-43f5-a181-3b3ef5f981e7","meta":{"profile":["http://hl7.org/fhir/us/qicore/StructureDefinition/qicore-condition"]},"clinicalStatus":{"coding":[{"system":"http://terminology.hl7.org/CodeSystem/condition-clinical","code":"active","display":"active","userSelected":true}]},"category":[{"coding":[{"system":"http://hl7.org/fhir/us/core/CodeSystem/condition-category","code":"health-concern","display":"Health Concern"},{"system":"http://snomed.info/sct","code":"439401001","display":"Diagnosis"}]}],"code":{"coding":[{"system":"http://snomed.info/sct","code":"396198006","userSelected":true}]},"subject":{"reference":"Patient/eb2a3c55-9084-4fee-bb24-a645a7d74835"},"onsetPeriod":{"start":"2025-01-01T08:00:00.000+00:00"},"recordedDate":"2025-06-07T08:00:00.000+00:00"},"request":{"method":"PUT","url":"Condition/5efe3eab-8fb8-43f5-a181-3b3ef5f981e7"}},{"fullUrl":"https://madie.cms.gov/Coverage/1","resource":{"resourceType":"Coverage","id":"65638bf3-55a7-4206-ad8f-27fd145b35d2","meta":{"profile":["http://hl7.org/fhir/us/qicore/StructureDefinition/qicore-coverage"]},"status":"active","beneficiary":{"reference":"Patient/eb2a3c55-9084-4fee-bb24-a645a7d74835"},"payor":[{"reference":"Organization/80e3e0d1-b2aa-43a6-b1d2-00bfa3164a0f"}]},"request":{"method":"PUT","url":"Coverage/65638bf3-55a7-4206-ad8f-27fd145b35d2"}},{"fullUrl":"https://madie.cms.gov/Organization/123456","resource":{"resourceType":"Organization","id":"80e3e0d1-b2aa-43a6-b1d2-00bfa3164a0f","meta":{"profile":["http://hl7.org/fhir/us/qicore/StructureDefinition/qicore-organization"]},"identifier":[{"use":"temp","system":"urn:oid:2.16.840.1.113883.4.4","value":"21-3259825"}],"active":true,"type":[{"coding":[{"system":"http://terminology.hl7.org/CodeSystem/organization-type","code":"pay","display":"Payer"}]}],"name":"Blue Cross Blue Shield of Texas","telecom":[{"system":"phone","value":"(+1) 972-766-6900"}],"address":[{"use":"billing","type":"postal","line":["P.O. Box 660044"],"city":"Dallas","state":"TX","postalCode":"75266-0044","country":"USA"}]},"request":{"method":"PUT","url":"Organization/80e3e0d1-b2aa-43a6-b1d2-00bfa3164a0f"}},{"fullUrl":"https://madie.cms.gov/Practitioner/practitioner-123456","resource":{"resourceType":"Practitioner","id":"0831122a-8a24-4da6-a226-3fb5bf6f4a02","meta":{"profile":["http://hl7.org/fhir/us/qicore/StructureDefinition/qicore-practitioner"]},"identifier":[{"system":"http://hl7.org/fhir/sid/us-npi","value":"123456"}],"name":[{"family":"Evil","prefix":["Dr"]}]},"request":{"method":"PUT","url":"Practitioner/0831122a-8a24-4da6-a226-3fb5bf6f4a02"}},{"fullUrl":"https://madie.cms.gov/MeasureReport/7f80a277-7190-41b4-b3bc-5270f697cbf3","resource":{"resourceType":"MeasureReport","id":"7f80a277-7190-41b4-b3bc-5270f697cbf3","meta":{"profile":["http://hl7.org/fhir/us/cqfmeasures/StructureDefinition/test-case-cqfm"]},"contained":[{"resourceType":"Parameters","id":"95b59038-1e66-44c6-8044-0dc4bcbeda69-parameters","parameter":[{"name":"subject","valueString":"eb2a3c55-9084-4fee-bb24-a645a7d74835"}]}],"extension":[{"url":"http://hl7.org/fhir/us/cqfmeasures/StructureDefinition/cqfm-inputParameters","valueReference":{"reference":"#95b59038-1e66-44c6-8044-0dc4bcbeda69-parameters"}},{"url":"http://hl7.org/fhir/us/cqfmeasures/StructureDefinition/cqfm-testCaseDescription","valueMarkdown":"Patient  with diagnosis of  prostate cancer on first day of MP."}],"modifierExtension":[{"url":"http://hl7.org/fhir/us/cqfmeasures/StructureDefinition/cqfm-isTestCase","valueBoolean":true}],"status":"complete","type":"individual","measure":"https://madie.cms.gov/Measure/ProstateCaAvoidanceBoneScanOveruseFHIR","period":{"start":"2025-01-01","end":"2025-12-31"},"group":[{"population":[{"code":{"coding":[{"system":"http://terminology.hl7.org/CodeSystem/measure-population","code":"initial-population","display":"Initial Population"}]},"count":1},{"code":{"coding":[{"system":"http://terminology.hl7.org/CodeSystem/measure-population","code":"denominator","display":"Denominator"}]},"count":0},{"code":{"coding":[{"system":"http://terminology.hl7.org/CodeSystem/measure-population","code":"numerator","display":"Numerator"}]},"count":0},{"code":{"coding":[{"system":"http://terminology.hl7.org/CodeSystem/measure-population","code":"denominator-exception","display":"Denominator Exception"}]},"count":0}]}]},"request":{"method":"PUT","url":"MeasureReport/7f80a277-7190-41b4-b3bc-5270f697cbf3"}}]}