{"resourceType":"Bundle","id":"tests-1545691e-ae95-426e-a14d-b61602971a95-bundle","type":"transaction","entry":[{"fullUrl":"https://madie.cms.gov/Patient/1545691e-ae95-426e-a14d-b61602971a95","resource":{"resourceType":"Patient","id":"1545691e-ae95-426e-a14d-b61602971a95","meta":{"profile":["http://hl7.org/fhir/us/qicore/StructureDefinition/qicore-patient"]},"extension":[{"url":"http://hl7.org/fhir/us/core/StructureDefinition/us-core-race","extension":[{"url":"ombCategory","valueCoding":{"system":"urn:oid:2.16.840.1.113883.6.238","code":"1002-5","display":"American Indian or Alaska Native","userSelected":true}},{"url":"text","valueString":"American Indian or Alaska Native"}]},{"url":"http://hl7.org/fhir/us/core/StructureDefinition/us-core-ethnicity","extension":[{"url":"ombCategory","valueCoding":{"system":"urn:oid:2.16.840.1.113883.6.238","code":"2135-2","display":"Hispanic or Latino","userSelected":true}},{"url":"text","valueString":"Hispanic or Latino"}]}],"identifier":[{"type":{"coding":[{"system":"http://terminology.hl7.org/CodeSystem/v2-0203","code":"MR"}]},"system":"https://bonnie-fhir.healthit.gov/","value":"6298e96c5c5f0f80c3806878"}],"name":[{"family":"DENOMPass","given":["LastPSA8BeforeMostRecentStaging"]}],"gender":"male","birthDate":"1979-12-31"},"request":{"method":"PUT","url":"Patient/1545691e-ae95-426e-a14d-b61602971a95"}},{"fullUrl":"https://madie.cms.gov/Condition/prostate-cancer-a8d8","resource":{"resourceType":"Condition","id":"09ae719e-ca9e-4437-902c-a54ff6764a33","meta":{"profile":["http://hl7.org/fhir/us/qicore/StructureDefinition/qicore-condition"]},"clinicalStatus":{"coding":[{"system":"http://terminology.hl7.org/CodeSystem/condition-clinical","code":"active","display":"active","userSelected":true}]},"category":[{"coding":[{"system":"http://terminology.hl7.org/CodeSystem/condition-category","code":"problem-list-item","display":"Problem List Item"},{"system":"http://snomed.info/sct","code":"439401001","display":"Diagnosis"}]}],"code":{"coding":[{"system":"http://snomed.info/sct","version":"2022-03","code":"254900004","display":"Carcinoma of prostate (disorder)","userSelected":true}]},"subject":{"reference":"Patient/1545691e-ae95-426e-a14d-b61602971a95"},"onsetPeriod":{"start":"2007-06-14T08:00:00.000+00:00"}},"request":{"method":"PUT","url":"Condition/09ae719e-ca9e-4437-902c-a54ff6764a33"}},{"fullUrl":"https://madie.cms.gov/Procedure/prostate-cancer-treatment-a8d9","resource":{"resourceType":"Procedure","id":"77b460d7-27ed-46eb-9f1a-fbbcc0dd8881","meta":{"profile":["http://hl7.org/fhir/us/qicore/StructureDefinition/qicore-procedure"]},"extension":[{"url":"http://hl7.org/fhir/us/qicore/StructureDefinition/qicore-recorded","valueDateTime":"2025-02-01T09:00:00.000+00:00"}],"status":"completed","code":{"coding":[{"system":"http://snomed.info/sct","version":"2022-03","code":"10492003","display":"Radionuclide therapy for glandular suppression (procedure)","userSelected":true}]},"subject":{"reference":"Patient/1545691e-ae95-426e-a14d-b61602971a95"},"performedDateTime":"2025-12-28T08:00:00.000+00:00"},"request":{"method":"PUT","url":"Procedure/77b460d7-27ed-46eb-9f1a-fbbcc0dd8881"}},{"fullUrl":"https://madie.cms.gov/Observation/prostate-specific-antigen-test-a8db","resource":{"resourceType":"Observation","id":"0a905a4a-6006-432f-9a6e-24d2ef730bae","meta":{"profile":["http://hl7.org/fhir/us/qicore/StructureDefinition/qicore-observation"]},"status":"final","category":[{"coding":[{"system":"http://terminology.hl7.org/CodeSystem/observation-category","code":"procedure","display":"Procedure"}]}],"code":{"coding":[{"system":"http://loinc.org","version":"2.72","code":"2857-1","display":"Prostate specific Ag [Mass/volume] in Serum or Plasma","userSelected":true}]},"subject":{"reference":"Patient/1545691e-ae95-426e-a14d-b61602971a95"},"effectiveDateTime":"2025-04-24T08:00:00.000+00:00","valueQuantity":{"value":10.1,"system":"http://unitsofmeasure.org","code":"ng/mL"}},"request":{"method":"PUT","url":"Observation/0a905a4a-6006-432f-9a6e-24d2ef730bae"}},{"fullUrl":"https://madie.cms.gov/Observation/prostate-specific-antigen-test-a9db","resource":{"resourceType":"Observation","id":"de2aad81-0595-42c9-b4dc-4faa51c2d047","meta":{"profile":["http://hl7.org/fhir/us/qicore/StructureDefinition/qicore-observation"]},"status":"final","category":[{"coding":[{"system":"http://terminology.hl7.org/CodeSystem/observation-category","code":"procedure","display":"Procedure"}]}],"code":{"coding":[{"system":"http://loinc.org","version":"2.72","code":"2857-1","display":"Prostate specific Ag [Mass/volume] in Serum or Plasma","userSelected":true}]},"subject":{"reference":"Patient/1545691e-ae95-426e-a14d-b61602971a95"},"effectiveDateTime":"2025-08-25T08:00:00.000+00:00","valueQuantity":{"value":8.0,"system":"http://unitsofmeasure.org","code":"ng/mL"}},"request":{"method":"PUT","url":"Observation/de2aad81-0595-42c9-b4dc-4faa51c2d047"}},{"fullUrl":"https://madie.cms.gov/Observation/gleason-score-in-specimen-qualitative-a8dc","resource":{"resourceType":"Observation","id":"423944e3-2e1c-4dfa-838e-10e583732f53","meta":{"profile":["http://hl7.org/fhir/us/qicore/StructureDefinition/qicore-observation"]},"status":"final","category":[{"coding":[{"system":"http://terminology.hl7.org/CodeSystem/observation-category","code":"procedure","display":"Procedure"}]}],"code":{"coding":[{"system":"http://loinc.org","code":"35266-6","display":"Gleason score in Specimen Qualitative","userSelected":true}]},"subject":{"reference":"Patient/1545691e-ae95-426e-a14d-b61602971a95"},"effectiveDateTime":"2025-01-02T08:00:00.000+00:00","valueInteger":5},"request":{"method":"PUT","url":"Observation/423944e3-2e1c-4dfa-838e-10e583732f53"}},{"fullUrl":"https://madie.cms.gov/Observation/tumor-staging-tumor-staging-a8dd","resource":{"resourceType":"Observation","id":"0678aaf6-40ac-443c-99b4-2c3402496c4c","meta":{"profile":["http://hl7.org/fhir/us/qicore/StructureDefinition/qicore-observation"]},"status":"final","category":[{"coding":[{"system":"http://terminology.hl7.org/CodeSystem/observation-category","code":"procedure","display":"Procedure"}]}],"code":{"coding":[{"system":"http://snomed.info/sct","code":"254292007","display":"Tumor staging (tumor staging)","userSelected":true}]},"subject":{"reference":"Patient/1545691e-ae95-426e-a14d-b61602971a95"},"effectiveDateTime":"2025-04-26T08:00:00.000+00:00","valueCodeableConcept":{"coding":[{"system":"http://snomed.info/sct","code":"433361000124104","display":"Neoplasm of prostate primary tumor staging category T2a: Involves one-half of one lobe or less (finding)","userSelected":true}]}},"request":{"method":"PUT","url":"Observation/0678aaf6-40ac-443c-99b4-2c3402496c4c"}},{"fullUrl":"https://madie.cms.gov/Observation/tumor-staging-tumor-staging-a9dd","resource":{"resourceType":"Observation","id":"00e392ec-3c56-4c8f-9901-24d99fb94f68","meta":{"profile":["http://hl7.org/fhir/us/qicore/StructureDefinition/qicore-observation"]},"status":"amended","category":[{"coding":[{"system":"http://terminology.hl7.org/CodeSystem/observation-category","code":"procedure","display":"Procedure"}]}],"code":{"coding":[{"system":"http://snomed.info/sct","code":"254292007","display":"Tumor staging (tumor staging)","userSelected":true}]},"subject":{"reference":"Patient/1545691e-ae95-426e-a14d-b61602971a95"},"effectiveDateTime":"2025-06-26T08:00:00.000+00:00","valueCodeableConcept":{"coding":[{"system":"http://snomed.info/sct","code":"433361000124104","display":"T1a: Prostate tumor incidental histologic finding in 5 percent or less of tissue resected (finding)","userSelected":true}]}},"request":{"method":"PUT","url":"Observation/00e392ec-3c56-4c8f-9901-24d99fb94f68"}},{"fullUrl":"https://madie.cms.gov/Observation/tumor-staging-tumor-staging-a10dd","resource":{"resourceType":"Observation","id":"ec36d9dc-ba02-4f72-8250-3c3d7afbae00","meta":{"profile":["http://hl7.org/fhir/us/qicore/StructureDefinition/qicore-observation"]},"status":"corrected","category":[{"coding":[{"system":"http://terminology.hl7.org/CodeSystem/observation-category","code":"procedure","display":"Procedure"}]}],"code":{"coding":[{"system":"http://snomed.info/sct","code":"254292007","display":"Tumor staging (tumor staging)","userSelected":true}]},"subject":{"reference":"Patient/1545691e-ae95-426e-a14d-b61602971a95"},"effectiveDateTime":"2025-08-26T08:00:00.000+00:00","valueCodeableConcept":{"coding":[{"system":"http://snomed.info/sct","code":"433361000124104","display":"T1b: Prostate tumor incidental histologic finding in greater than 5 percent of tissue resected (finding)","userSelected":true}]}},"request":{"method":"PUT","url":"Observation/ec36d9dc-ba02-4f72-8250-3c3d7afbae00"}},{"fullUrl":"https://madie.cms.gov/Observation/bone-scan-5337","resource":{"resourceType":"Observation","id":"56061fc8-9ef5-40d7-9c53-1b5b21c71b4c","meta":{"profile":["http://hl7.org/fhir/us/qicore/StructureDefinition/qicore-observation"]},"status":"final","category":[{"coding":[{"system":"http://terminology.hl7.org/CodeSystem/observation-category","code":"procedure","display":"Procedure"}]}],"code":{"coding":[{"system":"http://loinc.org","version":"2.72","code":"25031-6","display":"NM Bone Views","userSelected":true}]},"subject":{"reference":"Patient/1545691e-ae95-426e-a14d-b61602971a95"},"effectiveDateTime":"2025-08-17T08:00:00.000+00:00","issued":"2025-08-17T08:00:00.000+00:00"},"request":{"method":"PUT","url":"Observation/56061fc8-9ef5-40d7-9c53-1b5b21c71b4c"}},{"fullUrl":"https://madie.cms.gov/Coverage/1","resource":{"resourceType":"Coverage","id":"4dd9c49c-99ad-483e-aa67-afd6ee5b866e","meta":{"profile":["http://hl7.org/fhir/us/qicore/StructureDefinition/qicore-coverage"]},"status":"active","beneficiary":{"reference":"Patient/1545691e-ae95-426e-a14d-b61602971a95"},"payor":[{"reference":"Organization/3778262e-e084-4bb5-9a47-1a144735f786"}]},"request":{"method":"PUT","url":"Coverage/4dd9c49c-99ad-483e-aa67-afd6ee5b866e"}},{"fullUrl":"https://madie.cms.gov/Organization/123456","resource":{"resourceType":"Organization","id":"3778262e-e084-4bb5-9a47-1a144735f786","meta":{"profile":["http://hl7.org/fhir/us/qicore/StructureDefinition/qicore-organization"]},"identifier":[{"use":"temp","system":"urn:oid:2.16.840.1.113883.4.4","value":"21-3259825"}],"active":true,"type":[{"coding":[{"system":"http://terminology.hl7.org/CodeSystem/organization-type","code":"pay","display":"Payer"}]}],"name":"Blue Cross Blue Shield of Texas","telecom":[{"system":"phone","value":"(+1) 972-766-6900"}],"address":[{"use":"billing","type":"postal","line":["P.O. Box 660044"],"city":"Dallas","state":"TX","postalCode":"75266-0044","country":"USA"}]},"request":{"method":"PUT","url":"Organization/3778262e-e084-4bb5-9a47-1a144735f786"}},{"fullUrl":"https://madie.cms.gov/Practitioner/practitioner-123456","resource":{"resourceType":"Practitioner","id":"56d822a1-33d6-4042-99b5-2f9cee9e8f40","meta":{"profile":["http://hl7.org/fhir/us/qicore/StructureDefinition/qicore-practitioner"]},"identifier":[{"system":"http://hl7.org/fhir/sid/us-npi","value":"123456"}],"name":[{"family":"Evil","prefix":["Dr"]}]},"request":{"method":"PUT","url":"Practitioner/56d822a1-33d6-4042-99b5-2f9cee9e8f40"}},{"fullUrl":"https://madie.cms.gov/MeasureReport/cd737707-6ecd-45b2-9bed-a1ce174d1c63","resource":{"resourceType":"MeasureReport","id":"cd737707-6ecd-45b2-9bed-a1ce174d1c63","meta":{"profile":["http://hl7.org/fhir/us/cqfmeasures/StructureDefinition/test-case-cqfm"]},"contained":[{"resourceType":"Parameters","id":"5e6ddd6d-f4fb-4bcc-a9c6-8a58777b83bb-parameters","parameter":[{"name":"subject","valueString":"1545691e-ae95-426e-a14d-b61602971a95"}]}],"extension":[{"url":"http://hl7.org/fhir/us/cqfmeasures/StructureDefinition/cqfm-inputParameters","valueReference":{"reference":"#5e6ddd6d-f4fb-4bcc-a9c6-8a58777b83bb-parameters"}},{"url":"http://hl7.org/fhir/us/cqfmeasures/StructureDefinition/cqfm-testCaseDescription","valueMarkdown":"1st PSA of 10, 2nd PSA of 8 (low) before most recent tumor staging"}],"modifierExtension":[{"url":"http://hl7.org/fhir/us/cqfmeasures/StructureDefinition/cqfm-isTestCase","valueBoolean":true}],"status":"complete","type":"individual","measure":"https://madie.cms.gov/Measure/ProstateCaAvoidanceBoneScanOveruseFHIR","period":{"start":"2025-01-01","end":"2025-12-31"},"group":[{"population":[{"code":{"coding":[{"system":"http://terminology.hl7.org/CodeSystem/measure-population","code":"initial-population","display":"Initial Population"}]},"count":1},{"code":{"coding":[{"system":"http://terminology.hl7.org/CodeSystem/measure-population","code":"denominator","display":"Denominator"}]},"count":1},{"code":{"coding":[{"system":"http://terminology.hl7.org/CodeSystem/measure-population","code":"numerator","display":"Numerator"}]},"count":0},{"code":{"coding":[{"system":"http://terminology.hl7.org/CodeSystem/measure-population","code":"denominator-exception","display":"Denominator Exception"}]},"count":0}]}]},"request":{"method":"PUT","url":"MeasureReport/cd737707-6ecd-45b2-9bed-a1ce174d1c63"}}]}