{"resourceType":"Bundle","id":"tests-18139ed5-7f67-428b-a7b6-776f34c70f5d-bundle","type":"transaction","entry":[{"fullUrl":"https://madie.cms.gov/Patient/18139ed5-7f67-428b-a7b6-776f34c70f5d","resource":{"resourceType":"Patient","id":"18139ed5-7f67-428b-a7b6-776f34c70f5d","meta":{"profile":["http://hl7.org/fhir/us/qicore/StructureDefinition/qicore-patient"]},"extension":[{"url":"http://hl7.org/fhir/us/core/StructureDefinition/us-core-race","extension":[{"url":"ombCategory","valueCoding":{"system":"urn:oid:2.16.840.1.113883.6.238","code":"2028-9","display":"Asian","userSelected":true}},{"url":"text","valueString":"Asian"}]},{"url":"http://hl7.org/fhir/us/core/StructureDefinition/us-core-ethnicity","extension":[{"url":"ombCategory","valueCoding":{"system":"urn:oid:2.16.840.1.113883.6.238","code":"2186-5","display":"Not Hispanic or Latino","userSelected":true}},{"url":"text","valueString":"Not Hispanic or Latino"}]}],"identifier":[{"type":{"coding":[{"system":"http://terminology.hl7.org/CodeSystem/v2-0203","code":"MR"}]},"system":"https://bonnie-fhir.healthit.gov/","value":"62fd0bb085b0356a7c28532d"}],"name":[{"family":"DenomFail","given":["FirstTxEndsBeforeMP"]}],"gender":"male","birthDate":"1979-12-31"},"request":{"method":"PUT","url":"Patient/18139ed5-7f67-428b-a7b6-776f34c70f5d"}},{"fullUrl":"https://madie.cms.gov/Condition/prostate-cancer-a8d8","resource":{"resourceType":"Condition","id":"0733ac78-23d9-476f-bc2c-7af6077da1ec","meta":{"profile":["http://hl7.org/fhir/us/qicore/StructureDefinition/qicore-condition"]},"clinicalStatus":{"coding":[{"system":"http://terminology.hl7.org/CodeSystem/condition-clinical","code":"active","display":"active","userSelected":true}]},"category":[{"coding":[{"system":"http://terminology.hl7.org/CodeSystem/condition-category","code":"problem-list-item","display":"Problem List Item"},{"system":"http://snomed.info/sct","code":"439401001","display":"Diagnosis"}]}],"code":{"coding":[{"system":"http://snomed.info/sct","version":"2022-03","code":"254900004","display":"Carcinoma of prostate (disorder)","userSelected":true}]},"subject":{"reference":"Patient/18139ed5-7f67-428b-a7b6-776f34c70f5d"},"onsetPeriod":{"start":"2020-06-14T08:00:00.000+00:00"}},"request":{"method":"PUT","url":"Condition/0733ac78-23d9-476f-bc2c-7af6077da1ec"}},{"fullUrl":"https://madie.cms.gov/Procedure/prostate-cancer-treatment-a8d9","resource":{"resourceType":"Procedure","id":"3cca34cd-c12f-4f48-9bcd-d5f415ca07e1","meta":{"profile":["http://hl7.org/fhir/us/qicore/StructureDefinition/qicore-procedure"]},"extension":[{"url":"http://hl7.org/fhir/us/qicore/StructureDefinition/qicore-recorded","valueDateTime":"2023-02-01T09:00:00.000+00:00"}],"status":"completed","code":{"coding":[{"system":"http://snomed.info/sct","version":"2022-03","code":"10492003","display":"Radionuclide therapy for glandular suppression (procedure)","userSelected":true}]},"subject":{"reference":"Patient/18139ed5-7f67-428b-a7b6-776f34c70f5d"},"performedDateTime":"2021-12-31T08:00:00.000+00:00"},"request":{"method":"PUT","url":"Procedure/3cca34cd-c12f-4f48-9bcd-d5f415ca07e1"}},{"fullUrl":"https://madie.cms.gov/Observation/prostate-specific-antigen-test-a8da","resource":{"resourceType":"Observation","id":"35a557c8-4a8f-44be-83c3-b144570a77a0","meta":{"profile":["http://hl7.org/fhir/us/qicore/StructureDefinition/qicore-observation"]},"status":"final","category":[{"coding":[{"system":"http://terminology.hl7.org/CodeSystem/observation-category","code":"procedure","display":"Procedure"}]}],"code":{"coding":[{"system":"http://loinc.org","version":"2.72","code":"10508-0","display":"Prostate specific Ag [Presence] in Tissue by Immune stain","userSelected":true}]},"subject":{"reference":"Patient/18139ed5-7f67-428b-a7b6-776f34c70f5d"},"issued":"2025-04-22T08:00:00.000+00:00","valueQuantity":{"value":11.0,"system":"http://unitsofmeasure.org","code":"ng/mL"}},"request":{"method":"PUT","url":"Observation/35a557c8-4a8f-44be-83c3-b144570a77a0"}},{"fullUrl":"https://madie.cms.gov/Observation/gleason-score-in-specimen-qualitative-a8dc","resource":{"resourceType":"Observation","id":"f5463cc0-4162-423a-91ee-cccb7c026a79","meta":{"profile":["http://hl7.org/fhir/us/qicore/StructureDefinition/qicore-observation"]},"status":"final","category":[{"coding":[{"system":"http://terminology.hl7.org/CodeSystem/observation-category","code":"procedure","display":"Procedure"}]}],"code":{"coding":[{"system":"http://loinc.org","code":"35266-6","display":"Gleason score in Specimen Qualitative","userSelected":true}]},"subject":{"reference":"Patient/18139ed5-7f67-428b-a7b6-776f34c70f5d"},"effectiveDateTime":"2025-01-02T08:00:00.000+00:00","valueInteger":5},"request":{"method":"PUT","url":"Observation/f5463cc0-4162-423a-91ee-cccb7c026a79"}},{"fullUrl":"https://madie.cms.gov/Observation/tumor-staging-tumor-staging-a8dd","resource":{"resourceType":"Observation","id":"dd905f14-7159-4b66-9edf-18cb5fd3df98","meta":{"profile":["http://hl7.org/fhir/us/qicore/StructureDefinition/qicore-observation"]},"status":"final","category":[{"coding":[{"system":"http://terminology.hl7.org/CodeSystem/observation-category","code":"procedure","display":"Procedure"}]}],"code":{"coding":[{"system":"http://snomed.info/sct","code":"254292007","display":"Tumor staging (tumor staging)","userSelected":true}]},"subject":{"reference":"Patient/18139ed5-7f67-428b-a7b6-776f34c70f5d"},"effectiveDateTime":"2025-04-26T08:00:00.000+00:00","valueCodeableConcept":{"coding":[{"system":"http://snomed.info/sct","code":"433361000124104","display":"Neoplasm of prostate primary tumor staging category T2a: Involves one-half of one lobe or less (finding)","userSelected":true}]}},"request":{"method":"PUT","url":"Observation/dd905f14-7159-4b66-9edf-18cb5fd3df98"}},{"fullUrl":"https://madie.cms.gov/Coverage/1","resource":{"resourceType":"Coverage","id":"5b43b8bd-4981-4e29-9460-596e7f7c2321","meta":{"profile":["http://hl7.org/fhir/us/qicore/StructureDefinition/qicore-coverage"]},"status":"active","beneficiary":{"reference":"Patient/18139ed5-7f67-428b-a7b6-776f34c70f5d"},"payor":[{"reference":"Organization/a6c3e6fa-301e-4714-9d04-3dde9a7e7c49"}]},"request":{"method":"PUT","url":"Coverage/5b43b8bd-4981-4e29-9460-596e7f7c2321"}},{"fullUrl":"https://madie.cms.gov/Organization/123456","resource":{"resourceType":"Organization","id":"a6c3e6fa-301e-4714-9d04-3dde9a7e7c49","meta":{"profile":["http://hl7.org/fhir/us/qicore/StructureDefinition/qicore-organization"]},"identifier":[{"use":"temp","system":"urn:oid:2.16.840.1.113883.4.4","value":"21-3259825"}],"active":true,"type":[{"coding":[{"system":"http://terminology.hl7.org/CodeSystem/organization-type","code":"pay","display":"Payer"}]}],"name":"Blue Cross Blue Shield of Texas","telecom":[{"system":"phone","value":"(+1) 972-766-6900"}],"address":[{"use":"billing","type":"postal","line":["P.O. Box 660044"],"city":"Dallas","state":"TX","postalCode":"75266-0044","country":"USA"}]},"request":{"method":"PUT","url":"Organization/a6c3e6fa-301e-4714-9d04-3dde9a7e7c49"}},{"fullUrl":"https://madie.cms.gov/Practitioner/practitioner-123456","resource":{"resourceType":"Practitioner","id":"5a99083e-09da-44d9-8de8-2ca310ef2685","meta":{"profile":["http://hl7.org/fhir/us/qicore/StructureDefinition/qicore-practitioner"]},"identifier":[{"system":"http://hl7.org/fhir/sid/us-npi","value":"123456"}],"name":[{"family":"Evil","prefix":["Dr"]}]},"request":{"method":"PUT","url":"Practitioner/5a99083e-09da-44d9-8de8-2ca310ef2685"}},{"fullUrl":"https://madie.cms.gov/MeasureReport/d5f42359-b2ad-4c68-9cbf-3337d4ffeae1","resource":{"resourceType":"MeasureReport","id":"d5f42359-b2ad-4c68-9cbf-3337d4ffeae1","meta":{"profile":["http://hl7.org/fhir/us/cqfmeasures/StructureDefinition/test-case-cqfm"]},"contained":[{"resourceType":"Parameters","id":"6e781a79-52f7-47f7-8ec6-3dad2d7483ca-parameters","parameter":[{"name":"subject","valueString":"18139ed5-7f67-428b-a7b6-776f34c70f5d"}]}],"extension":[{"url":"http://hl7.org/fhir/us/cqfmeasures/StructureDefinition/cqfm-inputParameters","valueReference":{"reference":"#6e781a79-52f7-47f7-8ec6-3dad2d7483ca-parameters"}},{"url":"http://hl7.org/fhir/us/cqfmeasures/StructureDefinition/cqfm-testCaseDescription","valueMarkdown":"Prostate Ca Diagnosis but does not meet first treatment. Meets tumor staging, PSA, and Gleason.  First treatment ends before MP. \n\n"}],"modifierExtension":[{"url":"http://hl7.org/fhir/us/cqfmeasures/StructureDefinition/cqfm-isTestCase","valueBoolean":true}],"status":"complete","type":"individual","measure":"https://madie.cms.gov/Measure/ProstateCaAvoidanceBoneScanOveruseFHIR","period":{"start":"2025-01-01","end":"2025-12-31"},"group":[{"population":[{"code":{"coding":[{"system":"http://terminology.hl7.org/CodeSystem/measure-population","code":"initial-population","display":"Initial Population"}]},"count":1},{"code":{"coding":[{"system":"http://terminology.hl7.org/CodeSystem/measure-population","code":"denominator","display":"Denominator"}]},"count":0},{"code":{"coding":[{"system":"http://terminology.hl7.org/CodeSystem/measure-population","code":"numerator","display":"Numerator"}]},"count":0},{"code":{"coding":[{"system":"http://terminology.hl7.org/CodeSystem/measure-population","code":"denominator-exception","display":"Denominator Exception"}]},"count":0}]}]},"request":{"method":"PUT","url":"MeasureReport/d5f42359-b2ad-4c68-9cbf-3337d4ffeae1"}}]}