{"resourceType":"Bundle","id":"tests-e87e1a77-548d-4bb5-bb82-34246d4dc9ed-bundle","type":"transaction","entry":[{"fullUrl":"https://madie.cms.gov/Patient/e87e1a77-548d-4bb5-bb82-34246d4dc9ed","resource":{"resourceType":"Patient","id":"e87e1a77-548d-4bb5-bb82-34246d4dc9ed","meta":{"profile":["http://hl7.org/fhir/us/qicore/StructureDefinition/qicore-patient"]},"extension":[{"url":"http://hl7.org/fhir/us/core/StructureDefinition/us-core-race","extension":[{"url":"ombCategory","valueCoding":{"system":"urn:oid:2.16.840.1.113883.6.238","code":"1002-5","display":"American Indian or Alaska Native","userSelected":true}},{"url":"text","valueString":"American Indian or Alaska Native"}]},{"url":"http://hl7.org/fhir/us/core/StructureDefinition/us-core-ethnicity","extension":[{"url":"ombCategory","valueCoding":{"system":"urn:oid:2.16.840.1.113883.6.238","code":"2135-2","display":"Hispanic or Latino","userSelected":true}},{"url":"text","valueString":"Hispanic or Latino"}]}],"identifier":[{"type":{"coding":[{"system":"http://terminology.hl7.org/CodeSystem/v2-0203","code":"MR"}]},"system":"https://bonnie-fhir.healthit.gov/","value":"62fd350232e2f917c3627d90"}],"name":[{"family":"DENEXCEPFail","given":["PrCaPainBeforeCaDx"]}],"gender":"male","birthDate":"1986-06-27"},"request":{"method":"PUT","url":"Patient/e87e1a77-548d-4bb5-bb82-34246d4dc9ed"}},{"fullUrl":"https://madie.cms.gov/Condition/prostate-cancer-a8e0","resource":{"resourceType":"Condition","id":"fb7383c5-5e34-4cda-a85b-f6ceaa3fabf3","meta":{"profile":["http://hl7.org/fhir/us/qicore/StructureDefinition/qicore-condition"]},"clinicalStatus":{"coding":[{"system":"http://terminology.hl7.org/CodeSystem/condition-clinical","code":"active","display":"active","userSelected":true}]},"category":[{"coding":[{"system":"http://hl7.org/fhir/us/core/CodeSystem/condition-category","code":"health-concern","display":"Health Concern"},{"system":"http://snomed.info/sct","code":"439401001","display":"Diagnosis"}]}],"code":{"coding":[{"system":"http://snomed.info/sct","version":"2022-03","code":"254900004","display":"Carcinoma of prostate (disorder)","userSelected":true}]},"subject":{"reference":"Patient/e87e1a77-548d-4bb5-bb82-34246d4dc9ed"},"onsetDateTime":"2025-01-07T08:00:00.000+00:00","recordedDate":"2025-06-02T08:00:00.000+00:00"},"request":{"method":"PUT","url":"Condition/fb7383c5-5e34-4cda-a85b-f6ceaa3fabf3"}},{"fullUrl":"https://madie.cms.gov/Procedure/prostate-cancer-treatment-a8e1","resource":{"resourceType":"Procedure","id":"d8376dc0-c326-403a-87bd-e6a46a1b5dd8","meta":{"profile":["http://hl7.org/fhir/us/qicore/StructureDefinition/qicore-procedure"]},"extension":[{"url":"http://hl7.org/fhir/us/qicore/StructureDefinition/qicore-recorded","valueDateTime":"2025-02-01T09:00:00.000+00:00"}],"status":"completed","code":{"coding":[{"system":"http://snomed.info/sct","version":"2022-03","code":"10492003","display":"Radionuclide therapy for glandular suppression (procedure)","userSelected":true}]},"subject":{"reference":"Patient/e87e1a77-548d-4bb5-bb82-34246d4dc9ed"},"performedDateTime":"2025-06-02T08:00:00.000+00:00"},"request":{"method":"PUT","url":"Procedure/d8376dc0-c326-403a-87bd-e6a46a1b5dd8"}},{"fullUrl":"https://madie.cms.gov/Observation/prostate-specific-antigen-test-a8e2","resource":{"resourceType":"Observation","id":"f3e9b14e-190c-4ddc-9fcc-6d8e27286edf","meta":{"profile":["http://hl7.org/fhir/us/qicore/StructureDefinition/qicore-observation"]},"status":"final","category":[{"coding":[{"system":"http://terminology.hl7.org/CodeSystem/observation-category","code":"procedure","display":"Procedure"}]}],"code":{"coding":[{"system":"http://loinc.org","version":"2.72","code":"2857-1","display":"Prostate specific Ag [Mass/volume] in Serum or Plasma","userSelected":true}]},"subject":{"reference":"Patient/e87e1a77-548d-4bb5-bb82-34246d4dc9ed"},"effectiveDateTime":"2025-01-07T08:00:00.000+00:00","issued":"2025-04-02T08:00:00.000+00:00","valueQuantity":{"value":8.0,"system":"http://unitsofmeasure.org","code":"ng/mL"}},"request":{"method":"PUT","url":"Observation/f3e9b14e-190c-4ddc-9fcc-6d8e27286edf"}},{"fullUrl":"https://madie.cms.gov/Observation/gleason-score-in-specimen-qualitative-a8e3","resource":{"resourceType":"Observation","id":"eadf20de-beda-4db7-afdc-9cf9b15bf493","meta":{"profile":["http://hl7.org/fhir/us/qicore/StructureDefinition/qicore-observation"]},"status":"final","category":[{"coding":[{"system":"http://terminology.hl7.org/CodeSystem/observation-category","code":"procedure","display":"Procedure"}]}],"code":{"coding":[{"system":"http://loinc.org","code":"35266-6","display":"Gleason score in Specimen Qualitative","userSelected":true}]},"subject":{"reference":"Patient/e87e1a77-548d-4bb5-bb82-34246d4dc9ed"},"effectivePeriod":{"start":"2025-04-02T08:00:00.000+00:00"},"issued":"2025-04-02T08:00:00.000+00:00","valueInteger":5},"request":{"method":"PUT","url":"Observation/eadf20de-beda-4db7-afdc-9cf9b15bf493"}},{"fullUrl":"https://madie.cms.gov/Observation/tumor-staging-tumor-staging-a8e4","resource":{"resourceType":"Observation","id":"c83753cd-c7c0-4754-9526-b41655b905b1","meta":{"profile":["http://hl7.org/fhir/us/qicore/StructureDefinition/qicore-observation"]},"status":"final","category":[{"coding":[{"system":"http://terminology.hl7.org/CodeSystem/observation-category","code":"procedure","display":"Procedure"}]}],"code":{"coding":[{"system":"http://snomed.info/sct","code":"254292007","display":"Tumor staging (tumor staging)","userSelected":true}]},"subject":{"reference":"Patient/e87e1a77-548d-4bb5-bb82-34246d4dc9ed"},"effectivePeriod":{"start":"2025-02-07T08:00:00.000+00:00"},"issued":"2025-02-02T08:00:00.000+00:00","valueCodeableConcept":{"coding":[{"system":"http://snomed.info/sct","code":"369833007","display":"T1a: Prostate tumor incidental histologic finding in 5% or less of tissue resected (finding)","userSelected":true}]}},"request":{"method":"PUT","url":"Observation/c83753cd-c7c0-4754-9526-b41655b905b1"}},{"fullUrl":"https://madie.cms.gov/Observation/bone-scan-d291","resource":{"resourceType":"Observation","id":"653fffde-58e7-450b-9b10-3bf43de53d68","meta":{"profile":["http://hl7.org/fhir/us/qicore/StructureDefinition/qicore-observation"]},"status":"final","category":[{"coding":[{"system":"http://terminology.hl7.org/CodeSystem/observation-category","code":"procedure","display":"Procedure"}]}],"code":{"coding":[{"system":"http://loinc.org","version":"2.72","code":"25031-6","display":"NM Bone Views","userSelected":true}]},"subject":{"reference":"Patient/e87e1a77-548d-4bb5-bb82-34246d4dc9ed"},"effectivePeriod":{"start":"2025-06-14T08:00:00.000+00:00","end":"2025-06-14T09:15:00.000+00:00"},"issued":"2025-06-14T08:00:00.000+00:00"},"request":{"method":"PUT","url":"Observation/653fffde-58e7-450b-9b10-3bf43de53d68"}},{"fullUrl":"https://madie.cms.gov/Condition/pain-related-to-prostate-cancer-d292","resource":{"resourceType":"Condition","id":"1f15d796-eccb-4cf2-9272-b334d704f469","meta":{"profile":["http://hl7.org/fhir/us/qicore/StructureDefinition/qicore-condition"]},"clinicalStatus":{"coding":[{"system":"http://terminology.hl7.org/CodeSystem/condition-clinical","code":"active","display":"active","userSelected":true}]},"category":[{"coding":[{"system":"http://hl7.org/fhir/us/core/CodeSystem/condition-category","code":"health-concern","display":"Health Concern"},{"system":"http://snomed.info/sct","code":"439401001","display":"Diagnosis"}]}],"code":{"coding":[{"system":"http://snomed.info/sct","version":"2022-03","code":"12584003","display":"Bone pain (finding)","userSelected":true}]},"subject":{"reference":"Patient/e87e1a77-548d-4bb5-bb82-34246d4dc9ed"},"onsetDateTime":"2024-09-10T08:00:00.000+00:00","recordedDate":"2025-06-14T08:00:00.000+00:00"},"request":{"method":"PUT","url":"Condition/1f15d796-eccb-4cf2-9272-b334d704f469"}},{"fullUrl":"https://madie.cms.gov/Coverage/1","resource":{"resourceType":"Coverage","id":"6dcb0752-afeb-41cc-9bbf-8fbf7a8e0969","meta":{"profile":["http://hl7.org/fhir/us/qicore/StructureDefinition/qicore-coverage"]},"status":"active","beneficiary":{"reference":"Patient/e87e1a77-548d-4bb5-bb82-34246d4dc9ed"},"payor":[{"reference":"Organization/f4907415-83c5-4eae-ab0b-cb63a840880d"}]},"request":{"method":"PUT","url":"Coverage/6dcb0752-afeb-41cc-9bbf-8fbf7a8e0969"}},{"fullUrl":"https://madie.cms.gov/Organization/123456","resource":{"resourceType":"Organization","id":"f4907415-83c5-4eae-ab0b-cb63a840880d","meta":{"profile":["http://hl7.org/fhir/us/qicore/StructureDefinition/qicore-organization"]},"identifier":[{"use":"temp","system":"urn:oid:2.16.840.1.113883.4.4","value":"21-3259825"}],"active":true,"type":[{"coding":[{"system":"http://terminology.hl7.org/CodeSystem/organization-type","code":"pay","display":"Payer"}]}],"name":"Blue Cross Blue Shield of Texas","telecom":[{"system":"phone","value":"(+1) 972-766-6900"}],"address":[{"use":"billing","type":"postal","line":["P.O. Box 660044"],"city":"Dallas","state":"TX","postalCode":"75266-0044","country":"USA"}]},"request":{"method":"PUT","url":"Organization/f4907415-83c5-4eae-ab0b-cb63a840880d"}},{"fullUrl":"https://madie.cms.gov/Practitioner/practitioner-123456","resource":{"resourceType":"Practitioner","id":"1d1ba816-71ae-4a04-9749-249e570a84a9","meta":{"profile":["http://hl7.org/fhir/us/qicore/StructureDefinition/qicore-practitioner"]},"identifier":[{"system":"http://hl7.org/fhir/sid/us-npi","value":"123456"}],"name":[{"family":"Evil","prefix":["Dr"]}]},"request":{"method":"PUT","url":"Practitioner/1d1ba816-71ae-4a04-9749-249e570a84a9"}},{"fullUrl":"https://madie.cms.gov/MeasureReport/9546949c-26cc-4da3-b7cc-e20814fbf9ef","resource":{"resourceType":"MeasureReport","id":"9546949c-26cc-4da3-b7cc-e20814fbf9ef","meta":{"profile":["http://hl7.org/fhir/us/cqfmeasures/StructureDefinition/test-case-cqfm"]},"contained":[{"resourceType":"Parameters","id":"600142fa-7355-4edc-b308-6a7e59264417-parameters","parameter":[{"name":"subject","valueString":"e87e1a77-548d-4bb5-bb82-34246d4dc9ed"}]}],"extension":[{"url":"http://hl7.org/fhir/us/cqfmeasures/StructureDefinition/cqfm-inputParameters","valueReference":{"reference":"#600142fa-7355-4edc-b308-6a7e59264417-parameters"}},{"url":"http://hl7.org/fhir/us/cqfmeasures/StructureDefinition/cqfm-testCaseDescription","valueMarkdown":"Patient with diagnosis of cancer related pain before start of prostate cancer diagnosis. \n"}],"modifierExtension":[{"url":"http://hl7.org/fhir/us/cqfmeasures/StructureDefinition/cqfm-isTestCase","valueBoolean":true}],"status":"complete","type":"individual","measure":"https://madie.cms.gov/Measure/ProstateCaAvoidanceBoneScanOveruseFHIR","period":{"start":"2025-01-01","end":"2025-12-31"},"group":[{"population":[{"code":{"coding":[{"system":"http://terminology.hl7.org/CodeSystem/measure-population","code":"initial-population","display":"Initial Population"}]},"count":1},{"code":{"coding":[{"system":"http://terminology.hl7.org/CodeSystem/measure-population","code":"denominator","display":"Denominator"}]},"count":1},{"code":{"coding":[{"system":"http://terminology.hl7.org/CodeSystem/measure-population","code":"numerator","display":"Numerator"}]},"count":0},{"code":{"coding":[{"system":"http://terminology.hl7.org/CodeSystem/measure-population","code":"denominator-exception","display":"Denominator Exception"}]},"count":0}]}]},"request":{"method":"PUT","url":"MeasureReport/9546949c-26cc-4da3-b7cc-e20814fbf9ef"}}]}