{"resourceType":"Bundle","id":"tests-8f7a0293-723b-4531-8dc3-39ca2598f17a-bundle","type":"transaction","entry":[{"fullUrl":"https://madie.cms.gov/Patient/8f7a0293-723b-4531-8dc3-39ca2598f17a","resource":{"resourceType":"Patient","id":"8f7a0293-723b-4531-8dc3-39ca2598f17a","meta":{"profile":["http://hl7.org/fhir/us/qicore/StructureDefinition/qicore-patient"]},"extension":[{"url":"http://hl7.org/fhir/us/core/StructureDefinition/us-core-race","extension":[{"url":"ombCategory","valueCoding":{"system":"urn:oid:2.16.840.1.113883.6.238","code":"1002-5","display":"American Indian or Alaska Native","userSelected":true}},{"url":"text","valueString":"American Indian or Alaska Native"}]},{"url":"http://hl7.org/fhir/us/core/StructureDefinition/us-core-ethnicity","extension":[{"url":"ombCategory","valueCoding":{"system":"urn:oid:2.16.840.1.113883.6.238","code":"2135-2","display":"Hispanic or Latino","userSelected":true}},{"url":"text","valueString":"Hispanic or Latino"}]}],"identifier":[{"type":{"coding":[{"system":"http://terminology.hl7.org/CodeSystem/v2-0203","code":"MR"}]},"system":"https://bonnie-fhir.healthit.gov/","value":"62fd2c9e32e2f917c3627d87"}],"name":[{"family":"NUMERPass","given":["BoneScanBeforeMP"]}],"gender":"male","birthDate":"1986-02-27"},"request":{"method":"PUT","url":"Patient/8f7a0293-723b-4531-8dc3-39ca2598f17a"}},{"fullUrl":"https://madie.cms.gov/Condition/prostate-cancer-a8e0","resource":{"resourceType":"Condition","id":"6b27c7f1-4815-44e2-b2df-aeabd9c2ee43","meta":{"profile":["http://hl7.org/fhir/us/qicore/StructureDefinition/qicore-condition"]},"clinicalStatus":{"coding":[{"system":"http://terminology.hl7.org/CodeSystem/condition-clinical","code":"active","display":"active","userSelected":true}]},"category":[{"coding":[{"system":"http://terminology.hl7.org/CodeSystem/condition-category","code":"problem-list-item","display":"Problem List Item"},{"system":"http://snomed.info/sct","code":"439401001","display":"Diagnosis"}]}],"code":{"coding":[{"system":"http://snomed.info/sct","version":"2022-03","code":"254900004","display":"Carcinoma of prostate (disorder)","userSelected":true}]},"subject":{"reference":"Patient/8f7a0293-723b-4531-8dc3-39ca2598f17a"},"onsetDateTime":"2025-01-07T08:00:00.000+00:00","recordedDate":"2025-06-02T08:00:00.000+00:00"},"request":{"method":"PUT","url":"Condition/6b27c7f1-4815-44e2-b2df-aeabd9c2ee43"}},{"fullUrl":"https://madie.cms.gov/Procedure/prostate-cancer-treatment-a8e1","resource":{"resourceType":"Procedure","id":"e97cb43a-f940-4248-89bd-cf0fa33c6156","meta":{"profile":["http://hl7.org/fhir/us/qicore/StructureDefinition/qicore-procedure"]},"extension":[{"url":"http://hl7.org/fhir/us/qicore/StructureDefinition/qicore-recorded","valueDateTime":"2025-02-01T09:00:00.000+00:00"}],"status":"completed","code":{"coding":[{"system":"http://snomed.info/sct","version":"2022-03","code":"10492003","display":"Radionuclide therapy for glandular suppression (procedure)","userSelected":true}]},"subject":{"reference":"Patient/8f7a0293-723b-4531-8dc3-39ca2598f17a"},"performedDateTime":"2025-06-02T08:00:00.000+00:00"},"request":{"method":"PUT","url":"Procedure/e97cb43a-f940-4248-89bd-cf0fa33c6156"}},{"fullUrl":"https://madie.cms.gov/Observation/prostate-specific-antigen-test-a8e2","resource":{"resourceType":"Observation","id":"1cba0527-83be-4c7d-9c7f-44e2d97092e9","meta":{"profile":["http://hl7.org/fhir/us/qicore/StructureDefinition/qicore-observation"]},"status":"final","category":[{"coding":[{"system":"http://terminology.hl7.org/CodeSystem/observation-category","code":"procedure","display":"Procedure"}]}],"code":{"coding":[{"system":"http://loinc.org","version":"2.72","code":"2857-1","display":"Prostate specific Ag [Mass/volume] in Serum or Plasma","userSelected":true}]},"subject":{"reference":"Patient/8f7a0293-723b-4531-8dc3-39ca2598f17a"},"effectiveDateTime":"2025-01-07T08:00:00.000+00:00","issued":"2025-04-02T08:00:00.000+00:00","valueQuantity":{"value":8.0,"system":"http://unitsofmeasure.org","code":"ng/mL"}},"request":{"method":"PUT","url":"Observation/1cba0527-83be-4c7d-9c7f-44e2d97092e9"}},{"fullUrl":"https://madie.cms.gov/Observation/gleason-score-in-specimen-qualitative-a8e3","resource":{"resourceType":"Observation","id":"fc8fbce5-a3ab-4adc-b6a2-2cadf8411bfc","meta":{"profile":["http://hl7.org/fhir/us/qicore/StructureDefinition/qicore-observation"]},"status":"final","category":[{"coding":[{"system":"http://terminology.hl7.org/CodeSystem/observation-category","code":"procedure","display":"Procedure"}]}],"code":{"coding":[{"system":"http://loinc.org","code":"35266-6","display":"Gleason score in Specimen Qualitative","userSelected":true}]},"subject":{"reference":"Patient/8f7a0293-723b-4531-8dc3-39ca2598f17a"},"effectivePeriod":{"start":"2025-04-02T08:00:00.000+00:00"},"issued":"2025-04-02T08:00:00.000+00:00","valueInteger":5},"request":{"method":"PUT","url":"Observation/fc8fbce5-a3ab-4adc-b6a2-2cadf8411bfc"}},{"fullUrl":"https://madie.cms.gov/Observation/tumor-staging-tumor-staging-a8e4","resource":{"resourceType":"Observation","id":"08db2040-c9b5-4acb-88da-a7e8e5587894","meta":{"profile":["http://hl7.org/fhir/us/qicore/StructureDefinition/qicore-observation"]},"status":"final","category":[{"coding":[{"system":"http://terminology.hl7.org/CodeSystem/observation-category","code":"procedure","display":"Procedure"}]}],"code":{"coding":[{"system":"http://snomed.info/sct","code":"254292007","display":"Tumor staging (tumor staging)","userSelected":true}]},"subject":{"reference":"Patient/8f7a0293-723b-4531-8dc3-39ca2598f17a"},"effectivePeriod":{"start":"2025-02-07T08:00:00.000+00:00"},"issued":"2025-02-02T08:00:00.000+00:00","valueCodeableConcept":{"coding":[{"system":"http://snomed.info/sct","code":"369833007","display":"T1a: Prostate tumor incidental histologic finding in 5% or less of tissue resected (finding)","userSelected":true}]}},"request":{"method":"PUT","url":"Observation/08db2040-c9b5-4acb-88da-a7e8e5587894"}},{"fullUrl":"https://madie.cms.gov/Observation/bone-scan-7d88","resource":{"resourceType":"Observation","id":"ce52d797-6fb3-47f4-ac99-8a820c6e3f90","meta":{"profile":["http://hl7.org/fhir/us/qicore/StructureDefinition/qicore-observation"]},"status":"final","category":[{"coding":[{"system":"http://terminology.hl7.org/CodeSystem/observation-category","code":"procedure","display":"Procedure"}]}],"code":{"coding":[{"system":"http://loinc.org","version":"2.72","code":"25031-6","display":"NM Bone Views","userSelected":true}]},"subject":{"reference":"Patient/8f7a0293-723b-4531-8dc3-39ca2598f17a"},"effectiveDateTime":"2024-12-31T08:00:00.000+00:00","issued":"2025-02-02T08:00:00.000+00:00"},"request":{"method":"PUT","url":"Observation/ce52d797-6fb3-47f4-ac99-8a820c6e3f90"}},{"fullUrl":"https://madie.cms.gov/Coverage/1","resource":{"resourceType":"Coverage","id":"b581f824-e9b7-4e55-b145-751818bce544","meta":{"profile":["http://hl7.org/fhir/us/qicore/StructureDefinition/qicore-coverage"]},"status":"active","beneficiary":{"reference":"Patient/8f7a0293-723b-4531-8dc3-39ca2598f17a"},"payor":[{"reference":"Organization/5ad6ea38-07e9-4482-9e1b-c09eee595be9"}]},"request":{"method":"PUT","url":"Coverage/b581f824-e9b7-4e55-b145-751818bce544"}},{"fullUrl":"https://madie.cms.gov/Organization/123456","resource":{"resourceType":"Organization","id":"5ad6ea38-07e9-4482-9e1b-c09eee595be9","meta":{"profile":["http://hl7.org/fhir/us/qicore/StructureDefinition/qicore-organization"]},"identifier":[{"use":"temp","system":"urn:oid:2.16.840.1.113883.4.4","value":"21-3259825"}],"active":true,"type":[{"coding":[{"system":"http://terminology.hl7.org/CodeSystem/organization-type","code":"pay","display":"Payer"}]}],"name":"Blue Cross Blue Shield of Texas","telecom":[{"system":"phone","value":"(+1) 972-766-6900"}],"address":[{"use":"billing","type":"postal","line":["P.O. Box 660044"],"city":"Dallas","state":"TX","postalCode":"75266-0044","country":"USA"}]},"request":{"method":"PUT","url":"Organization/5ad6ea38-07e9-4482-9e1b-c09eee595be9"}},{"fullUrl":"https://madie.cms.gov/Practitioner/practitioner-123456","resource":{"resourceType":"Practitioner","id":"0bbed3b7-44fd-46bf-afe6-22fab755f0de","meta":{"profile":["http://hl7.org/fhir/us/qicore/StructureDefinition/qicore-practitioner"]},"identifier":[{"system":"http://hl7.org/fhir/sid/us-npi","value":"123456"}],"name":[{"family":"Evil","prefix":["Dr"]}]},"request":{"method":"PUT","url":"Practitioner/0bbed3b7-44fd-46bf-afe6-22fab755f0de"}},{"fullUrl":"https://madie.cms.gov/MeasureReport/605c494b-274a-48e8-a8b4-4fe3f674807a","resource":{"resourceType":"MeasureReport","id":"605c494b-274a-48e8-a8b4-4fe3f674807a","meta":{"profile":["http://hl7.org/fhir/us/cqfmeasures/StructureDefinition/test-case-cqfm"]},"contained":[{"resourceType":"Parameters","id":"bd60edb5-4676-4575-a2ab-d65c8492fb40-parameters","parameter":[{"name":"subject","valueString":"8f7a0293-723b-4531-8dc3-39ca2598f17a"}]}],"extension":[{"url":"http://hl7.org/fhir/us/cqfmeasures/StructureDefinition/cqfm-inputParameters","valueReference":{"reference":"#bd60edb5-4676-4575-a2ab-d65c8492fb40-parameters"}},{"url":"http://hl7.org/fhir/us/cqfmeasures/StructureDefinition/cqfm-testCaseDescription","valueMarkdown":"Bone scan occurs before Measurement Period. "}],"modifierExtension":[{"url":"http://hl7.org/fhir/us/cqfmeasures/StructureDefinition/cqfm-isTestCase","valueBoolean":true}],"status":"complete","type":"individual","measure":"https://madie.cms.gov/Measure/ProstateCaAvoidanceBoneScanOveruseFHIR","period":{"start":"2025-01-01","end":"2025-12-31"},"group":[{"population":[{"code":{"coding":[{"system":"http://terminology.hl7.org/CodeSystem/measure-population","code":"initial-population","display":"Initial Population"}]},"count":1},{"code":{"coding":[{"system":"http://terminology.hl7.org/CodeSystem/measure-population","code":"denominator","display":"Denominator"}]},"count":1},{"code":{"coding":[{"system":"http://terminology.hl7.org/CodeSystem/measure-population","code":"numerator","display":"Numerator"}]},"count":1},{"code":{"coding":[{"system":"http://terminology.hl7.org/CodeSystem/measure-population","code":"denominator-exception","display":"Denominator Exception"}]},"count":0}]}]},"request":{"method":"PUT","url":"MeasureReport/605c494b-274a-48e8-a8b4-4fe3f674807a"}}]}