{"resourceType":"Bundle","id":"tests-33916bff-bda5-40da-bb6f-6d5abcfb5ca1-bundle","type":"transaction","entry":[{"fullUrl":"https://madie.cms.gov/Patient/33916bff-bda5-40da-bb6f-6d5abcfb5ca1","resource":{"resourceType":"Patient","id":"33916bff-bda5-40da-bb6f-6d5abcfb5ca1","meta":{"profile":["http://hl7.org/fhir/us/qicore/StructureDefinition/qicore-patient"]},"extension":[{"url":"http://hl7.org/fhir/us/core/StructureDefinition/us-core-race","extension":[{"url":"ombCategory","valueCoding":{"system":"urn:oid:2.16.840.1.113883.6.238","code":"1002-5","display":"American Indian or Alaska Native","userSelected":true}},{"url":"text","valueString":"American Indian or Alaska Native"}]},{"url":"http://hl7.org/fhir/us/core/StructureDefinition/us-core-ethnicity","extension":[{"url":"ombCategory","valueCoding":{"system":"urn:oid:2.16.840.1.113883.6.238","code":"2135-2","display":"Hispanic or Latino","userSelected":true}},{"url":"text","valueString":"Hispanic or Latino"}]}],"identifier":[{"type":{"coding":[{"system":"http://terminology.hl7.org/CodeSystem/v2-0203","code":"MR"}]},"system":"https://bonnie-fhir.healthit.gov/","value":"6298e96c5c5f0f80c3806878"}],"name":[{"family":"DENOMPass","given":["TxAndStagingAndPSALowGleasonLow"]}],"gender":"male","birthDate":"1979-12-31"},"request":{"method":"PUT","url":"Patient/33916bff-bda5-40da-bb6f-6d5abcfb5ca1"}},{"fullUrl":"https://madie.cms.gov/Condition/prostate-cancer-a8d8","resource":{"resourceType":"Condition","id":"13dfdc2d-4a8e-4fc9-bf29-aca3661d2392","meta":{"profile":["http://hl7.org/fhir/us/qicore/StructureDefinition/qicore-condition"]},"clinicalStatus":{"coding":[{"system":"http://terminology.hl7.org/CodeSystem/condition-clinical","code":"active","display":"active","userSelected":true}]},"category":[{"coding":[{"system":"http://terminology.hl7.org/CodeSystem/condition-category","code":"problem-list-item","display":"Problem List Item"},{"system":"http://snomed.info/sct","code":"439401001","display":"Diagnosis"}]}],"code":{"coding":[{"system":"http://snomed.info/sct","version":"2022-03","code":"254900004","display":"Carcinoma of prostate (disorder)","userSelected":true}]},"subject":{"reference":"Patient/33916bff-bda5-40da-bb6f-6d5abcfb5ca1"},"onsetPeriod":{"start":"2007-06-14T08:00:00.000+00:00"}},"request":{"method":"PUT","url":"Condition/13dfdc2d-4a8e-4fc9-bf29-aca3661d2392"}},{"fullUrl":"https://madie.cms.gov/Procedure/prostate-cancer-treatment-a8d9","resource":{"resourceType":"Procedure","id":"d767eb6a-5091-41d4-81eb-7eb2dd3a830f","meta":{"profile":["http://hl7.org/fhir/us/qicore/StructureDefinition/qicore-procedure"]},"extension":[{"url":"http://hl7.org/fhir/us/qicore/StructureDefinition/qicore-recorded","valueDateTime":"2025-02-01T09:00:00.000+00:00"}],"status":"completed","code":{"coding":[{"system":"http://snomed.info/sct","version":"2022-03","code":"10492003","display":"Radionuclide therapy for glandular suppression (procedure)","userSelected":true}]},"subject":{"reference":"Patient/33916bff-bda5-40da-bb6f-6d5abcfb5ca1"},"performedDateTime":"2025-04-28T08:00:00.000+00:00"},"request":{"method":"PUT","url":"Procedure/d767eb6a-5091-41d4-81eb-7eb2dd3a830f"}},{"fullUrl":"https://madie.cms.gov/Observation/prostate-specific-antigen-test-a8db","resource":{"resourceType":"Observation","id":"9d6d5247-dd0b-40ac-96aa-9ca2cce56f5d","meta":{"profile":["http://hl7.org/fhir/us/qicore/StructureDefinition/qicore-observation"]},"status":"final","category":[{"coding":[{"system":"http://terminology.hl7.org/CodeSystem/observation-category","code":"procedure","display":"Procedure"}]}],"code":{"coding":[{"system":"http://loinc.org","version":"2.72","code":"10508-0","display":"Prostate specific Ag [Presence] in Tissue by Immune stain","userSelected":true}]},"subject":{"reference":"Patient/33916bff-bda5-40da-bb6f-6d5abcfb5ca1"},"effectiveDateTime":"2025-04-24T08:00:00.000+00:00","valueQuantity":{"value":8.0,"system":"http://unitsofmeasure.org","code":"ng/mL"}},"request":{"method":"PUT","url":"Observation/9d6d5247-dd0b-40ac-96aa-9ca2cce56f5d"}},{"fullUrl":"https://madie.cms.gov/Observation/gleason-score-in-specimen-qualitative-a8dc","resource":{"resourceType":"Observation","id":"cd0c6be4-2f60-43ac-aad9-ed55ec9878f5","meta":{"profile":["http://hl7.org/fhir/us/qicore/StructureDefinition/qicore-observation"]},"status":"registered","category":[{"coding":[{"system":"http://terminology.hl7.org/CodeSystem/observation-category","code":"procedure","display":"Procedure"}]}],"code":{"coding":[{"system":"http://loinc.org","code":"35266-6","display":"Gleason score in Specimen Qualitative","userSelected":true}]},"subject":{"reference":"Patient/33916bff-bda5-40da-bb6f-6d5abcfb5ca1"},"effectiveDateTime":"2025-01-02T08:00:00.000+00:00","valueInteger":5},"request":{"method":"PUT","url":"Observation/cd0c6be4-2f60-43ac-aad9-ed55ec9878f5"}},{"fullUrl":"https://madie.cms.gov/Observation/tumor-staging-tumor-staging-a8dd","resource":{"resourceType":"Observation","id":"82673d72-7aa8-4d38-a9ff-9175ef0a523e","meta":{"profile":["http://hl7.org/fhir/us/qicore/StructureDefinition/qicore-observation"]},"status":"final","category":[{"coding":[{"system":"http://terminology.hl7.org/CodeSystem/observation-category","code":"procedure","display":"Procedure"}]}],"code":{"coding":[{"system":"http://snomed.info/sct","code":"254292007","display":"Tumor staging (tumor staging)","userSelected":true}]},"subject":{"reference":"Patient/33916bff-bda5-40da-bb6f-6d5abcfb5ca1"},"effectiveDateTime":"2025-04-26T08:00:00.000+00:00","valueCodeableConcept":{"coding":[{"system":"http://snomed.info/sct","code":"433361000124104","display":"Neoplasm of prostate primary tumor staging category T2a: Involves one-half of one lobe or less (finding)","userSelected":true}]}},"request":{"method":"PUT","url":"Observation/82673d72-7aa8-4d38-a9ff-9175ef0a523e"}},{"fullUrl":"https://madie.cms.gov/Observation/bone-scan-5337","resource":{"resourceType":"Observation","id":"a0230f02-2f37-4bfa-b33f-4d7a7f2ea7b5","meta":{"profile":["http://hl7.org/fhir/us/qicore/StructureDefinition/qicore-observation"]},"status":"final","category":[{"coding":[{"system":"http://terminology.hl7.org/CodeSystem/observation-category","code":"procedure","display":"Procedure"}]}],"code":{"coding":[{"system":"http://loinc.org","version":"2.72","code":"25031-6","display":"NM Bone Views","userSelected":true}]},"subject":{"reference":"Patient/33916bff-bda5-40da-bb6f-6d5abcfb5ca1"},"effectiveDateTime":"2025-08-17T08:00:00.000+00:00","issued":"2025-08-17T08:00:00.000+00:00"},"request":{"method":"PUT","url":"Observation/a0230f02-2f37-4bfa-b33f-4d7a7f2ea7b5"}},{"fullUrl":"https://madie.cms.gov/Coverage/1","resource":{"resourceType":"Coverage","id":"9be059fb-3a49-4d2a-80b6-925937d0c784","meta":{"profile":["http://hl7.org/fhir/us/qicore/StructureDefinition/qicore-coverage"]},"status":"active","beneficiary":{"reference":"Patient/33916bff-bda5-40da-bb6f-6d5abcfb5ca1"},"payor":[{"reference":"Organization/80573fa1-cf83-4e9a-8f21-86a018689678"}]},"request":{"method":"PUT","url":"Coverage/9be059fb-3a49-4d2a-80b6-925937d0c784"}},{"fullUrl":"https://madie.cms.gov/Organization/123456","resource":{"resourceType":"Organization","id":"80573fa1-cf83-4e9a-8f21-86a018689678","meta":{"profile":["http://hl7.org/fhir/us/qicore/StructureDefinition/qicore-organization"]},"identifier":[{"use":"temp","system":"urn:oid:2.16.840.1.113883.4.4","value":"21-3259825"}],"active":true,"type":[{"coding":[{"system":"http://terminology.hl7.org/CodeSystem/organization-type","code":"pay","display":"Payer"}]}],"name":"Blue Cross Blue Shield of Texas","telecom":[{"system":"phone","value":"(+1) 972-766-6900"}],"address":[{"use":"billing","type":"postal","line":["P.O. Box 660044"],"city":"Dallas","state":"TX","postalCode":"75266-0044","country":"USA"}]},"request":{"method":"PUT","url":"Organization/80573fa1-cf83-4e9a-8f21-86a018689678"}},{"fullUrl":"https://madie.cms.gov/Practitioner/practitioner-123456","resource":{"resourceType":"Practitioner","id":"55980197-eb59-488d-bba8-b9afc78b192d","meta":{"profile":["http://hl7.org/fhir/us/qicore/StructureDefinition/qicore-practitioner"]},"identifier":[{"system":"http://hl7.org/fhir/sid/us-npi","value":"123456"}],"name":[{"family":"Evil","prefix":["Dr"]}]},"request":{"method":"PUT","url":"Practitioner/55980197-eb59-488d-bba8-b9afc78b192d"}},{"fullUrl":"https://madie.cms.gov/MeasureReport/d63c14f3-0a37-439b-b7d9-6295fa8f4927","resource":{"resourceType":"MeasureReport","id":"d63c14f3-0a37-439b-b7d9-6295fa8f4927","meta":{"profile":["http://hl7.org/fhir/us/cqfmeasures/StructureDefinition/test-case-cqfm"]},"contained":[{"resourceType":"Parameters","id":"173b4e21-7d92-4209-8883-0b5c83e20409-parameters","parameter":[{"name":"subject","valueString":"33916bff-bda5-40da-bb6f-6d5abcfb5ca1"}]}],"extension":[{"url":"http://hl7.org/fhir/us/cqfmeasures/StructureDefinition/cqfm-inputParameters","valueReference":{"reference":"#173b4e21-7d92-4209-8883-0b5c83e20409-parameters"}},{"url":"http://hl7.org/fhir/us/cqfmeasures/StructureDefinition/cqfm-testCaseDescription","valueMarkdown":"Gleason status of registered (not amended, corrected, final)"}],"modifierExtension":[{"url":"http://hl7.org/fhir/us/cqfmeasures/StructureDefinition/cqfm-isTestCase","valueBoolean":true}],"status":"complete","type":"individual","measure":"https://madie.cms.gov/Measure/ProstateCaAvoidanceBoneScanOveruseFHIR","period":{"start":"2025-01-01","end":"2025-12-31"},"group":[{"population":[{"code":{"coding":[{"system":"http://terminology.hl7.org/CodeSystem/measure-population","code":"initial-population","display":"Initial Population"}]},"count":1},{"code":{"coding":[{"system":"http://terminology.hl7.org/CodeSystem/measure-population","code":"denominator","display":"Denominator"}]},"count":0},{"code":{"coding":[{"system":"http://terminology.hl7.org/CodeSystem/measure-population","code":"numerator","display":"Numerator"}]},"count":0},{"code":{"coding":[{"system":"http://terminology.hl7.org/CodeSystem/measure-population","code":"denominator-exception","display":"Denominator Exception"}]},"count":0}]}]},"request":{"method":"PUT","url":"MeasureReport/d63c14f3-0a37-439b-b7d9-6295fa8f4927"}}]}