{"resourceType":"Bundle","id":"tests-c5bd252a-dc22-4975-8b20-9022a52d46d2-bundle","type":"transaction","entry":[{"fullUrl":"https://madie.cms.gov/Patient/c5bd252a-dc22-4975-8b20-9022a52d46d2","resource":{"resourceType":"Patient","id":"c5bd252a-dc22-4975-8b20-9022a52d46d2","meta":{"profile":["http://hl7.org/fhir/us/qicore/StructureDefinition/qicore-patient"]},"extension":[{"url":"http://hl7.org/fhir/us/core/StructureDefinition/us-core-race","extension":[{"url":"ombCategory","valueCoding":{"system":"urn:oid:2.16.840.1.113883.6.238","code":"2028-9","display":"Asian","userSelected":true}},{"url":"text","valueString":"Asian"}]},{"url":"http://hl7.org/fhir/us/core/StructureDefinition/us-core-ethnicity","extension":[{"url":"ombCategory","valueCoding":{"system":"urn:oid:2.16.840.1.113883.6.238","code":"2186-5","display":"Not Hispanic or Latino","userSelected":true}},{"url":"text","valueString":"Not Hispanic or Latino"}]}],"identifier":[{"type":{"coding":[{"system":"http://terminology.hl7.org/CodeSystem/v2-0203","code":"MR"}]},"system":"https://bonnie-fhir.healthit.gov/","value":"62fd0bb085b0356a7c28532d"}],"name":[{"family":"DenomFail","given":["FirstTxFailedMultipleTxDuringMP"]}],"gender":"male","birthDate":"1979-12-31"},"request":{"method":"PUT","url":"Patient/c5bd252a-dc22-4975-8b20-9022a52d46d2"}},{"fullUrl":"https://madie.cms.gov/Condition/prostate-cancer-a8d8","resource":{"resourceType":"Condition","id":"2e9abeb7-fca7-4851-a0b8-f9ff3540547c","meta":{"profile":["http://hl7.org/fhir/us/qicore/StructureDefinition/qicore-condition"]},"clinicalStatus":{"coding":[{"system":"http://terminology.hl7.org/CodeSystem/condition-clinical","code":"active","display":"active","userSelected":true}]},"category":[{"coding":[{"system":"http://terminology.hl7.org/CodeSystem/condition-category","code":"problem-list-item","display":"Problem List Item"},{"system":"http://snomed.info/sct","code":"439401001","display":"Diagnosis"}]}],"code":{"coding":[{"system":"http://snomed.info/sct","version":"2022-03","code":"254900004","display":"Carcinoma of prostate (disorder)","userSelected":true}]},"subject":{"reference":"Patient/c5bd252a-dc22-4975-8b20-9022a52d46d2"},"onsetPeriod":{"start":"2020-06-14T08:00:00.000+00:00"}},"request":{"method":"PUT","url":"Condition/2e9abeb7-fca7-4851-a0b8-f9ff3540547c"}},{"fullUrl":"https://madie.cms.gov/Procedure/prostate-cancer-treatment-a8d9","resource":{"resourceType":"Procedure","id":"dcf5d7aa-5afc-49fd-bf4f-484c8f53d81e","meta":{"profile":["http://hl7.org/fhir/us/qicore/StructureDefinition/qicore-procedure"]},"extension":[{"url":"http://hl7.org/fhir/us/qicore/StructureDefinition/qicore-recorded","valueDateTime":"2023-02-01T09:00:00.000+00:00"}],"status":"on-hold","code":{"coding":[{"system":"http://snomed.info/sct","version":"2022-03","code":"10492003","display":"Radionuclide therapy for glandular suppression (procedure)","userSelected":true}]},"subject":{"reference":"Patient/c5bd252a-dc22-4975-8b20-9022a52d46d2"},"performedDateTime":"2025-01-31T08:00:00.000+00:00"},"request":{"method":"PUT","url":"Procedure/dcf5d7aa-5afc-49fd-bf4f-484c8f53d81e"}},{"fullUrl":"https://madie.cms.gov/Procedure/prostate-cancer-treatment-a8d10","resource":{"resourceType":"Procedure","id":"0dc45062-8830-4702-859c-5bee7bb1122e","meta":{"profile":["http://hl7.org/fhir/us/qicore/StructureDefinition/qicore-procedure"]},"extension":[{"url":"http://hl7.org/fhir/us/qicore/StructureDefinition/qicore-recorded","valueDateTime":"2023-02-01T09:00:00.000+00:00"}],"status":"completed","code":{"coding":[{"system":"http://snomed.info/sct","version":"2022-03","code":"10492003","display":"Radionuclide therapy for glandular suppression (procedure)","userSelected":true}]},"subject":{"reference":"Patient/c5bd252a-dc22-4975-8b20-9022a52d46d2"},"performedDateTime":"2025-03-31T08:00:00.000+00:00"},"request":{"method":"PUT","url":"Procedure/0dc45062-8830-4702-859c-5bee7bb1122e"}},{"fullUrl":"https://madie.cms.gov/Procedure/prostate-cancer-treatment-a8d11","resource":{"resourceType":"Procedure","id":"c3368d25-2412-413f-bfe0-b5c734b6c453","meta":{"profile":["http://hl7.org/fhir/us/qicore/StructureDefinition/qicore-procedure"]},"extension":[{"url":"http://hl7.org/fhir/us/qicore/StructureDefinition/qicore-recorded","valueDateTime":"2023-02-01T09:00:00.000+00:00"}],"status":"completed","code":{"coding":[{"system":"http://snomed.info/sct","version":"2022-03","code":"10492003","display":"Radionuclide therapy for glandular suppression (procedure)","userSelected":true}]},"subject":{"reference":"Patient/c5bd252a-dc22-4975-8b20-9022a52d46d2"},"performedDateTime":"2025-12-31T08:00:00.000+00:00"},"request":{"method":"PUT","url":"Procedure/c3368d25-2412-413f-bfe0-b5c734b6c453"}},{"fullUrl":"https://madie.cms.gov/Observation/prostate-specific-antigen-test-a8da","resource":{"resourceType":"Observation","id":"b4dcc0f1-25d6-48e6-8b3e-ba86a952ad32","meta":{"profile":["http://hl7.org/fhir/us/qicore/StructureDefinition/qicore-observation"]},"status":"final","category":[{"coding":[{"system":"http://terminology.hl7.org/CodeSystem/observation-category","code":"procedure","display":"Procedure"}]}],"code":{"coding":[{"system":"http://loinc.org","version":"2.72","code":"10508-0","display":"Prostate specific Ag [Presence] in Tissue by Immune stain","userSelected":true}]},"subject":{"reference":"Patient/c5bd252a-dc22-4975-8b20-9022a52d46d2"},"issued":"2025-04-22T08:00:00.000+00:00","valueQuantity":{"value":11.0,"system":"http://unitsofmeasure.org","code":"ng/mL"}},"request":{"method":"PUT","url":"Observation/b4dcc0f1-25d6-48e6-8b3e-ba86a952ad32"}},{"fullUrl":"https://madie.cms.gov/Observation/gleason-score-in-specimen-qualitative-a8dc","resource":{"resourceType":"Observation","id":"77343871-6171-4f18-aa26-83622ca7846b","meta":{"profile":["http://hl7.org/fhir/us/qicore/StructureDefinition/qicore-observation"]},"status":"final","category":[{"coding":[{"system":"http://terminology.hl7.org/CodeSystem/observation-category","code":"procedure","display":"Procedure"}]}],"code":{"coding":[{"system":"http://loinc.org","code":"35266-6","display":"Gleason score in Specimen Qualitative","userSelected":true}]},"subject":{"reference":"Patient/c5bd252a-dc22-4975-8b20-9022a52d46d2"},"effectiveDateTime":"2025-01-02T08:00:00.000+00:00","valueInteger":5},"request":{"method":"PUT","url":"Observation/77343871-6171-4f18-aa26-83622ca7846b"}},{"fullUrl":"https://madie.cms.gov/Observation/tumor-staging-tumor-staging-a8dd","resource":{"resourceType":"Observation","id":"e4473adb-7642-48b3-8114-8b2d3d5fa30c","meta":{"profile":["http://hl7.org/fhir/us/qicore/StructureDefinition/qicore-observation"]},"status":"final","category":[{"coding":[{"system":"http://terminology.hl7.org/CodeSystem/observation-category","code":"procedure","display":"Procedure"}]}],"code":{"coding":[{"system":"http://snomed.info/sct","code":"254292007","display":"Tumor staging (tumor staging)","userSelected":true}]},"subject":{"reference":"Patient/c5bd252a-dc22-4975-8b20-9022a52d46d2"},"effectiveDateTime":"2025-04-26T08:00:00.000+00:00","valueCodeableConcept":{"coding":[{"system":"http://snomed.info/sct","code":"433361000124104","display":"Neoplasm of prostate primary tumor staging category T2a: Involves one-half of one lobe or less (finding)","userSelected":true}]}},"request":{"method":"PUT","url":"Observation/e4473adb-7642-48b3-8114-8b2d3d5fa30c"}},{"fullUrl":"https://madie.cms.gov/Coverage/1","resource":{"resourceType":"Coverage","id":"d4a6a0bd-c559-4e80-ae2f-9678c913159f","meta":{"profile":["http://hl7.org/fhir/us/qicore/StructureDefinition/qicore-coverage"]},"status":"active","beneficiary":{"reference":"Patient/c5bd252a-dc22-4975-8b20-9022a52d46d2"},"payor":[{"reference":"Organization/33ead57e-5e04-40e4-95ea-bc3cdbd58917"}]},"request":{"method":"PUT","url":"Coverage/d4a6a0bd-c559-4e80-ae2f-9678c913159f"}},{"fullUrl":"https://madie.cms.gov/Organization/123456","resource":{"resourceType":"Organization","id":"33ead57e-5e04-40e4-95ea-bc3cdbd58917","meta":{"profile":["http://hl7.org/fhir/us/qicore/StructureDefinition/qicore-organization"]},"identifier":[{"use":"temp","system":"urn:oid:2.16.840.1.113883.4.4","value":"21-3259825"}],"active":true,"type":[{"coding":[{"system":"http://terminology.hl7.org/CodeSystem/organization-type","code":"pay","display":"Payer"}]}],"name":"Blue Cross Blue Shield of Texas","telecom":[{"system":"phone","value":"(+1) 972-766-6900"}],"address":[{"use":"billing","type":"postal","line":["P.O. Box 660044"],"city":"Dallas","state":"TX","postalCode":"75266-0044","country":"USA"}]},"request":{"method":"PUT","url":"Organization/33ead57e-5e04-40e4-95ea-bc3cdbd58917"}},{"fullUrl":"https://madie.cms.gov/Practitioner/practitioner-123456","resource":{"resourceType":"Practitioner","id":"3d298864-e6a0-4355-80d9-aabd6e36e076","meta":{"profile":["http://hl7.org/fhir/us/qicore/StructureDefinition/qicore-practitioner"]},"identifier":[{"system":"http://hl7.org/fhir/sid/us-npi","value":"123456"}],"name":[{"family":"Evil","prefix":["Dr"]}]},"request":{"method":"PUT","url":"Practitioner/3d298864-e6a0-4355-80d9-aabd6e36e076"}},{"fullUrl":"https://madie.cms.gov/MeasureReport/7dc1daa2-ea3d-45f6-b056-924de4d46b7d","resource":{"resourceType":"MeasureReport","id":"7dc1daa2-ea3d-45f6-b056-924de4d46b7d","meta":{"profile":["http://hl7.org/fhir/us/cqfmeasures/StructureDefinition/test-case-cqfm"]},"contained":[{"resourceType":"Parameters","id":"263e27db-0810-4d51-a258-2c45391fef40-parameters","parameter":[{"name":"subject","valueString":"c5bd252a-dc22-4975-8b20-9022a52d46d2"}]}],"extension":[{"url":"http://hl7.org/fhir/us/cqfmeasures/StructureDefinition/cqfm-inputParameters","valueReference":{"reference":"#263e27db-0810-4d51-a258-2c45391fef40-parameters"}},{"url":"http://hl7.org/fhir/us/cqfmeasures/StructureDefinition/cqfm-testCaseDescription","valueMarkdown":"Multiple treatments in MP.  1st of 3 treatments on hold (not completed).  "}],"modifierExtension":[{"url":"http://hl7.org/fhir/us/cqfmeasures/StructureDefinition/cqfm-isTestCase","valueBoolean":true}],"status":"complete","type":"individual","measure":"https://madie.cms.gov/Measure/ProstateCaAvoidanceBoneScanOveruseFHIR","period":{"start":"2025-01-01","end":"2025-12-31"},"group":[{"population":[{"code":{"coding":[{"system":"http://terminology.hl7.org/CodeSystem/measure-population","code":"initial-population","display":"Initial Population"}]},"count":1},{"code":{"coding":[{"system":"http://terminology.hl7.org/CodeSystem/measure-population","code":"denominator","display":"Denominator"}]},"count":0},{"code":{"coding":[{"system":"http://terminology.hl7.org/CodeSystem/measure-population","code":"numerator","display":"Numerator"}]},"count":0},{"code":{"coding":[{"system":"http://terminology.hl7.org/CodeSystem/measure-population","code":"denominator-exception","display":"Denominator Exception"}]},"count":0}]}]},"request":{"method":"PUT","url":"MeasureReport/7dc1daa2-ea3d-45f6-b056-924de4d46b7d"}}]}