{"resourceType":"Bundle","id":"tests-7724a8d7-1e94-4acf-a435-7910e2c36555-bundle","type":"transaction","entry":[{"fullUrl":"https://madie.cms.gov/Patient/7724a8d7-1e94-4acf-a435-7910e2c36555","resource":{"resourceType":"Patient","id":"7724a8d7-1e94-4acf-a435-7910e2c36555","meta":{"profile":["http://hl7.org/fhir/us/qicore/StructureDefinition/qicore-patient"]},"extension":[{"url":"http://hl7.org/fhir/us/core/StructureDefinition/us-core-race","extension":[{"url":"ombCategory","valueCoding":{"system":"urn:oid:2.16.840.1.113883.6.238","code":"1002-5","display":"American Indian or Alaska Native","userSelected":true}},{"url":"text","valueString":"American Indian or Alaska Native"}]},{"url":"http://hl7.org/fhir/us/core/StructureDefinition/us-core-ethnicity","extension":[{"url":"ombCategory","valueCoding":{"system":"urn:oid:2.16.840.1.113883.6.238","code":"2135-2","display":"Hispanic or Latino","userSelected":true}},{"url":"text","valueString":"Hispanic or Latino"}]}],"identifier":[{"type":{"coding":[{"system":"http://terminology.hl7.org/CodeSystem/v2-0203","code":"MR"}]},"system":"https://bonnie-fhir.healthit.gov/","value":"62fd29d432e2f917c3627d83"}],"name":[{"family":"DENOMPass","given":["PSALessThan10BeforeTreatment"]}],"gender":"male","birthDate":"1979-12-31"},"request":{"method":"PUT","url":"Patient/7724a8d7-1e94-4acf-a435-7910e2c36555"}},{"fullUrl":"https://madie.cms.gov/Condition/prostate-cancer-a8d8","resource":{"resourceType":"Condition","id":"5084e56a-e6c8-4d13-84a0-6f4d88ee4913","meta":{"profile":["http://hl7.org/fhir/us/qicore/StructureDefinition/qicore-condition"]},"clinicalStatus":{"coding":[{"system":"http://terminology.hl7.org/CodeSystem/condition-clinical","code":"active","display":"active","userSelected":true}]},"category":[{"coding":[{"system":"http://terminology.hl7.org/CodeSystem/condition-category","code":"problem-list-item","display":"Problem List Item"},{"system":"http://snomed.info/sct","code":"439401001","display":"Diagnosis"}]}],"code":{"coding":[{"system":"http://snomed.info/sct","version":"2022-03","code":"254900004","display":"Carcinoma of prostate (disorder)","userSelected":true}]},"subject":{"reference":"Patient/7724a8d7-1e94-4acf-a435-7910e2c36555"},"onsetPeriod":{"start":"2020-06-14T08:00:00.000+00:00"}},"request":{"method":"PUT","url":"Condition/5084e56a-e6c8-4d13-84a0-6f4d88ee4913"}},{"fullUrl":"https://madie.cms.gov/Procedure/prostate-cancer-treatment-a8d9","resource":{"resourceType":"Procedure","id":"42afcf50-960f-4576-90d8-cdc6694b9b39","meta":{"profile":["http://hl7.org/fhir/us/qicore/StructureDefinition/qicore-procedure"]},"extension":[{"url":"http://hl7.org/fhir/us/qicore/StructureDefinition/qicore-recorded","valueDateTime":"2025-02-01T09:00:00.000+00:00"}],"status":"completed","code":{"coding":[{"system":"http://snomed.info/sct","version":"2022-03","code":"10492003","display":"Radionuclide therapy for glandular suppression (procedure)","userSelected":true}]},"subject":{"reference":"Patient/7724a8d7-1e94-4acf-a435-7910e2c36555"},"performedDateTime":"2025-04-28T08:00:00.000+00:00"},"request":{"method":"PUT","url":"Procedure/42afcf50-960f-4576-90d8-cdc6694b9b39"}},{"fullUrl":"https://madie.cms.gov/Observation/prostate-specific-antigen-test-a8db","resource":{"resourceType":"Observation","id":"f8cfe5a4-9492-4ab0-8954-0ea2c7f0bfaf","meta":{"profile":["http://hl7.org/fhir/us/qicore/StructureDefinition/qicore-observation"]},"status":"final","category":[{"coding":[{"system":"http://terminology.hl7.org/CodeSystem/observation-category","code":"procedure","display":"Procedure"}]}],"code":{"coding":[{"system":"http://loinc.org","version":"2.72","code":"2857-1","display":"Prostate specific Ag [Mass/volume] in Serum or Plasma","userSelected":true}]},"subject":{"reference":"Patient/7724a8d7-1e94-4acf-a435-7910e2c36555"},"effectiveDateTime":"2025-04-24T08:00:00.000+00:00","valueQuantity":{"value":9.9,"system":"http://unitsofmeasure.org","code":"ng/mL"}},"request":{"method":"PUT","url":"Observation/f8cfe5a4-9492-4ab0-8954-0ea2c7f0bfaf"}},{"fullUrl":"https://madie.cms.gov/Observation/gleason-score-in-specimen-qualitative-a8dc","resource":{"resourceType":"Observation","id":"e97ceeac-8899-4f6c-ae7c-bc5be4f141ae","meta":{"profile":["http://hl7.org/fhir/us/qicore/StructureDefinition/qicore-observation"]},"status":"final","category":[{"coding":[{"system":"http://terminology.hl7.org/CodeSystem/observation-category","code":"procedure","display":"Procedure"}]}],"code":{"coding":[{"system":"http://loinc.org","code":"35266-6","display":"Gleason score in Specimen Qualitative","userSelected":true}]},"subject":{"reference":"Patient/7724a8d7-1e94-4acf-a435-7910e2c36555"},"effectiveDateTime":"2025-01-02T08:00:00.000+00:00","valueInteger":5},"request":{"method":"PUT","url":"Observation/e97ceeac-8899-4f6c-ae7c-bc5be4f141ae"}},{"fullUrl":"https://madie.cms.gov/Observation/tumor-staging-tumor-staging-a8dd","resource":{"resourceType":"Observation","id":"4f63787d-aaa8-455c-8d62-4b85805ace30","meta":{"profile":["http://hl7.org/fhir/us/qicore/StructureDefinition/qicore-observation"]},"status":"final","category":[{"coding":[{"system":"http://terminology.hl7.org/CodeSystem/observation-category","code":"procedure","display":"Procedure"}]}],"code":{"coding":[{"system":"http://snomed.info/sct","code":"254292007","display":"Tumor staging (tumor staging)","userSelected":true}]},"subject":{"reference":"Patient/7724a8d7-1e94-4acf-a435-7910e2c36555"},"effectiveDateTime":"2025-04-26T08:00:00.000+00:00","valueCodeableConcept":{"coding":[{"system":"http://snomed.info/sct","code":"433361000124104","display":"Neoplasm of prostate primary tumor staging category T2a: Involves one-half of one lobe or less (finding)","userSelected":true}]}},"request":{"method":"PUT","url":"Observation/4f63787d-aaa8-455c-8d62-4b85805ace30"}},{"fullUrl":"https://madie.cms.gov/Observation/bone-scan-5337","resource":{"resourceType":"Observation","id":"46240744-e28d-4524-b36c-cbb6240b9e1d","meta":{"profile":["http://hl7.org/fhir/us/qicore/StructureDefinition/qicore-observation"]},"status":"final","category":[{"coding":[{"system":"http://terminology.hl7.org/CodeSystem/observation-category","code":"procedure","display":"Procedure"}]}],"code":{"coding":[{"system":"http://loinc.org","version":"2.72","code":"25031-6","display":"NM Bone Views","userSelected":true}]},"subject":{"reference":"Patient/7724a8d7-1e94-4acf-a435-7910e2c36555"},"effectiveDateTime":"2025-08-17T08:00:00.000+00:00","issued":"2025-08-17T08:00:00.000+00:00"},"request":{"method":"PUT","url":"Observation/46240744-e28d-4524-b36c-cbb6240b9e1d"}},{"fullUrl":"https://madie.cms.gov/Observation/prostate-specific-antigen-test-7d84","resource":{"resourceType":"Observation","id":"9375948e-4edc-45f9-863e-2acdbc1a58b9","meta":{"profile":["http://hl7.org/fhir/us/qicore/StructureDefinition/qicore-observation"]},"status":"final","category":[{"coding":[{"system":"http://terminology.hl7.org/CodeSystem/observation-category","code":"procedure","display":"Procedure"}]}],"code":{"coding":[{"system":"http://loinc.org","version":"2.72","code":"10508-0","display":"Prostate specific Ag [Presence] in Tissue by Immune stain","userSelected":true}]},"subject":{"reference":"Patient/7724a8d7-1e94-4acf-a435-7910e2c36555"},"effectiveDateTime":"2023-12-31T08:00:00.000+00:00","valueQuantity":{"value":15.0,"system":"http://unitsofmeasure.org","code":"ng/mL"}},"request":{"method":"PUT","url":"Observation/9375948e-4edc-45f9-863e-2acdbc1a58b9"}},{"fullUrl":"https://madie.cms.gov/Observation/prostate-specific-antigen-test-7d85","resource":{"resourceType":"Observation","id":"4263df3d-8a08-48c1-861a-fabd9de37e08","meta":{"profile":["http://hl7.org/fhir/us/qicore/StructureDefinition/qicore-observation"]},"status":"final","category":[{"coding":[{"system":"http://terminology.hl7.org/CodeSystem/observation-category","code":"procedure","display":"Procedure"}]}],"code":{"coding":[{"system":"http://loinc.org","version":"2.72","code":"10508-0","display":"Prostate specific Ag [Presence] in Tissue by Immune stain","userSelected":true}]},"subject":{"reference":"Patient/7724a8d7-1e94-4acf-a435-7910e2c36555"},"effectiveDateTime":"2025-08-17T08:00:00.000+00:00","valueQuantity":{"value":12.0,"system":"http://unitsofmeasure.org","code":"ng/mL"}},"request":{"method":"PUT","url":"Observation/4263df3d-8a08-48c1-861a-fabd9de37e08"}},{"fullUrl":"https://madie.cms.gov/Coverage/1","resource":{"resourceType":"Coverage","id":"8ee689e9-54de-4479-8938-2c69d62ffdfc","meta":{"profile":["http://hl7.org/fhir/us/qicore/StructureDefinition/qicore-coverage"]},"status":"active","beneficiary":{"reference":"Patient/7724a8d7-1e94-4acf-a435-7910e2c36555"},"payor":[{"reference":"Organization/806b0255-13cb-4f2b-9412-571554dd2169"}]},"request":{"method":"PUT","url":"Coverage/8ee689e9-54de-4479-8938-2c69d62ffdfc"}},{"fullUrl":"https://madie.cms.gov/Organization/123456","resource":{"resourceType":"Organization","id":"806b0255-13cb-4f2b-9412-571554dd2169","meta":{"profile":["http://hl7.org/fhir/us/qicore/StructureDefinition/qicore-organization"]},"identifier":[{"use":"temp","system":"urn:oid:2.16.840.1.113883.4.4","value":"21-3259825"}],"active":true,"type":[{"coding":[{"system":"http://terminology.hl7.org/CodeSystem/organization-type","code":"pay","display":"Payer"}]}],"name":"Blue Cross Blue Shield of Texas","telecom":[{"system":"phone","value":"(+1) 972-766-6900"}],"address":[{"use":"billing","type":"postal","line":["P.O. Box 660044"],"city":"Dallas","state":"TX","postalCode":"75266-0044","country":"USA"}]},"request":{"method":"PUT","url":"Organization/806b0255-13cb-4f2b-9412-571554dd2169"}},{"fullUrl":"https://madie.cms.gov/Practitioner/practitioner-123456","resource":{"resourceType":"Practitioner","id":"97106423-84c1-403b-a2ea-a5473e00ab7a","meta":{"profile":["http://hl7.org/fhir/us/qicore/StructureDefinition/qicore-practitioner"]},"identifier":[{"system":"http://hl7.org/fhir/sid/us-npi","value":"123456"}],"name":[{"family":"Evil","prefix":["Dr"]}]},"request":{"method":"PUT","url":"Practitioner/97106423-84c1-403b-a2ea-a5473e00ab7a"}},{"fullUrl":"https://madie.cms.gov/MeasureReport/b31b2269-fa22-425d-a66d-57b0ff56ee6b","resource":{"resourceType":"MeasureReport","id":"b31b2269-fa22-425d-a66d-57b0ff56ee6b","meta":{"profile":["http://hl7.org/fhir/us/cqfmeasures/StructureDefinition/test-case-cqfm"]},"contained":[{"resourceType":"Parameters","id":"793815e2-56a3-4791-b6c9-cdbdddd5c432-parameters","parameter":[{"name":"subject","valueString":"7724a8d7-1e94-4acf-a435-7910e2c36555"}]}],"extension":[{"url":"http://hl7.org/fhir/us/cqfmeasures/StructureDefinition/cqfm-inputParameters","valueReference":{"reference":"#793815e2-56a3-4791-b6c9-cdbdddd5c432-parameters"}},{"url":"http://hl7.org/fhir/us/cqfmeasures/StructureDefinition/cqfm-testCaseDescription","valueMarkdown":"Active Prostate Ca Diagnosis and meets all other denominator criteria (first treatment, tumor staging, PSA test, Gleason). Testing multiple PSA results with most recent  before treatment less than 10.\n"}],"modifierExtension":[{"url":"http://hl7.org/fhir/us/cqfmeasures/StructureDefinition/cqfm-isTestCase","valueBoolean":true}],"status":"complete","type":"individual","measure":"https://madie.cms.gov/Measure/ProstateCaAvoidanceBoneScanOveruseFHIR","period":{"start":"2025-01-01","end":"2025-12-31"},"group":[{"population":[{"code":{"coding":[{"system":"http://terminology.hl7.org/CodeSystem/measure-population","code":"initial-population","display":"Initial Population"}]},"count":1},{"code":{"coding":[{"system":"http://terminology.hl7.org/CodeSystem/measure-population","code":"denominator","display":"Denominator"}]},"count":1},{"code":{"coding":[{"system":"http://terminology.hl7.org/CodeSystem/measure-population","code":"numerator","display":"Numerator"}]},"count":0},{"code":{"coding":[{"system":"http://terminology.hl7.org/CodeSystem/measure-population","code":"denominator-exception","display":"Denominator Exception"}]},"count":0}]}]},"request":{"method":"PUT","url":"MeasureReport/b31b2269-fa22-425d-a66d-57b0ff56ee6b"}}]}