{"resourceType":"Bundle","id":"tests-7724a8d7-1e94-4acf-a435-7910e2c36555-bundle","type":"transaction","entry":[{"fullUrl":"https://madie.cms.gov/Patient/7724a8d7-1e94-4acf-a435-7910e2c36555","resource":{"resourceType":"Patient","id":"7724a8d7-1e94-4acf-a435-7910e2c36555","meta":{"profile":["http://hl7.org/fhir/us/qicore/StructureDefinition/qicore-patient"]},"extension":[{"url":"http://hl7.org/fhir/us/core/StructureDefinition/us-core-race","extension":[{"url":"ombCategory","valueCoding":{"system":"urn:oid:2.16.840.1.113883.6.238","code":"1002-5","display":"American Indian or Alaska Native","userSelected":true}},{"url":"text","valueString":"American Indian or Alaska Native"}]},{"url":"http://hl7.org/fhir/us/core/StructureDefinition/us-core-ethnicity","extension":[{"url":"ombCategory","valueCoding":{"system":"urn:oid:2.16.840.1.113883.6.238","code":"2135-2","display":"Hispanic or Latino","userSelected":true}},{"url":"text","valueString":"Hispanic or Latino"}]}],"identifier":[{"type":{"coding":[{"system":"http://terminology.hl7.org/CodeSystem/v2-0203","code":"MR"}]},"system":"https://bonnie-fhir.healthit.gov/","value":"62fd29d432e2f917c3627d83"}],"name":[{"family":"DENOMPass","given":["PSALessThan10BeforeTreatment"]}],"gender":"male","birthDate":"1979-12-31"},"request":{"method":"PUT","url":"Patient/7724a8d7-1e94-4acf-a435-7910e2c36555"}},{"fullUrl":"https://madie.cms.gov/Condition/prostate-cancer-a8d8","resource":{"resourceType":"Condition","id":"004f3567-f726-4d70-a858-722607d4f5a7","meta":{"profile":["http://hl7.org/fhir/us/qicore/StructureDefinition/qicore-condition"]},"clinicalStatus":{"coding":[{"system":"http://terminology.hl7.org/CodeSystem/condition-clinical","code":"active","display":"active","userSelected":true}]},"category":[{"coding":[{"system":"http://terminology.hl7.org/CodeSystem/condition-category","code":"problem-list-item","display":"Problem List Item"},{"system":"http://snomed.info/sct","code":"439401001","display":"Diagnosis"}]}],"code":{"coding":[{"system":"http://snomed.info/sct","version":"2022-03","code":"254900004","display":"Carcinoma of prostate (disorder)","userSelected":true}]},"subject":{"reference":"Patient/7724a8d7-1e94-4acf-a435-7910e2c36555"},"onsetPeriod":{"start":"2020-06-14T08:00:00.000+00:00"}},"request":{"method":"PUT","url":"Condition/004f3567-f726-4d70-a858-722607d4f5a7"}},{"fullUrl":"https://madie.cms.gov/Procedure/prostate-cancer-treatment-a8d9","resource":{"resourceType":"Procedure","id":"c14c1f24-2ff1-453a-9e45-ccf668ebd2fb","meta":{"profile":["http://hl7.org/fhir/us/qicore/StructureDefinition/qicore-procedure"]},"extension":[{"url":"http://hl7.org/fhir/us/qicore/StructureDefinition/qicore-recorded","valueDateTime":"2025-02-01T09:00:00.000+00:00"}],"status":"completed","code":{"coding":[{"system":"http://snomed.info/sct","version":"2022-03","code":"10492003","display":"Radionuclide therapy for glandular suppression (procedure)","userSelected":true}]},"subject":{"reference":"Patient/7724a8d7-1e94-4acf-a435-7910e2c36555"},"performedDateTime":"2025-04-28T08:00:00.000+00:00"},"request":{"method":"PUT","url":"Procedure/c14c1f24-2ff1-453a-9e45-ccf668ebd2fb"}},{"fullUrl":"https://madie.cms.gov/Observation/prostate-specific-antigen-test-a8db","resource":{"resourceType":"Observation","id":"2d58d520-2adf-4450-8a9c-e609a5e7e303","meta":{"profile":["http://hl7.org/fhir/us/qicore/StructureDefinition/qicore-observation"]},"status":"final","category":[{"coding":[{"system":"http://terminology.hl7.org/CodeSystem/observation-category","code":"procedure","display":"Procedure"}]}],"code":{"coding":[{"system":"http://loinc.org","version":"2.72","code":"2857-1","display":"Prostate specific Ag [Mass/volume] in Serum or Plasma","userSelected":true}]},"subject":{"reference":"Patient/7724a8d7-1e94-4acf-a435-7910e2c36555"},"effectiveDateTime":"2025-04-24T08:00:00.000+00:00","valueQuantity":{"value":9.9,"system":"http://unitsofmeasure.org","code":"ng/mL"}},"request":{"method":"PUT","url":"Observation/2d58d520-2adf-4450-8a9c-e609a5e7e303"}},{"fullUrl":"https://madie.cms.gov/Observation/gleason-score-in-specimen-qualitative-a8dc","resource":{"resourceType":"Observation","id":"5296598b-d688-47c6-a795-2a424243a0ce","meta":{"profile":["http://hl7.org/fhir/us/qicore/StructureDefinition/qicore-observation"]},"status":"final","category":[{"coding":[{"system":"http://terminology.hl7.org/CodeSystem/observation-category","code":"procedure","display":"Procedure"}]}],"code":{"coding":[{"system":"http://loinc.org","code":"35266-6","display":"Gleason score in Specimen Qualitative","userSelected":true}]},"subject":{"reference":"Patient/7724a8d7-1e94-4acf-a435-7910e2c36555"},"effectiveDateTime":"2025-01-02T08:00:00.000+00:00","valueInteger":5},"request":{"method":"PUT","url":"Observation/5296598b-d688-47c6-a795-2a424243a0ce"}},{"fullUrl":"https://madie.cms.gov/Observation/tumor-staging-tumor-staging-a8dd","resource":{"resourceType":"Observation","id":"0e6f347a-eb80-4533-b6d7-3c0c26dd35ea","meta":{"profile":["http://hl7.org/fhir/us/qicore/StructureDefinition/qicore-observation"]},"status":"final","category":[{"coding":[{"system":"http://terminology.hl7.org/CodeSystem/observation-category","code":"procedure","display":"Procedure"}]}],"code":{"coding":[{"system":"http://snomed.info/sct","code":"254292007","display":"Tumor staging (tumor staging)","userSelected":true}]},"subject":{"reference":"Patient/7724a8d7-1e94-4acf-a435-7910e2c36555"},"effectiveDateTime":"2025-04-26T08:00:00.000+00:00","valueCodeableConcept":{"coding":[{"system":"http://snomed.info/sct","code":"433361000124104","display":"Neoplasm of prostate primary tumor staging category T2a: Involves one-half of one lobe or less (finding)","userSelected":true}]}},"request":{"method":"PUT","url":"Observation/0e6f347a-eb80-4533-b6d7-3c0c26dd35ea"}},{"fullUrl":"https://madie.cms.gov/Observation/bone-scan-5337","resource":{"resourceType":"Observation","id":"2d723bb5-c44c-45f4-93ea-7956463b5028","meta":{"profile":["http://hl7.org/fhir/us/qicore/StructureDefinition/qicore-observation"]},"status":"final","category":[{"coding":[{"system":"http://terminology.hl7.org/CodeSystem/observation-category","code":"procedure","display":"Procedure"}]}],"code":{"coding":[{"system":"http://loinc.org","version":"2.72","code":"25031-6","display":"NM Bone Views","userSelected":true}]},"subject":{"reference":"Patient/7724a8d7-1e94-4acf-a435-7910e2c36555"},"effectiveDateTime":"2025-08-17T08:00:00.000+00:00","issued":"2025-08-17T08:00:00.000+00:00"},"request":{"method":"PUT","url":"Observation/2d723bb5-c44c-45f4-93ea-7956463b5028"}},{"fullUrl":"https://madie.cms.gov/Observation/prostate-specific-antigen-test-7d84","resource":{"resourceType":"Observation","id":"e51d7c20-7817-45e9-b935-6f4aeeeb91be","meta":{"profile":["http://hl7.org/fhir/us/qicore/StructureDefinition/qicore-observation"]},"status":"final","category":[{"coding":[{"system":"http://terminology.hl7.org/CodeSystem/observation-category","code":"procedure","display":"Procedure"}]}],"code":{"coding":[{"system":"http://loinc.org","version":"2.72","code":"10508-0","display":"Prostate specific Ag [Presence] in Tissue by Immune stain","userSelected":true}]},"subject":{"reference":"Patient/7724a8d7-1e94-4acf-a435-7910e2c36555"},"effectiveDateTime":"2023-12-31T08:00:00.000+00:00","valueQuantity":{"value":15.0,"system":"http://unitsofmeasure.org","code":"ng/mL"}},"request":{"method":"PUT","url":"Observation/e51d7c20-7817-45e9-b935-6f4aeeeb91be"}},{"fullUrl":"https://madie.cms.gov/Observation/prostate-specific-antigen-test-7d85","resource":{"resourceType":"Observation","id":"f443634e-613e-4013-9b43-6692c6910ad9","meta":{"profile":["http://hl7.org/fhir/us/qicore/StructureDefinition/qicore-observation"]},"status":"final","category":[{"coding":[{"system":"http://terminology.hl7.org/CodeSystem/observation-category","code":"procedure","display":"Procedure"}]}],"code":{"coding":[{"system":"http://loinc.org","version":"2.72","code":"10508-0","display":"Prostate specific Ag [Presence] in Tissue by Immune stain","userSelected":true}]},"subject":{"reference":"Patient/7724a8d7-1e94-4acf-a435-7910e2c36555"},"effectiveDateTime":"2025-08-17T08:00:00.000+00:00","valueQuantity":{"value":12.0,"system":"http://unitsofmeasure.org","code":"ng/mL"}},"request":{"method":"PUT","url":"Observation/f443634e-613e-4013-9b43-6692c6910ad9"}},{"fullUrl":"https://madie.cms.gov/Coverage/1","resource":{"resourceType":"Coverage","id":"c05c096a-69ab-4c9f-af80-29d5efb0e7e0","meta":{"profile":["http://hl7.org/fhir/us/qicore/StructureDefinition/qicore-coverage"]},"status":"active","beneficiary":{"reference":"Patient/7724a8d7-1e94-4acf-a435-7910e2c36555"},"payor":[{"reference":"Organization/e75793c9-fdf6-463a-8c1d-4ee44320dc25"}]},"request":{"method":"PUT","url":"Coverage/c05c096a-69ab-4c9f-af80-29d5efb0e7e0"}},{"fullUrl":"https://madie.cms.gov/Organization/123456","resource":{"resourceType":"Organization","id":"e75793c9-fdf6-463a-8c1d-4ee44320dc25","meta":{"profile":["http://hl7.org/fhir/us/qicore/StructureDefinition/qicore-organization"]},"identifier":[{"use":"temp","system":"urn:oid:2.16.840.1.113883.4.4","value":"21-3259825"}],"active":true,"type":[{"coding":[{"system":"http://terminology.hl7.org/CodeSystem/organization-type","code":"pay","display":"Payer"}]}],"name":"Blue Cross Blue Shield of Texas","telecom":[{"system":"phone","value":"(+1) 972-766-6900"}],"address":[{"use":"billing","type":"postal","line":["P.O. Box 660044"],"city":"Dallas","state":"TX","postalCode":"75266-0044","country":"USA"}]},"request":{"method":"PUT","url":"Organization/e75793c9-fdf6-463a-8c1d-4ee44320dc25"}},{"fullUrl":"https://madie.cms.gov/Practitioner/practitioner-123456","resource":{"resourceType":"Practitioner","id":"ce92fa43-e9c9-4775-bf45-f37cfae952e9","meta":{"profile":["http://hl7.org/fhir/us/qicore/StructureDefinition/qicore-practitioner"]},"identifier":[{"system":"http://hl7.org/fhir/sid/us-npi","value":"123456"}],"name":[{"family":"Evil","prefix":["Dr"]}]},"request":{"method":"PUT","url":"Practitioner/ce92fa43-e9c9-4775-bf45-f37cfae952e9"}},{"fullUrl":"https://madie.cms.gov/MeasureReport/b31b2269-fa22-425d-a66d-57b0ff56ee6b","resource":{"resourceType":"MeasureReport","id":"b31b2269-fa22-425d-a66d-57b0ff56ee6b","meta":{"profile":["http://hl7.org/fhir/us/cqfmeasures/StructureDefinition/test-case-cqfm"]},"contained":[{"resourceType":"Parameters","id":"793815e2-56a3-4791-b6c9-cdbdddd5c432-parameters","parameter":[{"name":"subject","valueString":"7724a8d7-1e94-4acf-a435-7910e2c36555"}]}],"extension":[{"url":"http://hl7.org/fhir/us/cqfmeasures/StructureDefinition/cqfm-inputParameters","valueReference":{"reference":"#793815e2-56a3-4791-b6c9-cdbdddd5c432-parameters"}},{"url":"http://hl7.org/fhir/us/cqfmeasures/StructureDefinition/cqfm-testCaseDescription","valueMarkdown":"Active Prostate Ca Diagnosis and meets all other denominator criteria (first treatment, tumor staging, PSA test, Gleason). Testing multiple PSA results with most recent  before treatment less than 10.\n"}],"modifierExtension":[{"url":"http://hl7.org/fhir/us/cqfmeasures/StructureDefinition/cqfm-isTestCase","valueBoolean":true}],"status":"complete","type":"individual","measure":"https://madie.cms.gov/Measure/ProstateCaAvoidanceBoneScanOveruseFHIR","period":{"start":"2025-01-01","end":"2025-12-31"},"group":[{"population":[{"code":{"coding":[{"system":"http://terminology.hl7.org/CodeSystem/measure-population","code":"initial-population","display":"Initial Population"}]},"count":1},{"code":{"coding":[{"system":"http://terminology.hl7.org/CodeSystem/measure-population","code":"denominator","display":"Denominator"}]},"count":1},{"code":{"coding":[{"system":"http://terminology.hl7.org/CodeSystem/measure-population","code":"numerator","display":"Numerator"}]},"count":0},{"code":{"coding":[{"system":"http://terminology.hl7.org/CodeSystem/measure-population","code":"denominator-exception","display":"Denominator Exception"}]},"count":0}]}]},"request":{"method":"PUT","url":"MeasureReport/b31b2269-fa22-425d-a66d-57b0ff56ee6b"}}]}