{"resourceType":"Bundle","id":"tests-6853c792-add9-47b8-b246-5fa0f5b28a87-bundle","type":"transaction","entry":[{"fullUrl":"https://madie.cms.gov/Patient/6853c792-add9-47b8-b246-5fa0f5b28a87","resource":{"resourceType":"Patient","id":"6853c792-add9-47b8-b246-5fa0f5b28a87","meta":{"profile":["http://hl7.org/fhir/us/qicore/StructureDefinition/qicore-patient"]},"extension":[{"url":"http://hl7.org/fhir/us/core/StructureDefinition/us-core-race","extension":[{"url":"ombCategory","valueCoding":{"system":"urn:oid:2.16.840.1.113883.6.238","code":"2106-3","display":"White","userSelected":true}},{"url":"text","valueString":"White"}]},{"url":"http://hl7.org/fhir/us/core/StructureDefinition/us-core-ethnicity","extension":[{"url":"ombCategory","valueCoding":{"system":"urn:oid:2.16.840.1.113883.6.238","code":"2135-2","display":"Hispanic or Latino","userSelected":true}},{"url":"text","valueString":"Hispanic or Latino"}]}],"identifier":[{"type":{"coding":[{"system":"http://terminology.hl7.org/CodeSystem/v2-0203","code":"MR"}]},"system":"https://bonnie-fhir.healthit.gov/","value":"62fd2f9d32e2f917c3627d8c"}],"name":[{"family":"DENEXCEPPass","given":["SalvageTxAfterPrCaDx"]}],"gender":"male","birthDate":"1988-08-18"},"request":{"method":"PUT","url":"Patient/6853c792-add9-47b8-b246-5fa0f5b28a87"}},{"fullUrl":"https://madie.cms.gov/Condition/prostate-cancer-a8e0","resource":{"resourceType":"Condition","id":"415b1ab0-e6fb-4c71-8d48-e78477c154ce","meta":{"profile":["http://hl7.org/fhir/us/qicore/StructureDefinition/qicore-condition"]},"clinicalStatus":{"coding":[{"system":"http://terminology.hl7.org/CodeSystem/condition-clinical","code":"active","display":"active","userSelected":true}]},"category":[{"coding":[{"system":"http://terminology.hl7.org/CodeSystem/condition-category","code":"problem-list-item","display":"Problem List Item"}]}],"code":{"coding":[{"system":"http://snomed.info/sct","version":"2022-03","code":"254900004","display":"Carcinoma of prostate (disorder)","userSelected":true}]},"subject":{"reference":"Patient/6853c792-add9-47b8-b246-5fa0f5b28a87"},"onsetDateTime":"2025-01-07T08:00:00.000+00:00","recordedDate":"2025-06-02T08:00:00.000+00:00"},"request":{"method":"PUT","url":"Condition/415b1ab0-e6fb-4c71-8d48-e78477c154ce"}},{"fullUrl":"https://madie.cms.gov/Procedure/prostate-cancer-treatment-a8e1","resource":{"resourceType":"Procedure","id":"b1ec9bd4-b814-463e-9249-e6f371960a54","meta":{"profile":["http://hl7.org/fhir/us/qicore/StructureDefinition/qicore-procedure"]},"extension":[{"url":"http://hl7.org/fhir/us/qicore/StructureDefinition/qicore-recorded","valueDateTime":"2023-02-01T09:00:00.000+00:00"}],"status":"completed","code":{"coding":[{"system":"http://snomed.info/sct","version":"2022-03","code":"10492003","display":"Radionuclide therapy for glandular suppression (procedure)","userSelected":true}]},"subject":{"reference":"Patient/6853c792-add9-47b8-b246-5fa0f5b28a87"},"performedDateTime":"2025-06-02T08:00:00.000+00:00"},"request":{"method":"PUT","url":"Procedure/b1ec9bd4-b814-463e-9249-e6f371960a54"}},{"fullUrl":"https://madie.cms.gov/Observation/prostate-specific-antigen-test-a8e2","resource":{"resourceType":"Observation","id":"37e2f7f5-8348-4d66-98d8-fd7658f88030","meta":{"profile":["http://hl7.org/fhir/us/qicore/StructureDefinition/qicore-observation"]},"status":"final","category":[{"coding":[{"system":"http://terminology.hl7.org/CodeSystem/observation-category","code":"procedure","display":"Procedure"}]}],"code":{"coding":[{"system":"http://loinc.org","version":"2.72","code":"2857-1","display":"Prostate specific Ag [Mass/volume] in Serum or Plasma","userSelected":true}]},"subject":{"reference":"Patient/6853c792-add9-47b8-b246-5fa0f5b28a87"},"effectiveDateTime":"2025-01-07T08:00:00.000+00:00","issued":"2025-04-02T08:00:00.000+00:00","valueQuantity":{"value":8.0,"system":"http://unitsofmeasure.org","code":"ng/mL"}},"request":{"method":"PUT","url":"Observation/37e2f7f5-8348-4d66-98d8-fd7658f88030"}},{"fullUrl":"https://madie.cms.gov/Observation/gleason-score-in-specimen-qualitative-a8e3","resource":{"resourceType":"Observation","id":"d90a4c81-1960-4a66-b6aa-b3956c64fe1c","meta":{"profile":["http://hl7.org/fhir/us/qicore/StructureDefinition/qicore-observation"]},"status":"final","category":[{"coding":[{"system":"http://terminology.hl7.org/CodeSystem/observation-category","code":"procedure","display":"Procedure"}]}],"code":{"coding":[{"system":"http://loinc.org","code":"35266-6","display":"Gleason score in Specimen Qualitative","userSelected":true}]},"subject":{"reference":"Patient/6853c792-add9-47b8-b246-5fa0f5b28a87"},"effectivePeriod":{"start":"2025-04-02T08:00:00.000+00:00"},"issued":"2025-04-02T08:00:00.000+00:00","valueInteger":5},"request":{"method":"PUT","url":"Observation/d90a4c81-1960-4a66-b6aa-b3956c64fe1c"}},{"fullUrl":"https://madie.cms.gov/Observation/tumor-staging-tumor-staging-a8e4","resource":{"resourceType":"Observation","id":"d46892ea-042a-402a-b650-f7103aba1320","meta":{"profile":["http://hl7.org/fhir/us/qicore/StructureDefinition/qicore-observation"]},"status":"final","category":[{"coding":[{"system":"http://terminology.hl7.org/CodeSystem/observation-category","code":"procedure","display":"Procedure"}]}],"code":{"coding":[{"system":"http://snomed.info/sct","code":"254292007","display":"Tumor staging (tumor staging)","userSelected":true}]},"subject":{"reference":"Patient/6853c792-add9-47b8-b246-5fa0f5b28a87"},"effectivePeriod":{"start":"2025-02-07T08:00:00.000+00:00"},"issued":"2025-02-02T08:00:00.000+00:00","valueCodeableConcept":{"coding":[{"system":"http://snomed.info/sct","code":"369833007","display":"T1a: Prostate tumor incidental histologic finding in 5% or less of tissue resected (finding)","userSelected":true}]}},"request":{"method":"PUT","url":"Observation/d46892ea-042a-402a-b650-f7103aba1320"}},{"fullUrl":"https://madie.cms.gov/Observation/bone-scan-d291","resource":{"resourceType":"Observation","id":"7b4a59f7-59a9-48d1-a595-526811e500ea","meta":{"profile":["http://hl7.org/fhir/us/qicore/StructureDefinition/qicore-observation"]},"status":"final","category":[{"coding":[{"system":"http://terminology.hl7.org/CodeSystem/observation-category","code":"procedure","display":"Procedure"}]}],"code":{"coding":[{"system":"http://loinc.org","version":"2.72","code":"25031-6","display":"NM Bone Views","userSelected":true}]},"subject":{"reference":"Patient/6853c792-add9-47b8-b246-5fa0f5b28a87"},"effectivePeriod":{"start":"2025-06-14T08:00:00.000+00:00","end":"2025-06-14T09:15:00.000+00:00"},"issued":"2025-06-14T08:00:00.000+00:00"},"request":{"method":"PUT","url":"Observation/7b4a59f7-59a9-48d1-a595-526811e500ea"}},{"fullUrl":"https://madie.cms.gov/Procedure/salvage-therapy-7d8d","resource":{"resourceType":"Procedure","id":"ca550cf9-88da-437b-902a-962daae1ac70","meta":{"profile":["http://hl7.org/fhir/us/qicore/StructureDefinition/qicore-procedure"]},"extension":[{"url":"http://hl7.org/fhir/us/qicore/StructureDefinition/qicore-recorded","valueDateTime":"2023-02-01T09:00:00.000+00:00"}],"status":"completed","code":{"coding":[{"system":"http://snomed.info/sct","version":"2022-03","code":"236209003","display":"Salvage cystoprostatourethrectomy (procedure)","userSelected":true}]},"subject":{"reference":"Patient/6853c792-add9-47b8-b246-5fa0f5b28a87"},"performedDateTime":"2025-08-17T08:00:00.000+00:00"},"request":{"method":"PUT","url":"Procedure/ca550cf9-88da-437b-902a-962daae1ac70"}},{"fullUrl":"https://madie.cms.gov/Coverage/1","resource":{"resourceType":"Coverage","id":"8615970b-1cc7-4d89-99cc-5dd4480c8efd","meta":{"profile":["http://hl7.org/fhir/us/qicore/StructureDefinition/qicore-coverage"]},"status":"active","beneficiary":{"reference":"Patient/6853c792-add9-47b8-b246-5fa0f5b28a87"},"payor":[{"reference":"Organization/806b0255-13cb-4f2b-9412-571554dd2169"}]},"request":{"method":"PUT","url":"Coverage/8615970b-1cc7-4d89-99cc-5dd4480c8efd"}},{"fullUrl":"https://madie.cms.gov/Organization/123456","resource":{"resourceType":"Organization","id":"806b0255-13cb-4f2b-9412-571554dd2169","meta":{"profile":["http://hl7.org/fhir/us/qicore/StructureDefinition/qicore-organization"]},"identifier":[{"use":"temp","system":"urn:oid:2.16.840.1.113883.4.4","value":"21-3259825"}],"active":true,"type":[{"coding":[{"system":"http://terminology.hl7.org/CodeSystem/organization-type","code":"pay","display":"Payer"}]}],"name":"Blue Cross Blue Shield of Texas","telecom":[{"system":"phone","value":"(+1) 972-766-6900"}],"address":[{"use":"billing","type":"postal","line":["P.O. Box 660044"],"city":"Dallas","state":"TX","postalCode":"75266-0044","country":"USA"}]},"request":{"method":"PUT","url":"Organization/806b0255-13cb-4f2b-9412-571554dd2169"}},{"fullUrl":"https://madie.cms.gov/Practitioner/practitioner-123456","resource":{"resourceType":"Practitioner","id":"b94f70e7-c5ee-44cc-b33a-400749ed8177","meta":{"profile":["http://hl7.org/fhir/us/qicore/StructureDefinition/qicore-practitioner"]},"identifier":[{"system":"http://hl7.org/fhir/sid/us-npi","value":"123456"}],"name":[{"family":"Evil","prefix":["Dr"]}]},"request":{"method":"PUT","url":"Practitioner/b94f70e7-c5ee-44cc-b33a-400749ed8177"}},{"fullUrl":"https://madie.cms.gov/MeasureReport/9c8139d3-f1e1-49b4-bb14-9d70631465e7","resource":{"resourceType":"MeasureReport","id":"9c8139d3-f1e1-49b4-bb14-9d70631465e7","meta":{"profile":["http://hl7.org/fhir/us/cqfmeasures/StructureDefinition/test-case-cqfm"]},"contained":[{"resourceType":"Parameters","id":"f5c0f9e5-1285-424f-bbc2-291659cf5116-parameters","parameter":[{"name":"subject","valueString":"6853c792-add9-47b8-b246-5fa0f5b28a87"}]}],"extension":[{"url":"http://hl7.org/fhir/us/cqfmeasures/StructureDefinition/cqfm-inputParameters","valueReference":{"reference":"#f5c0f9e5-1285-424f-bbc2-291659cf5116-parameters"}},{"url":"http://hl7.org/fhir/us/cqfmeasures/StructureDefinition/cqfm-testCaseDescription","valueMarkdown":"Patient with prostate cancer diagnosis with salvage therapy. Procedure after start of diagnosis."}],"modifierExtension":[{"url":"http://hl7.org/fhir/us/cqfmeasures/StructureDefinition/cqfm-isTestCase","valueBoolean":true}],"status":"complete","type":"individual","measure":"https://madie.cms.gov/Measure/ProstateCaAvoidanceBoneScanOveruseFHIR","period":{"start":"2025-01-01","end":"2025-12-31"},"group":[{"population":[{"code":{"coding":[{"system":"http://terminology.hl7.org/CodeSystem/measure-population","code":"initial-population","display":"Initial Population"}]},"count":1},{"code":{"coding":[{"system":"http://terminology.hl7.org/CodeSystem/measure-population","code":"denominator","display":"Denominator"}]},"count":1},{"code":{"coding":[{"system":"http://terminology.hl7.org/CodeSystem/measure-population","code":"numerator","display":"Numerator"}]},"count":0},{"code":{"coding":[{"system":"http://terminology.hl7.org/CodeSystem/measure-population","code":"denominator-exception","display":"Denominator Exception"}]},"count":1}]}]},"request":{"method":"PUT","url":"MeasureReport/9c8139d3-f1e1-49b4-bb14-9d70631465e7"}}]}