{"resourceType":"Bundle","id":"tests-26f4d776-c23d-4bc2-b8a4-3da7a5271eb9-bundle","type":"transaction","entry":[{"fullUrl":"https://madie.cms.gov/Patient/26f4d776-c23d-4bc2-b8a4-3da7a5271eb9","resource":{"resourceType":"Patient","id":"26f4d776-c23d-4bc2-b8a4-3da7a5271eb9","meta":{"profile":["http://hl7.org/fhir/us/qicore/StructureDefinition/qicore-patient"]},"extension":[{"url":"http://hl7.org/fhir/us/core/StructureDefinition/us-core-race","extension":[{"url":"ombCategory","valueCoding":{"system":"urn:oid:2.16.840.1.113883.6.238","code":"1002-5","display":"American Indian or Alaska Native","userSelected":true}},{"url":"text","valueString":"American Indian or Alaska Native"}]},{"url":"http://hl7.org/fhir/us/core/StructureDefinition/us-core-ethnicity","extension":[{"url":"ombCategory","valueCoding":{"system":"urn:oid:2.16.840.1.113883.6.238","code":"2135-2","display":"Hispanic or Latino","userSelected":true}},{"url":"text","valueString":"Hispanic or Latino"}]}],"identifier":[{"type":{"coding":[{"system":"http://terminology.hl7.org/CodeSystem/v2-0203","code":"MR"}]},"system":"https://bonnie-fhir.healthit.gov/","value":"62fd2c9e32e2f917c3627d87"}],"name":[{"family":"NUMERPass","given":["BoneScanAfterMP"]}],"gender":"male","birthDate":"1986-02-27"},"request":{"method":"PUT","url":"Patient/26f4d776-c23d-4bc2-b8a4-3da7a5271eb9"}},{"fullUrl":"https://madie.cms.gov/Condition/prostate-cancer-a8e0","resource":{"resourceType":"Condition","id":"70248891-2ecf-439c-b3ea-8f444f28cc80","meta":{"profile":["http://hl7.org/fhir/us/qicore/StructureDefinition/qicore-condition"]},"clinicalStatus":{"coding":[{"system":"http://terminology.hl7.org/CodeSystem/condition-clinical","code":"active","display":"active","userSelected":true}]},"category":[{"coding":[{"system":"http://terminology.hl7.org/CodeSystem/condition-category","code":"problem-list-item","display":"Problem List Item"},{"system":"http://snomed.info/sct","code":"439401001","display":"Diagnosis"}]}],"code":{"coding":[{"system":"http://snomed.info/sct","version":"2022-03","code":"254900004","display":"Carcinoma of prostate (disorder)","userSelected":true}]},"subject":{"reference":"Patient/26f4d776-c23d-4bc2-b8a4-3da7a5271eb9"},"onsetDateTime":"2025-01-07T08:00:00.000+00:00","recordedDate":"2025-06-02T08:00:00.000+00:00"},"request":{"method":"PUT","url":"Condition/70248891-2ecf-439c-b3ea-8f444f28cc80"}},{"fullUrl":"https://madie.cms.gov/Procedure/prostate-cancer-treatment-a8e1","resource":{"resourceType":"Procedure","id":"d7cc32ce-9be3-48fc-b3ff-830422301934","meta":{"profile":["http://hl7.org/fhir/us/qicore/StructureDefinition/qicore-procedure"]},"extension":[{"url":"http://hl7.org/fhir/us/qicore/StructureDefinition/qicore-recorded","valueDateTime":"2025-02-01T09:00:00.000+00:00"}],"status":"completed","code":{"coding":[{"system":"http://snomed.info/sct","version":"2022-03","code":"10492003","display":"Radionuclide therapy for glandular suppression (procedure)","userSelected":true}]},"subject":{"reference":"Patient/26f4d776-c23d-4bc2-b8a4-3da7a5271eb9"},"performedDateTime":"2025-06-02T08:00:00.000+00:00"},"request":{"method":"PUT","url":"Procedure/d7cc32ce-9be3-48fc-b3ff-830422301934"}},{"fullUrl":"https://madie.cms.gov/Observation/prostate-specific-antigen-test-a8e2","resource":{"resourceType":"Observation","id":"16830738-abc5-4f35-ae3c-07f22e8fcddd","meta":{"profile":["http://hl7.org/fhir/us/qicore/StructureDefinition/qicore-observation"]},"status":"final","category":[{"coding":[{"system":"http://terminology.hl7.org/CodeSystem/observation-category","code":"procedure","display":"Procedure"}]}],"code":{"coding":[{"system":"http://loinc.org","version":"2.72","code":"2857-1","display":"Prostate specific Ag [Mass/volume] in Serum or Plasma","userSelected":true}]},"subject":{"reference":"Patient/26f4d776-c23d-4bc2-b8a4-3da7a5271eb9"},"effectiveDateTime":"2025-01-07T08:00:00.000+00:00","issued":"2025-04-02T08:00:00.000+00:00","valueQuantity":{"value":8.0,"system":"http://unitsofmeasure.org","code":"ng/mL"}},"request":{"method":"PUT","url":"Observation/16830738-abc5-4f35-ae3c-07f22e8fcddd"}},{"fullUrl":"https://madie.cms.gov/Observation/gleason-score-in-specimen-qualitative-a8e3","resource":{"resourceType":"Observation","id":"55f11289-1a9e-4ab6-9676-897b394311ca","meta":{"profile":["http://hl7.org/fhir/us/qicore/StructureDefinition/qicore-observation"]},"status":"final","category":[{"coding":[{"system":"http://terminology.hl7.org/CodeSystem/observation-category","code":"procedure","display":"Procedure"}]}],"code":{"coding":[{"system":"http://loinc.org","code":"35266-6","display":"Gleason score in Specimen Qualitative","userSelected":true}]},"subject":{"reference":"Patient/26f4d776-c23d-4bc2-b8a4-3da7a5271eb9"},"effectivePeriod":{"start":"2025-04-02T08:00:00.000+00:00"},"issued":"2025-04-02T08:00:00.000+00:00","valueInteger":5},"request":{"method":"PUT","url":"Observation/55f11289-1a9e-4ab6-9676-897b394311ca"}},{"fullUrl":"https://madie.cms.gov/Observation/tumor-staging-tumor-staging-a8e4","resource":{"resourceType":"Observation","id":"dc27cd27-70ab-4673-820b-17d92b2c7d31","meta":{"profile":["http://hl7.org/fhir/us/qicore/StructureDefinition/qicore-observation"]},"status":"final","category":[{"coding":[{"system":"http://terminology.hl7.org/CodeSystem/observation-category","code":"procedure","display":"Procedure"}]}],"code":{"coding":[{"system":"http://snomed.info/sct","code":"254292007","display":"Tumor staging (tumor staging)","userSelected":true}]},"subject":{"reference":"Patient/26f4d776-c23d-4bc2-b8a4-3da7a5271eb9"},"effectivePeriod":{"start":"2025-02-07T08:00:00.000+00:00"},"issued":"2025-02-02T08:00:00.000+00:00","valueCodeableConcept":{"coding":[{"system":"http://snomed.info/sct","code":"369833007","display":"T1a: Prostate tumor incidental histologic finding in 5% or less of tissue resected (finding)","userSelected":true}]}},"request":{"method":"PUT","url":"Observation/dc27cd27-70ab-4673-820b-17d92b2c7d31"}},{"fullUrl":"https://madie.cms.gov/Observation/bone-scan-7d88","resource":{"resourceType":"Observation","id":"4cb1f58e-5108-4026-b748-6bb1442d2254","meta":{"profile":["http://hl7.org/fhir/us/qicore/StructureDefinition/qicore-observation"]},"status":"final","category":[{"coding":[{"system":"http://terminology.hl7.org/CodeSystem/observation-category","code":"procedure","display":"Procedure"}]}],"code":{"coding":[{"system":"http://loinc.org","version":"2.72","code":"25031-6","display":"NM Bone Views","userSelected":true}]},"subject":{"reference":"Patient/26f4d776-c23d-4bc2-b8a4-3da7a5271eb9"},"effectiveDateTime":"2026-01-01T08:00:00.000+00:00","issued":"2025-02-02T08:00:00.000+00:00"},"request":{"method":"PUT","url":"Observation/4cb1f58e-5108-4026-b748-6bb1442d2254"}},{"fullUrl":"https://madie.cms.gov/Coverage/1","resource":{"resourceType":"Coverage","id":"c6d7625b-d510-4ff6-82b5-e2dcf279073a","meta":{"profile":["http://hl7.org/fhir/us/qicore/StructureDefinition/qicore-coverage"]},"status":"active","beneficiary":{"reference":"Patient/26f4d776-c23d-4bc2-b8a4-3da7a5271eb9"},"payor":[{"reference":"Organization/db141f66-a1cc-407b-9e95-adac27adee14"}]},"request":{"method":"PUT","url":"Coverage/c6d7625b-d510-4ff6-82b5-e2dcf279073a"}},{"fullUrl":"https://madie.cms.gov/Organization/123456","resource":{"resourceType":"Organization","id":"db141f66-a1cc-407b-9e95-adac27adee14","meta":{"profile":["http://hl7.org/fhir/us/qicore/StructureDefinition/qicore-organization"]},"identifier":[{"use":"temp","system":"urn:oid:2.16.840.1.113883.4.4","value":"21-3259825"}],"active":true,"type":[{"coding":[{"system":"http://terminology.hl7.org/CodeSystem/organization-type","code":"pay","display":"Payer"}]}],"name":"Blue Cross Blue Shield of Texas","telecom":[{"system":"phone","value":"(+1) 972-766-6900"}],"address":[{"use":"billing","type":"postal","line":["P.O. Box 660044"],"city":"Dallas","state":"TX","postalCode":"75266-0044","country":"USA"}]},"request":{"method":"PUT","url":"Organization/db141f66-a1cc-407b-9e95-adac27adee14"}},{"fullUrl":"https://madie.cms.gov/Practitioner/practitioner-123456","resource":{"resourceType":"Practitioner","id":"541f8a2a-5b93-4f06-9d03-497ac2bbb13b","meta":{"profile":["http://hl7.org/fhir/us/qicore/StructureDefinition/qicore-practitioner"]},"identifier":[{"system":"http://hl7.org/fhir/sid/us-npi","value":"123456"}],"name":[{"family":"Evil","prefix":["Dr"]}]},"request":{"method":"PUT","url":"Practitioner/541f8a2a-5b93-4f06-9d03-497ac2bbb13b"}},{"fullUrl":"https://madie.cms.gov/MeasureReport/24f2b08b-5097-4e4c-be10-1d3d6684471f","resource":{"resourceType":"MeasureReport","id":"24f2b08b-5097-4e4c-be10-1d3d6684471f","meta":{"profile":["http://hl7.org/fhir/us/cqfmeasures/StructureDefinition/test-case-cqfm"]},"contained":[{"resourceType":"Parameters","id":"77844150-6dd5-4a1a-97a0-86cb9b5db018-parameters","parameter":[{"name":"subject","valueString":"26f4d776-c23d-4bc2-b8a4-3da7a5271eb9"}]}],"extension":[{"url":"http://hl7.org/fhir/us/cqfmeasures/StructureDefinition/cqfm-inputParameters","valueReference":{"reference":"#77844150-6dd5-4a1a-97a0-86cb9b5db018-parameters"}},{"url":"http://hl7.org/fhir/us/cqfmeasures/StructureDefinition/cqfm-testCaseDescription","valueMarkdown":"Bone scan performed after Measurement Period.  "}],"modifierExtension":[{"url":"http://hl7.org/fhir/us/cqfmeasures/StructureDefinition/cqfm-isTestCase","valueBoolean":true}],"status":"complete","type":"individual","measure":"https://madie.cms.gov/Measure/ProstateCaAvoidanceBoneScanOveruseFHIR","period":{"start":"2025-01-01","end":"2025-12-31"},"group":[{"population":[{"code":{"coding":[{"system":"http://terminology.hl7.org/CodeSystem/measure-population","code":"initial-population","display":"Initial Population"}]},"count":1},{"code":{"coding":[{"system":"http://terminology.hl7.org/CodeSystem/measure-population","code":"denominator","display":"Denominator"}]},"count":1},{"code":{"coding":[{"system":"http://terminology.hl7.org/CodeSystem/measure-population","code":"numerator","display":"Numerator"}]},"count":1},{"code":{"coding":[{"system":"http://terminology.hl7.org/CodeSystem/measure-population","code":"denominator-exception","display":"Denominator Exception"}]},"count":0}]}]},"request":{"method":"PUT","url":"MeasureReport/24f2b08b-5097-4e4c-be10-1d3d6684471f"}}]}