{"resourceType":"Bundle","id":"tests-bd8a7977-c265-4a3e-8a52-7818bac292fe-bundle","type":"transaction","entry":[{"fullUrl":"https://madie.cms.gov/Patient/bd8a7977-c265-4a3e-8a52-7818bac292fe","resource":{"resourceType":"Patient","id":"bd8a7977-c265-4a3e-8a52-7818bac292fe","meta":{"profile":["http://hl7.org/fhir/us/qicore/StructureDefinition/qicore-patient"]},"extension":[{"url":"http://hl7.org/fhir/us/core/StructureDefinition/us-core-race","extension":[{"url":"ombCategory","valueCoding":{"system":"urn:oid:2.16.840.1.113883.6.238","code":"2076-8","display":"Native Hawaiian or Other Pacific Islander"}},{"url":"text","valueString":"Native Hawaiian or Other Pacific Islander"}]},{"url":"http://hl7.org/fhir/us/core/StructureDefinition/us-core-ethnicity","extension":[{"url":"ombCategory","valueCoding":{"system":"urn:oid:2.16.840.1.113883.6.238","code":"2186-5","display":"Not Hispanic or Latino"}},{"url":"text","valueString":"Not Hispanic or Latino"}]}],"identifier":[{"type":{"coding":[{"system":"http://terminology.hl7.org/CodeSystem/v2-0203","code":"MR"}]},"system":"https://bonnie-fhir.healthit.gov/","value":"6845635684131"}],"active":true,"name":[{"use":"usual","family":"DENOMEXCEPPass","given":["IntoleranceToBetaBlockerBeforeLastEnc"]}],"gender":"male","birthDate":"1971-12-30"},"request":{"method":"PUT","url":"Patient/bd8a7977-c265-4a3e-8a52-7818bac292fe"}},{"fullUrl":"https://madie.cms.gov/Encounter/65461316asdf1351303d45","resource":{"resourceType":"Encounter","id":"b3149e38-c534-4129-8451-4b1d95899080","meta":{"profile":["http://hl7.org/fhir/us/qicore/StructureDefinition/qicore-encounter"]},"status":"finished","class":{"system":"http://terminology.hl7.org/CodeSystem/v3-ActCode","code":"AMB","display":"ambulatory"},"type":[{"coding":[{"system":"http://www.ama-assn.org/go/cpt","version":"2024","code":"99213"}]}],"subject":{"reference":"Patient/bd8a7977-c265-4a3e-8a52-7818bac292fe"},"period":{"start":"2025-04-14T14:40:00.000+00:00","end":"2025-04-14T14:50:00.000+00:00"},"length":{"value":0,"unit":"days"}},"request":{"method":"PUT","url":"Encounter/b3149e38-c534-4129-8451-4b1d95899080"}},{"fullUrl":"https://madie.cms.gov/Encounter/684561af51a3s51f63130","resource":{"resourceType":"Encounter","id":"dc7160f8-f4c8-4abc-a41c-d1c86481eb92","meta":{"profile":["http://hl7.org/fhir/us/qicore/StructureDefinition/qicore-encounter"]},"status":"finished","class":{"system":"http://terminology.hl7.org/CodeSystem/v3-ActCode","code":"NONAC","display":"inpatient non-acute"},"type":[{"coding":[{"system":"http://snomed.info/sct","version":"http://snomed.info/sct/731000124108/version/20230901","code":"207195004","display":"History and physical examination with evaluation and management of nursing facility patient (procedure)"}]}],"subject":{"reference":"Patient/bd8a7977-c265-4a3e-8a52-7818bac292fe"},"period":{"start":"2025-07-20T11:50:00+00:00","end":"2025-07-20T11:50:00+00:00"},"length":{"value":0,"unit":"days"}},"request":{"method":"PUT","url":"Encounter/dc7160f8-f4c8-4abc-a41c-d1c86481eb92"}},{"fullUrl":"https://madie.cms.gov/Condition/6465a1f3546as13546fa5135","resource":{"resourceType":"Condition","id":"b618e8c0-df06-4abf-a2ec-4f6dacf90824","meta":{"profile":["http://hl7.org/fhir/us/qicore/StructureDefinition/qicore-condition"]},"clinicalStatus":{"coding":[{"system":"http://terminology.hl7.org/CodeSystem/condition-clinical","code":"active","display":"Active"}]},"verificationStatus":{"coding":[{"system":"http://terminology.hl7.org/CodeSystem/condition-ver-status","code":"confirmed","display":"Confirmed"}]},"category":[{"coding":[{"system":"http://terminology.hl7.org/CodeSystem/condition-category","code":"problem-list-item","display":"Problem List Item"}]}],"code":{"coding":[{"system":"http://hl7.org/fhir/sid/icd-10-cm","version":"2024","code":"I11.0"}]},"subject":{"reference":"Patient/bd8a7977-c265-4a3e-8a52-7818bac292fe"},"onsetPeriod":{"start":"2025-04-11T10:00:00+00:00"}},"request":{"method":"PUT","url":"Condition/b618e8c0-df06-4abf-a2ec-4f6dacf90824"}},{"fullUrl":"https://madie.cms.gov/Condition/561354as68463516133154","resource":{"resourceType":"Condition","id":"fdb3e9d8-baa2-49cb-b495-16133306ede2","meta":{"profile":["http://hl7.org/fhir/us/qicore/StructureDefinition/qicore-condition"]},"clinicalStatus":{"coding":[{"system":"http://terminology.hl7.org/CodeSystem/condition-clinical","code":"active","display":"Active"}]},"verificationStatus":{"coding":[{"system":"http://terminology.hl7.org/CodeSystem/condition-ver-status","code":"confirmed","display":"Confirmed"}]},"category":[{"coding":[{"system":"http://terminology.hl7.org/CodeSystem/condition-category","code":"problem-list-item","display":"Problem List Item"}]}],"severity":{"coding":[{"system":"http://snomed.info/sct","version":"http://snomed.info/sct/731000124108/version/20240301","code":"24484000","display":"Severe (severity modifier) (qualifier value)"}]},"code":{"coding":[{"system":"http://snomed.info/sct","version":"http://snomed.info/sct/731000124108/version/20240301","code":"134401001","display":"Left ventricular systolic dysfunction (disorder)"}]},"subject":{"reference":"Patient/bd8a7977-c265-4a3e-8a52-7818bac292fe"},"onsetPeriod":{"start":"2025-04-14T14:41:00.000+00:00"}},"request":{"method":"PUT","url":"Condition/fdb3e9d8-baa2-49cb-b495-16133306ede2"}},{"fullUrl":"https://madie.cms.gov/Condition/6dfs8dsf1631sd351351","resource":{"resourceType":"Condition","id":"632823ad-ca85-40de-a5eb-2e5019bd7672","meta":{"profile":["http://hl7.org/fhir/us/qicore/StructureDefinition/qicore-condition"]},"clinicalStatus":{"coding":[{"system":"http://terminology.hl7.org/CodeSystem/condition-clinical","code":"active","display":"Active"}]},"verificationStatus":{"coding":[{"system":"http://terminology.hl7.org/CodeSystem/condition-ver-status","code":"confirmed","display":"Confirmed"}]},"category":[{"coding":[{"system":"http://terminology.hl7.org/CodeSystem/condition-category","code":"problem-list-item","display":"Problem List Item"}]}],"code":{"coding":[{"system":"http://snomed.info/sct","version":"http://snomed.info/sct/731000124108/version/20230901","code":"292428006","display":"Metoprolol adverse reaction (disorder)"}]},"subject":{"reference":"Patient/bd8a7977-c265-4a3e-8a52-7818bac292fe"},"onsetPeriod":{"start":"2025-01-20T14:32:00.000+00:00"}},"request":{"method":"PUT","url":"Condition/632823ad-ca85-40de-a5eb-2e5019bd7672"}},{"fullUrl":"https://madie.cms.gov/MeasureReport/9bf60cd4-9eae-49d8-99f9-1d54723c2344","resource":{"resourceType":"MeasureReport","id":"9bf60cd4-9eae-49d8-99f9-1d54723c2344","meta":{"profile":["http://hl7.org/fhir/us/cqfmeasures/StructureDefinition/test-case-cqfm"]},"contained":[{"resourceType":"Parameters","id":"c8013ea6-cf6c-4d1b-b124-9f24a2fe9750-parameters","parameter":[{"name":"subject","valueString":"bd8a7977-c265-4a3e-8a52-7818bac292fe"}]}],"extension":[{"url":"http://hl7.org/fhir/us/cqfmeasures/StructureDefinition/cqfm-inputParameters","valueReference":{"reference":"#c8013ea6-cf6c-4d1b-b124-9f24a2fe9750-parameters"}},{"url":"http://hl7.org/fhir/us/cqfmeasures/StructureDefinition/cqfm-testCaseDescription","valueMarkdown":"Patient falls into denominator exception due to intolerance to metoprolol diagnosed before last encounter. Nursing home patient during part of the year."}],"modifierExtension":[{"url":"http://hl7.org/fhir/us/cqfmeasures/StructureDefinition/cqfm-isTestCase","valueBoolean":true}],"status":"complete","type":"individual","measure":"https://madie.cms.gov/Measure/HFBetaBlockerTherapyforLVSDFHIR","period":{"start":"2025-01-01","end":"2025-12-31"},"group":[{"population":[{"code":{"coding":[{"system":"http://terminology.hl7.org/CodeSystem/measure-population","code":"initial-population","display":"Initial Population"}]},"count":1},{"code":{"coding":[{"system":"http://terminology.hl7.org/CodeSystem/measure-population","code":"denominator","display":"Denominator"}]},"count":1},{"code":{"coding":[{"system":"http://terminology.hl7.org/CodeSystem/measure-population","code":"denominator-exclusion","display":"Denominator Exclusion"}]},"count":0},{"code":{"coding":[{"system":"http://terminology.hl7.org/CodeSystem/measure-population","code":"numerator","display":"Numerator"}]},"count":0},{"code":{"coding":[{"system":"http://terminology.hl7.org/CodeSystem/measure-population","code":"denominator-exception","display":"Denominator Exception"}]},"count":1}]}]},"request":{"method":"PUT","url":"MeasureReport/9bf60cd4-9eae-49d8-99f9-1d54723c2344"}}]}