{
  "resourceType": "Bundle",
  "id": "tests-4ad371e9-8b3b-4278-9ebd-b449eff087be-bundle",
  "type": "transaction",
  "entry": [ {
    "fullUrl": "https://madie.cms.gov/Patient/4ad371e9-8b3b-4278-9ebd-b449eff087be",
    "resource": {
      "resourceType": "Patient",
      "id": "4ad371e9-8b3b-4278-9ebd-b449eff087be",
      "meta": {
        "profile": [ "http://hl7.org/fhir/us/qicore/StructureDefinition/qicore-patient" ]
      },
      "extension": [ {
        "url": "http://hl7.org/fhir/us/core/StructureDefinition/us-core-race",
        "extension": [ {
          "url": "ombCategory",
          "valueCoding": {
            "system": "urn:oid:2.16.840.1.113883.6.238",
            "code": "2106-3",
            "display": "White"
          }
        }, {
          "url": "text",
          "valueString": "White"
        } ]
      }, {
        "url": "http://hl7.org/fhir/us/core/StructureDefinition/us-core-ethnicity",
        "extension": [ {
          "url": "ombCategory",
          "valueCoding": {
            "system": "urn:oid:2.16.840.1.113883.6.238",
            "code": "2186-5",
            "display": "Not Hispanic or Latino"
          }
        }, {
          "url": "text",
          "valueString": "Not Hispanic or Latino"
        } ]
      } ],
      "identifier": [ {
        "type": {
          "coding": [ {
            "system": "http://terminology.hl7.org/CodeSystem/v2-0203",
            "code": "MR"
          } ]
        },
        "system": "https://bonnie-fhir.healthit.gov/",
        "value": "749646313131"
      } ],
      "active": true,
      "name": [ {
        "use": "usual",
        "family": "IPFail",
        "given": [ "LVSD2ndEncMPEdge" ]
      } ],
      "gender": "female",
      "birthDate": "1952-07-08"
    },
    "request": {
      "method": "PUT",
      "url": "Patient/4ad371e9-8b3b-4278-9ebd-b449eff087be"
    }
  }, {
    "fullUrl": "https://madie.cms.gov/Encounter/enc-5c954de4b848462de0ae73ec",
    "resource": {
      "resourceType": "Encounter",
      "id": "5c954de4b848462de0ae73ec",
      "meta": {
        "profile": [ "http://hl7.org/fhir/us/qicore/StructureDefinition/qicore-encounter" ]
      },
      "status": "finished",
      "class": {
        "system": "http://terminology.hl7.org/CodeSystem/v3-ActCode",
        "code": "AMB",
        "display": "ambulatory"
      },
      "type": [ {
        "coding": [ {
          "system": "http://www.ama-assn.org/go/cpt",
          "version": "2023",
          "code": "99213"
        } ]
      } ],
      "subject": {
        "reference": "Patient/4ad371e9-8b3b-4278-9ebd-b449eff087be"
      },
      "period": {
        "start": "2025-05-01T14:40:00+00:00",
        "end": "2025-05-01T14:40:00+00:00"
      },
      "length": {
        "value": 0,
        "unit": "days"
      }
    },
    "request": {
      "method": "PUT",
      "url": "Encounter/enc-5c954de4b848462de0ae73ec"
    }
  }, {
    "fullUrl": "https://madie.cms.gov/Encounter/enc-5c954de4b848462de0ae73ed",
    "resource": {
      "resourceType": "Encounter",
      "id": "5c954de4b848462de0ae73ed",
      "meta": {
        "profile": [ "http://hl7.org/fhir/us/qicore/StructureDefinition/qicore-encounter" ]
      },
      "status": "finished",
      "class": {
        "system": "http://terminology.hl7.org/CodeSystem/v3-ActCode",
        "code": "AMB",
        "display": "ambulatory"
      },
      "type": [ {
        "coding": [ {
          "system": "http://snomed.info/sct",
          "version": "http://snomed.info/sct/731000124108/version/202303",
          "code": "401271004"
        } ]
      } ],
      "subject": {
        "reference": "Patient/4ad371e9-8b3b-4278-9ebd-b449eff087be"
      },
      "period": {
        "start": "2025-12-31T05:00:00+00:00",
        "end": "2025-12-31T05:54:00+00:00"
      },
      "length": {
        "value": 0,
        "unit": "days"
      }
    },
    "request": {
      "method": "PUT",
      "url": "Encounter/enc-5c954de4b848462de0ae73ed"
    }
  }, {
    "fullUrl": "https://madie.cms.gov/AllergyIntolerance/5c954de4b848462de0ae73e9",
    "resource": {
      "resourceType": "AllergyIntolerance",
      "id": "5c954de4b848462de0ae73e9",
      "meta": {
        "profile": [ "http://hl7.org/fhir/us/qicore/StructureDefinition/qicore-allergyintolerance" ]
      },
      "clinicalStatus": {
        "coding": [ {
          "system": "http://terminology.hl7.org/CodeSystem/allergyintolerance-clinical",
          "code": "active",
          "display": "Active"
        } ]
      },
      "code": {
        "coding": [ {
          "system": "http://www.nlm.nih.gov/research/umls/rxnorm",
          "version": "03062023",
          "code": "10600"
        } ]
      },
      "patient": {
        "reference": "Patient/4ad371e9-8b3b-4278-9ebd-b449eff087be"
      },
      "onsetPeriod": {
        "start": "2025-07-02T11:50:00+00:00"
      }
    },
    "request": {
      "method": "PUT",
      "url": "AllergyIntolerance/5c954de4b848462de0ae73e9"
    }
  }, {
    "fullUrl": "https://madie.cms.gov/Condition/con-5c954de4b848462de0ae73eb",
    "resource": {
      "resourceType": "Condition",
      "id": "5c954de4b848462de0ae73eb",
      "meta": {
        "profile": [ "http://hl7.org/fhir/us/qicore/StructureDefinition/qicore-condition" ]
      },
      "clinicalStatus": {
        "coding": [ {
          "system": "http://terminology.hl7.org/CodeSystem/condition-clinical",
          "code": "active",
          "display": "Active"
        } ]
      },
      "verificationStatus": {
        "coding": [ {
          "system": "http://terminology.hl7.org/CodeSystem/condition-ver-status",
          "code": "refuted",
          "display": "Refuted"
        } ]
      },
      "category": [ {
        "coding": [ {
          "system": "http://terminology.hl7.org/CodeSystem/condition-category",
          "code": "problem-list-item",
          "display": "Problem List Item"
        } ]
      } ],
      "code": {
        "coding": [ {
          "system": "http://hl7.org/fhir/sid/icd-10-cm",
          "version": "2023",
          "code": "I50.83"
        } ]
      },
      "subject": {
        "reference": "Patient/4ad371e9-8b3b-4278-9ebd-b449eff087be"
      },
      "onsetPeriod": {
        "start": "2025-04-21T10:00:00+00:00"
      }
    },
    "request": {
      "method": "PUT",
      "url": "Condition/con-5c954de4b848462de0ae73eb"
    }
  }, {
    "fullUrl": "https://madie.cms.gov/Condition/con-6344131313513",
    "resource": {
      "resourceType": "Condition",
      "id": "6344131313513",
      "meta": {
        "profile": [ "http://hl7.org/fhir/us/qicore/StructureDefinition/qicore-condition" ]
      },
      "clinicalStatus": {
        "coding": [ {
          "system": "http://terminology.hl7.org/CodeSystem/condition-clinical",
          "code": "active",
          "display": "Active"
        } ]
      },
      "category": [ {
        "coding": [ {
          "system": "http://terminology.hl7.org/CodeSystem/condition-category",
          "code": "problem-list-item",
          "display": "Problem List Item"
        } ]
      } ],
      "code": {
        "coding": [ {
          "system": "http://snomed.info/sct",
          "version": "http://snomed.info/sct/731000124108/version/202303",
          "code": "134401001",
          "display": "Left ventricular systolic dysfunction (disorder)"
        } ]
      },
      "subject": {
        "reference": "Patient/4ad371e9-8b3b-4278-9ebd-b449eff087be"
      },
      "onsetPeriod": {
        "start": "2025-02-14T14:40:00.000+00:00"
      }
    },
    "request": {
      "method": "PUT",
      "url": "Condition/con-6344131313513"
    }
  }, {
    "fullUrl": "https://madie.cms.gov/MeasureReport/ac6502e7-d515-4909-8d03-1aae2e76d71d",
    "resource": {
      "resourceType": "MeasureReport",
      "id": "ac6502e7-d515-4909-8d03-1aae2e76d71d",
      "meta": {
        "profile": [ "http://hl7.org/fhir/us/cqfmeasures/StructureDefinition/test-case-cqfm" ]
      },
      "contained": [ {
        "resourceType": "Parameters",
        "id": "0ea1859a-da1c-47cb-9711-d79b9da3a3c8-parameters",
        "parameter": [ {
          "name": "subject",
          "valueString": "4ad371e9-8b3b-4278-9ebd-b449eff087be"
        } ]
      } ],
      "extension": [ {
        "url": "http://hl7.org/fhir/us/cqfmeasures/StructureDefinition/cqfm-inputParameters",
        "valueReference": {
          "reference": "#0ea1859a-da1c-47cb-9711-d79b9da3a3c8-parameters"
        }
      }, {
        "url": "http://hl7.org/fhir/us/cqfmeasures/StructureDefinition/cqfm-testCaseDescription",
        "valueMarkdown": "Second Encounter is at edge, last day of MP"
      } ],
      "modifierExtension": [ {
        "url": "http://hl7.org/fhir/us/cqfmeasures/StructureDefinition/cqfm-isTestCase",
        "valueBoolean": true
      } ],
      "status": "complete",
      "type": "individual",
      "measure": "https://madie.cms.gov/Measure/HFBetaBlockerTherapyforLVSDFHIR",
      "period": {
        "start": "2025-01-01",
        "end": "2025-12-31"
      },
      "group": [ {
        "population": [ {
          "code": {
            "coding": [ {
              "system": "http://terminology.hl7.org/CodeSystem/measure-population",
              "code": "initial-population",
              "display": "Initial Population"
            } ]
          },
          "count": 0
        }, {
          "code": {
            "coding": [ {
              "system": "http://terminology.hl7.org/CodeSystem/measure-population",
              "code": "denominator",
              "display": "Denominator"
            } ]
          },
          "count": 0
        }, {
          "code": {
            "coding": [ {
              "system": "http://terminology.hl7.org/CodeSystem/measure-population",
              "code": "denominator-exclusion",
              "display": "Denominator Exclusion"
            } ]
          },
          "count": 0
        }, {
          "code": {
            "coding": [ {
              "system": "http://terminology.hl7.org/CodeSystem/measure-population",
              "code": "numerator",
              "display": "Numerator"
            } ]
          },
          "count": 0
        }, {
          "code": {
            "coding": [ {
              "system": "http://terminology.hl7.org/CodeSystem/measure-population",
              "code": "denominator-exception",
              "display": "Denominator Exception"
            } ]
          },
          "count": 0
        } ]
      } ],
      "evaluatedResource": [ {
        "reference": "Patient/4ad371e9-8b3b-4278-9ebd-b449eff087be"
      }, {
        "reference": "Encounter/enc-5c954de4b848462de0ae73ec"
      }, {
        "reference": "Encounter/enc-5c954de4b848462de0ae73ed"
      }, {
        "reference": "AllergyIntolerance/5c954de4b848462de0ae73e9"
      }, {
        "reference": "Condition/con-5c954de4b848462de0ae73eb"
      }, {
        "reference": "Condition/con-6344131313513"
      } ]
    },
    "request": {
      "method": "PUT",
      "url": "MeasureReport/ac6502e7-d515-4909-8d03-1aae2e76d71d"
    }
  } ]
}
