{"resourceType":"Bundle","id":"tests-22d11ee2-1a64-4b27-8cca-753a068f9ea8-bundle","type":"transaction","entry":[{"fullUrl":"https://madie.cms.gov/Patient/22d11ee2-1a64-4b27-8cca-753a068f9ea8","resource":{"resourceType":"Patient","id":"22d11ee2-1a64-4b27-8cca-753a068f9ea8","meta":{"profile":["http://hl7.org/fhir/us/qicore/StructureDefinition/qicore-patient"]},"extension":[{"url":"http://hl7.org/fhir/us/core/StructureDefinition/us-core-race","extension":[{"url":"ombCategory","valueCoding":{"system":"urn:oid:2.16.840.1.113883.6.238","code":"2028-9","display":"Asian"}},{"url":"text","valueString":"Asian"}]},{"url":"http://hl7.org/fhir/us/core/StructureDefinition/us-core-ethnicity","extension":[{"url":"ombCategory","valueCoding":{"system":"urn:oid:2.16.840.1.113883.6.238","code":"2186-5","display":"Not Hispanic or Latino"}},{"url":"text","valueString":"Not Hispanic or Latino"}]}],"identifier":[{"type":{"coding":[{"system":"http://terminology.hl7.org/CodeSystem/v2-0203","code":"MR"}]},"system":"https://bonnie-fhir.healthit.gov/","value":"6843131311"}],"active":true,"name":[{"use":"usual","family":"IPPass","given":["OVX2EncsHF"]}],"gender":"male","birthDate":"1927-06-07"},"request":{"method":"PUT","url":"Patient/22d11ee2-1a64-4b27-8cca-753a068f9ea8"}},{"fullUrl":"https://madie.cms.gov/Encounter/5c954de4b848462de0ae740a","resource":{"resourceType":"Encounter","id":"173ca29a-5526-4743-9ad1-047b557b5a33","meta":{"profile":["http://hl7.org/fhir/us/qicore/StructureDefinition/qicore-encounter"]},"status":"finished","class":{"system":"http://terminology.hl7.org/CodeSystem/v3-ActCode","code":"AMB","display":"ambulatory"},"type":[{"coding":[{"system":"http://www.ama-assn.org/go/cpt","version":"2024","code":"99213"}]}],"subject":{"reference":"Patient/22d11ee2-1a64-4b27-8cca-753a068f9ea8"},"period":{"start":"2025-06-11T14:40:00+00:00","end":"2025-06-11T14:40:00+00:00"},"length":{"value":0,"unit":"days"}},"request":{"method":"PUT","url":"Encounter/173ca29a-5526-4743-9ad1-047b557b5a33"}},{"fullUrl":"https://madie.cms.gov/Encounter/5c954de4b848462de0ae740b","resource":{"resourceType":"Encounter","id":"33577fa1-d227-48eb-9e2e-61f61316d8bf","meta":{"profile":["http://hl7.org/fhir/us/qicore/StructureDefinition/qicore-encounter"]},"status":"finished","class":{"system":"http://terminology.hl7.org/CodeSystem/v3-ActCode","code":"AMB","display":"ambulatory"},"type":[{"coding":[{"system":"http://www.ama-assn.org/go/cpt","version":"2024","code":"99212"}]}],"subject":{"reference":"Patient/22d11ee2-1a64-4b27-8cca-753a068f9ea8"},"period":{"start":"2025-09-03T11:50:00+00:00","end":"2025-09-03T12:00:00+00:00"},"length":{"value":0,"unit":"days"}},"request":{"method":"PUT","url":"Encounter/33577fa1-d227-48eb-9e2e-61f61316d8bf"}},{"fullUrl":"https://madie.cms.gov/AllergyIntolerance/5c954de4b848462de0ae7407","resource":{"resourceType":"AllergyIntolerance","id":"173c001d-0123-4d63-87f3-c07e69d07bf3","meta":{"profile":["http://hl7.org/fhir/us/qicore/StructureDefinition/qicore-allergyintolerance"]},"clinicalStatus":{"coding":[{"system":"http://terminology.hl7.org/CodeSystem/allergyintolerance-clinical","code":"active","display":"Active"}]},"code":{"coding":[{"system":"http://www.nlm.nih.gov/research/umls/rxnorm","version":"04012024","code":"10600"}]},"patient":{"reference":"Patient/22d11ee2-1a64-4b27-8cca-753a068f9ea8"},"onsetPeriod":{"start":"2025-08-11T14:40:00+00:00"}},"request":{"method":"PUT","url":"AllergyIntolerance/173c001d-0123-4d63-87f3-c07e69d07bf3"}},{"fullUrl":"https://madie.cms.gov/Condition/5c954de4b848462de0ae7408","resource":{"resourceType":"Condition","id":"9e170c3a-2b51-441f-b9fd-4ea7ac5d2e11","meta":{"profile":["http://hl7.org/fhir/us/qicore/StructureDefinition/qicore-condition"]},"clinicalStatus":{"coding":[{"system":"http://terminology.hl7.org/CodeSystem/condition-clinical","code":"active","display":"Active"}]},"verificationStatus":{"coding":[{"system":"http://terminology.hl7.org/CodeSystem/condition-ver-status","code":"confirmed","display":"Confirmed"}]},"category":[{"coding":[{"system":"http://terminology.hl7.org/CodeSystem/condition-category","code":"problem-list-item","display":"Problem List Item"}]}],"code":{"coding":[{"system":"http://hl7.org/fhir/sid/icd-10-cm","version":"2024","code":"I50.32"}]},"subject":{"reference":"Patient/22d11ee2-1a64-4b27-8cca-753a068f9ea8"},"onsetPeriod":{"start":"2025-07-23T10:00:00+00:00"}},"request":{"method":"PUT","url":"Condition/9e170c3a-2b51-441f-b9fd-4ea7ac5d2e11"}},{"fullUrl":"https://madie.cms.gov/Condition/1316130313131","resource":{"resourceType":"Condition","id":"baf755ae-8979-4c90-a839-9b20106daf04","meta":{"profile":["http://hl7.org/fhir/us/qicore/StructureDefinition/qicore-condition"]},"clinicalStatus":{"coding":[{"system":"http://terminology.hl7.org/CodeSystem/condition-clinical","code":"active","display":"Active"}]},"verificationStatus":{"coding":[{"system":"http://terminology.hl7.org/CodeSystem/condition-ver-status","code":"confirmed","display":"Confirmed"}]},"category":[{"coding":[{"system":"http://terminology.hl7.org/CodeSystem/condition-category","code":"problem-list-item","display":"Problem List Item"}]}],"code":{"coding":[{"system":"http://snomed.info/sct","version":"http://snomed.info/sct/731000124108/version/20240301","code":"134401001","display":"Left ventricular systolic dysfunction (disorder)"}]},"subject":{"reference":"Patient/22d11ee2-1a64-4b27-8cca-753a068f9ea8"},"onsetPeriod":{"start":"2025-09-03T11:50:00.000+00:00"}},"request":{"method":"PUT","url":"Condition/baf755ae-8979-4c90-a839-9b20106daf04"}},{"fullUrl":"https://madie.cms.gov/MeasureReport/50ae4861-7f05-4700-9525-82b5f8816436","resource":{"resourceType":"MeasureReport","id":"50ae4861-7f05-4700-9525-82b5f8816436","meta":{"profile":["http://hl7.org/fhir/us/cqfmeasures/StructureDefinition/test-case-cqfm"]},"contained":[{"resourceType":"Parameters","id":"0fa87217-6a91-4e72-93b6-e491ccbd5977-parameters","parameter":[{"name":"subject","valueString":"22d11ee2-1a64-4b27-8cca-753a068f9ea8"}]}],"extension":[{"url":"http://hl7.org/fhir/us/cqfmeasures/StructureDefinition/cqfm-inputParameters","valueReference":{"reference":"#0fa87217-6a91-4e72-93b6-e491ccbd5977-parameters"}},{"url":"http://hl7.org/fhir/us/cqfmeasures/StructureDefinition/cqfm-testCaseDescription","valueMarkdown":"Patient with two office visit encounters and heart failure diagnosis. Patient included in initial population due to 2 encounters during measurement period and HF diagnosis."}],"modifierExtension":[{"url":"http://hl7.org/fhir/us/cqfmeasures/StructureDefinition/cqfm-isTestCase","valueBoolean":true}],"status":"complete","type":"individual","measure":"https://madie.cms.gov/Measure/HFBetaBlockerTherapyforLVSDFHIR","period":{"start":"2025-01-01","end":"2025-12-31"},"group":[{"population":[{"code":{"coding":[{"system":"http://terminology.hl7.org/CodeSystem/measure-population","code":"initial-population","display":"Initial Population"}]},"count":1},{"code":{"coding":[{"system":"http://terminology.hl7.org/CodeSystem/measure-population","code":"denominator","display":"Denominator"}]},"count":0},{"code":{"coding":[{"system":"http://terminology.hl7.org/CodeSystem/measure-population","code":"denominator-exclusion","display":"Denominator Exclusion"}]},"count":0},{"code":{"coding":[{"system":"http://terminology.hl7.org/CodeSystem/measure-population","code":"numerator","display":"Numerator"}]},"count":0},{"code":{"coding":[{"system":"http://terminology.hl7.org/CodeSystem/measure-population","code":"denominator-exception","display":"Denominator Exception"}]},"count":0}]}]},"request":{"method":"PUT","url":"MeasureReport/50ae4861-7f05-4700-9525-82b5f8816436"}}]}