{"resourceType":"Bundle","id":"tests-7822bd0a-ba96-46f0-8c57-204d37156184-bundle","type":"transaction","entry":[{"fullUrl":"https://madie.cms.gov/Patient/7822bd0a-ba96-46f0-8c57-204d37156184","resource":{"resourceType":"Patient","id":"7822bd0a-ba96-46f0-8c57-204d37156184","meta":{"profile":["http://hl7.org/fhir/us/qicore/StructureDefinition/qicore-patient"]},"extension":[{"url":"http://hl7.org/fhir/us/core/StructureDefinition/us-core-race","extension":[{"url":"ombCategory","valueCoding":{"system":"urn:oid:2.16.840.1.113883.6.238","code":"2028-9","display":"Asian"}},{"url":"text","valueString":"Asian"}]},{"url":"http://hl7.org/fhir/us/core/StructureDefinition/us-core-ethnicity","extension":[{"url":"ombCategory","valueCoding":{"system":"urn:oid:2.16.840.1.113883.6.238","code":"2135-2","display":"Hispanic or Latino"}},{"url":"text","valueString":"Hispanic or Latino"}]}],"identifier":[{"system":"http://hospital.smarthealthit.org","value":"999999995"}],"name":[{"family":"Bertha","given":["Betty"]}],"gender":"female","birthDate":"1979-12-31"},"request":{"method":"PUT","url":"Patient/7822bd0a-ba96-46f0-8c57-204d37156184"}},{"fullUrl":"https://madie.cms.gov/Encounter/Encounter-13","resource":{"resourceType":"Encounter","id":"ea5d93ee-5224-480b-a9fa-6df61c9c60b2","meta":{"profile":["http://hl7.org/fhir/us/qicore/StructureDefinition/qicore-encounter"]},"status":"finished","class":{"system":"http://terminology.hl7.org/CodeSystem/v3-ActCode","code":"AMB","display":"ambulatory"},"type":[{"coding":[{"system":"http://snomed.info/sct","code":"3391000175108","display":"Office visit for pediatric care and assessment (procedure)"}]}],"subject":{"reference":"Patient/7822bd0a-ba96-46f0-8c57-204d37156184"},"period":{"start":"2025-01-01T00:00:00.000Z","end":"2025-01-01T01:00:00.000Z"}},"request":{"method":"PUT","url":"Encounter/ea5d93ee-5224-480b-a9fa-6df61c9c60b2"}},{"fullUrl":"https://madie.cms.gov/Encounter/Encounter-14","resource":{"resourceType":"Encounter","id":"f8b35bd4-8c79-4f66-ac9b-f55e7f90251c","meta":{"profile":["http://hl7.org/fhir/us/qicore/StructureDefinition/qicore-encounter"]},"status":"finished","class":{"system":"http://terminology.hl7.org/CodeSystem/v3-ActCode","code":"AMB","display":"ambulatory"},"type":[{"coding":[{"system":"http://snomed.info/sct","code":"4525004","display":"Emergency department patient visit (procedure)"}]}],"subject":{"reference":"Patient/7822bd0a-ba96-46f0-8c57-204d37156184"},"period":{"start":"2024-12-31T00:00:00.000Z","end":"2025-01-01T01:00:00.000Z"},"diagnosis":[{"condition":{"reference":"Condition/Condition-1"}}]},"request":{"method":"PUT","url":"Encounter/f8b35bd4-8c79-4f66-ac9b-f55e7f90251c"}},{"fullUrl":"https://madie.cms.gov/Encounter/Encounter-15","resource":{"resourceType":"Encounter","id":"0ea71655-51fd-49c3-9f38-729fd0e56df1","meta":{"profile":["http://hl7.org/fhir/us/qicore/StructureDefinition/qicore-encounter"]},"status":"finished","class":{"system":"http://terminology.hl7.org/CodeSystem/v3-ActCode","code":"AMB","display":"ambulatory"},"type":[{"coding":[{"system":"http://snomed.info/sct","code":"4525004","display":"Emergency department patient visit (procedure)"}]}],"subject":{"reference":"Patient/7822bd0a-ba96-46f0-8c57-204d37156184"},"period":{"start":"2025-05-01T00:00:00.000Z","end":"2025-05-01T01:00:00.000Z"},"diagnosis":[{"condition":{"reference":"Condition/Condition-1"}}]},"request":{"method":"PUT","url":"Encounter/0ea71655-51fd-49c3-9f38-729fd0e56df1"}},{"fullUrl":"https://madie.cms.gov/Condition/Condition-1","resource":{"resourceType":"Condition","id":"14fb9815-f0b3-4089-aad4-14f57dd6b711","meta":{"profile":["http://hl7.org/fhir/us/qicore/StructureDefinition/qicore-condition"]},"clinicalStatus":{"coding":[{"system":"http://terminology.hl7.org/CodeSystem/condition-clinical","code":"active"}]},"category":[{"coding":[{"system":"http://terminology.hl7.org/CodeSystem/condition-category","code":"problem-list-item","display":"Problem List Item"}]}],"code":{"coding":[{"system":"http://snomed.info/sct","code":"101421000119107","display":"Dementia due to Parkinson's disease (disorder)"}]},"subject":{"reference":"Patient/7822bd0a-ba96-46f0-8c57-204d37156184"},"onsetDateTime":"2024-12-31T23:59:00.000Z"},"request":{"method":"PUT","url":"Condition/14fb9815-f0b3-4089-aad4-14f57dd6b711"}},{"fullUrl":"https://madie.cms.gov/DeviceRequest/DeviceRequest-1","resource":{"resourceType":"DeviceRequest","id":"0d441152-698c-449e-9019-bae7156f07db","meta":{"profile":["http://hl7.org/fhir/us/qicore/StructureDefinition/qicore-devicerequest"]},"modifierExtension":[{"url":"http://hl7.org/fhir/us/qicore/StructureDefinition/qicore-doNotPeform","valueBoolean":true}],"status":"completed","intent":"order","codeCodeableConcept":{"coding":[{"system":"http://snomed.info/sct","code":"183240000","display":"Self-propelled wheelchair (physical object)"}]},"subject":{"reference":"Patient/7822bd0a-ba96-46f0-8c57-204d37156184"},"authoredOn":"2025-11-01T23:59:00.000Z"},"request":{"method":"PUT","url":"DeviceRequest/0d441152-698c-449e-9019-bae7156f07db"}},{"fullUrl":"https://madie.cms.gov/MeasureReport/c969ca2d-dab7-4a75-924c-e4080b0cb517","resource":{"resourceType":"MeasureReport","id":"c969ca2d-dab7-4a75-924c-e4080b0cb517","meta":{"profile":["http://hl7.org/fhir/us/cqfmeasures/StructureDefinition/test-case-cqfm"]},"contained":[{"resourceType":"Parameters","id":"1cec009a-c51b-49ba-bec2-ee9944df6631-parameters","parameter":[{"name":"subject","valueString":"7822bd0a-ba96-46f0-8c57-204d37156184"}]}],"extension":[{"url":"http://hl7.org/fhir/us/cqfmeasures/StructureDefinition/cqfm-inputParameters","valueReference":{"reference":"#1cec009a-c51b-49ba-bec2-ee9944df6631-parameters"}},{"url":"http://hl7.org/fhir/us/cqfmeasures/StructureDefinition/cqfm-testCaseDescription","valueMarkdown":"Patient has a frailty device not performed"}],"modifierExtension":[{"url":"http://hl7.org/fhir/us/cqfmeasures/StructureDefinition/cqfm-isTestCase","valueBoolean":true}],"status":"complete","type":"individual","measure":"https://madie.cms.gov/Measure/ColonCancerScreeningFHIR","period":{"start":"2025-01-01","end":"2025-12-31"},"group":[{"population":[{"code":{"coding":[{"system":"http://terminology.hl7.org/CodeSystem/measure-population","code":"initial-population","display":"Initial Population"}]},"count":1},{"code":{"coding":[{"system":"http://terminology.hl7.org/CodeSystem/measure-population","code":"denominator","display":"Denominator"}]},"count":1},{"code":{"coding":[{"system":"http://terminology.hl7.org/CodeSystem/measure-population","code":"denominator-exclusion","display":"Denominator Exclusion"}]},"count":0},{"code":{"coding":[{"system":"http://terminology.hl7.org/CodeSystem/measure-population","code":"numerator","display":"Numerator"}]},"count":0}]}]},"request":{"method":"PUT","url":"MeasureReport/c969ca2d-dab7-4a75-924c-e4080b0cb517"}}]}