{"resourceType":"Bundle","id":"tests-b20cd591-3625-4d95-8081-6f2566c51fa6-bundle","type":"transaction","entry":[{"fullUrl":"https://madie.cms.gov/Patient/b20cd591-3625-4d95-8081-6f2566c51fa6","resource":{"resourceType":"Patient","id":"b20cd591-3625-4d95-8081-6f2566c51fa6","meta":{"profile":["http://hl7.org/fhir/us/qicore/StructureDefinition/qicore-patient"]},"extension":[{"url":"http://hl7.org/fhir/us/core/StructureDefinition/us-core-race","extension":[{"url":"ombCategory","valueCoding":{"system":"urn:oid:2.16.840.1.113883.6.238","code":"2028-9","display":"Asian"}},{"url":"text","valueString":"Asian"}]},{"url":"http://hl7.org/fhir/us/core/StructureDefinition/us-core-ethnicity","extension":[{"url":"ombCategory","valueCoding":{"system":"urn:oid:2.16.840.1.113883.6.238","code":"2135-2","display":"Hispanic or Latino"}},{"url":"text","valueString":"Hispanic or Latino"}]}],"identifier":[{"system":"http://hospital.smarthealthit.org","value":"999999995"}],"name":[{"family":"Bertha","given":["Betty"]}],"gender":"female","birthDate":"1979-01-01"},"request":{"method":"PUT","url":"Patient/b20cd591-3625-4d95-8081-6f2566c51fa6"}},{"fullUrl":"https://madie.cms.gov/Encounter/Encounter-28","resource":{"resourceType":"Encounter","id":"Encounter-28","meta":{"profile":["http://hl7.org/fhir/us/qicore/StructureDefinition/qicore-encounter"]},"status":"finished","class":{"system":"http://terminology.hl7.org/CodeSystem/v3-ActCode","code":"AMB","display":"ambulatory"},"type":[{"coding":[{"system":"http://snomed.info/sct","code":"185317003","display":"Telephone encounter (procedure)"}]}],"subject":{"reference":"Patient/b20cd591-3625-4d95-8081-6f2566c51fa6"},"period":{"start":"2025-01-01T01:00:00.000Z","end":"2025-01-01T01:15:00.000Z"}},"request":{"method":"PUT","url":"Encounter/Encounter-28"}},{"fullUrl":"https://madie.cms.gov/Procedure/Procedure-5","resource":{"resourceType":"Procedure","id":"Procedure-5","meta":{"profile":["http://hl7.org/fhir/us/qicore/StructureDefinition/qicore-procedure"]},"extension":[{"url":"http://hl7.org/fhir/us/qicore/StructureDefinition/qicore-recorded","valueDateTime":"2016-01-01T01:00:00.000Z"}],"status":"completed","code":{"coding":[{"system":"http://snomed.info/sct","code":"1209098000","display":"Fiberoptic colonoscopy with biopsy of lesion of colon (procedure)"}]},"subject":{"reference":"Patient/b20cd591-3625-4d95-8081-6f2566c51fa6"},"performedPeriod":{"start":"2016-01-01T01:00:00.000Z","end":"2016-01-01T01:15:00.000Z"}},"request":{"method":"PUT","url":"Procedure/Procedure-5"}},{"fullUrl":"https://madie.cms.gov/MeasureReport/7e0243e9-bcd4-4049-89b0-0dcee6d2560b","resource":{"resourceType":"MeasureReport","id":"7e0243e9-bcd4-4049-89b0-0dcee6d2560b","meta":{"profile":["http://hl7.org/fhir/us/cqfmeasures/StructureDefinition/test-case-cqfm"]},"contained":[{"resourceType":"Parameters","id":"49f4094b-0033-4f3f-80cd-b1d9b0fd728c-parameters","parameter":[{"name":"subject","valueString":"b20cd591-3625-4d95-8081-6f2566c51fa6"}]}],"extension":[{"url":"http://hl7.org/fhir/us/cqfmeasures/StructureDefinition/cqfm-inputParameters","valueReference":{"reference":"#49f4094b-0033-4f3f-80cd-b1d9b0fd728c-parameters"}},{"url":"http://hl7.org/fhir/us/cqfmeasures/StructureDefinition/cqfm-testCaseDescription","valueMarkdown":"Patient has a colonoscopy nine years prior to the measurement period."}],"modifierExtension":[{"url":"http://hl7.org/fhir/us/cqfmeasures/StructureDefinition/cqfm-isTestCase","valueBoolean":true}],"status":"complete","type":"individual","measure":"https://madie.cms.gov/Measure/ColonCancerScreeningFHIR","period":{"start":"2025-01-01","end":"2025-12-31"},"group":[{"population":[{"code":{"coding":[{"system":"http://terminology.hl7.org/CodeSystem/measure-population","code":"initial-population","display":"Initial Population"}]},"count":1},{"code":{"coding":[{"system":"http://terminology.hl7.org/CodeSystem/measure-population","code":"denominator","display":"Denominator"}]},"count":1},{"code":{"coding":[{"system":"http://terminology.hl7.org/CodeSystem/measure-population","code":"denominator-exclusion","display":"Denominator Exclusion"}]},"count":0},{"code":{"coding":[{"system":"http://terminology.hl7.org/CodeSystem/measure-population","code":"numerator","display":"Numerator"}]},"count":1}]}],"evaluatedResource":[{"reference":"Patient/b20cd591-3625-4d95-8081-6f2566c51fa6"},{"reference":"Encounter/Encounter-28"},{"reference":"Procedure/Procedure-5"}]},"request":{"method":"PUT","url":"MeasureReport/7e0243e9-bcd4-4049-89b0-0dcee6d2560b"}}]}