{
  "resourceType": "Bundle",
  "id": "OBSERVPass-DenomObsPassDueTo1DayPlus23Hrs59M",
  "type": "transaction",
  "entry": [ {
    "fullUrl": "https://madie.cms.gov/Encounter/7a7d11c0-535b-45db-a78f-d17c7c3022b1",
    "resource": {
      "resourceType": "Encounter",
      "id": "7a7d11c0-535b-45db-a78f-d17c7c3022b1",
      "meta": {
        "profile": [ "http://hl7.org/fhir/us/qicore/StructureDefinition/qicore-encounter" ]
      },
      "status": "finished",
      "class": {
        "system": "http://terminology.hl7.org/CodeSystem/v3-ActCode",
        "code": "IMP",
        "display": "inpatient encounter"
      },
      "type": [ {
        "coding": [ {
          "system": "http://snomed.info/sct",
          "code": "183452005"
        } ]
      } ],
      "subject": {
        "reference": "Patient/ea6b3f44-c6cd-4417-ae60-e97564bf24f9"
      },
      "period": {
        "start": "2026-11-08T08:00:00+00:00",
        "end": "2026-11-13T23:59:00+00:00"
      }
    },
    "request": {
      "method": "PUT",
      "url": "Encounter/7a7d11c0-535b-45db-a78f-d17c7c3022b1"
    }
  }, {
    "fullUrl": "https://madie.cms.gov/Patient/ea6b3f44-c6cd-4417-ae60-e97564bf24f9",
    "resource": {
      "resourceType": "Patient",
      "id": "ea6b3f44-c6cd-4417-ae60-e97564bf24f9",
      "meta": {
        "profile": [ "http://hl7.org/fhir/us/qicore/StructureDefinition/qicore-patient" ]
      },
      "extension": [ {
        "url": "http://hl7.org/fhir/us/core/StructureDefinition/us-core-race",
        "extension": [ {
          "url": "ombCategory",
          "valueCoding": {
            "system": "urn:oid:2.16.840.1.113883.6.238",
            "code": "2054-5",
            "display": "Black or African American",
            "userSelected": true
          }
        }, {
          "url": "text",
          "valueString": "Black or African American"
        } ]
      }, {
        "url": "http://hl7.org/fhir/us/core/StructureDefinition/us-core-ethnicity",
        "extension": [ {
          "url": "ombCategory",
          "valueCoding": {
            "system": "urn:oid:2.16.840.1.113883.6.238",
            "code": "2186-5",
            "display": "Not Hispanic or Latino",
            "userSelected": true
          }
        }, {
          "url": "text",
          "valueString": "Not Hispanic or Latino"
        } ]
      } ],
      "identifier": [ {
        "type": {
          "coding": [ {
            "system": "http://terminology.hl7.org/CodeSystem/v2-0203",
            "code": "MR"
          } ]
        },
        "system": "https://bonnie-fhir.healthit.gov/",
        "value": "61152a3b98086b7a79cbd7c1"
      } ],
      "active": true,
      "name": [ {
        "use": "usual",
        "family": "OBSERVPass",
        "given": [ "DenomObsPassDueTo1DayPlus23Hrs59M" ]
      } ],
      "gender": "male",
      "birthDate": "1964-12-11"
    },
    "request": {
      "method": "PUT",
      "url": "Patient/ea6b3f44-c6cd-4417-ae60-e97564bf24f9"
    }
  }, {
    "fullUrl": "https://madie.cms.gov/MeasureReport/22d9241f-0931-4b6f-8e11-1b1b7f9c580c",
    "resource": {
      "resourceType": "MeasureReport",
      "id": "22d9241f-0931-4b6f-8e11-1b1b7f9c580c",
      "meta": {
        "profile": [ "http://hl7.org/fhir/us/cqfmeasures/StructureDefinition/test-case-cqfm" ]
      },
      "contained": [ {
        "resourceType": "Parameters",
        "id": "7668b8fd-1a62-4b34-bae6-b992e7bd7eb4-parameters",
        "parameter": [ {
          "name": "subject",
          "valueString": "ea6b3f44-c6cd-4417-ae60-e97564bf24f9"
        } ]
      } ],
      "extension": [ {
        "url": "http://hl7.org/fhir/us/cqfmeasures/StructureDefinition/cqfm-inputParameters",
        "valueReference": {
          "reference": "#7668b8fd-1a62-4b34-bae6-b992e7bd7eb4-parameters"
        }
      }, {
        "url": "http://hl7.org/fhir/us/cqfmeasures/StructureDefinition/cqfm-testCaseDescription",
        "valueMarkdown": "Encounter with LOS = 1 day + 23 hours + 59 minutes. \nDenom MO day count = 1 as expected. Day 2 is not counted as it is <24 hours."
      } ],
      "modifierExtension": [ {
        "url": "http://hl7.org/fhir/us/cqfmeasures/StructureDefinition/cqfm-isTestCase",
        "valueBoolean": true
      } ],
      "status": "complete",
      "type": "individual",
      "measure": "https://madie.cms.gov/Measure/FallsWithInjuryFHIR",
      "period": {
        "start": "2026-01-01",
        "end": "2026-12-31"
      },
      "group": [ {
        "population": [ {
          "code": {
            "coding": [ {
              "system": "http://terminology.hl7.org/CodeSystem/measure-population",
              "code": "initial-population",
              "display": "Initial Population"
            } ]
          },
          "count": 1
        }, {
          "code": {
            "coding": [ {
              "system": "http://terminology.hl7.org/CodeSystem/measure-population",
              "code": "denominator",
              "display": "Denominator"
            } ]
          },
          "count": 1
        }, {
          "code": {
            "coding": [ {
              "system": "http://terminology.hl7.org/CodeSystem/measure-population",
              "code": "denominator-exclusion",
              "display": "Denominator Exclusion"
            } ]
          },
          "count": 0
        }, {
          "code": {
            "coding": [ {
              "system": "http://terminology.hl7.org/CodeSystem/measure-population",
              "code": "numerator",
              "display": "Numerator"
            } ]
          },
          "count": 0
        }, {
          "code": {
            "coding": [ {
              "system": "http://terminology.hl7.org/CodeSystem/measure-population",
              "code": "numerator-exclusion",
              "display": "Numerator Exclusion"
            } ]
          },
          "count": 0
        }, {
          "code": {
            "coding": [ {
              "system": "http://terminology.hl7.org/CodeSystem/measure-population",
              "code": "denominator-observation",
              "display": "DenominatorObservation"
            } ]
          },
          "count": 5
        } ]
      } ],
      "evaluatedResource": [ {
        "reference": "Encounter/7a7d11c0-535b-45db-a78f-d17c7c3022b1"
      }, {
        "reference": "Patient/ea6b3f44-c6cd-4417-ae60-e97564bf24f9"
      } ]
    },
    "request": {
      "method": "PUT",
      "url": "MeasureReport/22d9241f-0931-4b6f-8e11-1b1b7f9c580c"
    }
  } ]
}