{
  "resourceType": "Bundle",
  "id": "NUMERFail-IPStartsGTOneHrFromObservationEnd",
  "type": "transaction",
  "entry": [ {
    "fullUrl": "https://madie.cms.gov/Encounter/bbe72f8b-45d6-4f30-8269-869cf12654dd",
    "resource": {
      "resourceType": "Encounter",
      "id": "bbe72f8b-45d6-4f30-8269-869cf12654dd",
      "meta": {
        "profile": [ "http://hl7.org/fhir/us/qicore/StructureDefinition/qicore-encounter" ]
      },
      "status": "finished",
      "class": {
        "system": "http://terminology.hl7.org/CodeSystem/v3-ActCode",
        "code": "IMP",
        "display": "inpatient encounter"
      },
      "type": [ {
        "coding": [ {
          "system": "http://snomed.info/sct",
          "code": "183452005"
        } ]
      } ],
      "subject": {
        "reference": "Patient/8b63d691-46a8-4ce6-8dee-60aea7f34f82"
      },
      "period": {
        "start": "2026-11-07T09:16:00+00:00",
        "end": "2026-11-09T08:15:00+00:00"
      },
      "diagnosis": [ {
        "extension": [ {
          "url": "http://hl7.org/fhir/us/qicore/StructureDefinition/qicore-encounter-diagnosisPresentOnAdmission",
          "valueCodeableConcept": {
            "coding": [ {
              "system": "https://www.cms.gov/Medicare/Medicare-Fee-for-Service-Payment/HospitalAcqCond/Coding",
              "code": "N"
            } ]
          }
        } ],
        "condition": {
          "reference": "Condition/59243e30-4c3d-4fe4-b647-2d0bef4ad6bf"
        }
      } ]
    },
    "request": {
      "method": "PUT",
      "url": "Encounter/bbe72f8b-45d6-4f30-8269-869cf12654dd"
    }
  }, {
    "fullUrl": "https://madie.cms.gov/Encounter/3d0f7131-a5c9-440e-9136-04c803b5577b",
    "resource": {
      "resourceType": "Encounter",
      "id": "3d0f7131-a5c9-440e-9136-04c803b5577b",
      "meta": {
        "profile": [ "http://hl7.org/fhir/us/qicore/StructureDefinition/qicore-encounter" ]
      },
      "status": "finished",
      "class": {
        "system": "http://terminology.hl7.org/CodeSystem/v3-ActCode",
        "code": "IMP",
        "display": "inpatient encounter"
      },
      "type": [ {
        "coding": [ {
          "system": "http://snomed.info/sct",
          "code": "448951000124107"
        } ]
      } ],
      "subject": {
        "reference": "Patient/8b63d691-46a8-4ce6-8dee-60aea7f34f82"
      },
      "period": {
        "start": "2026-11-06T08:00:00+00:00",
        "end": "2026-11-07T08:15:00+00:00"
      }
    },
    "request": {
      "method": "PUT",
      "url": "Encounter/3d0f7131-a5c9-440e-9136-04c803b5577b"
    }
  }, {
    "fullUrl": "https://madie.cms.gov/Condition/59243e30-4c3d-4fe4-b647-2d0bef4ad6bf",
    "resource": {
      "resourceType": "Condition",
      "id": "59243e30-4c3d-4fe4-b647-2d0bef4ad6bf",
      "meta": {
        "profile": [ "http://hl7.org/fhir/us/qicore/StructureDefinition/qicore-condition" ]
      },
      "clinicalStatus": {
        "coding": [ {
          "system": "http://terminology.hl7.org/CodeSystem/condition-clinical",
          "code": "active"
        } ]
      },
      "verificationStatus": {
        "coding": [ {
          "system": "http://terminology.hl7.org/CodeSystem/condition-ver-status",
          "code": "confirmed"
        } ]
      },
      "category": [ {
        "coding": [ {
          "system": "http://terminology.hl7.org/CodeSystem/condition-category",
          "code": "encounter-diagnosis",
          "display": "Encounter Diagnosis"
        } ]
      } ],
      "code": {
        "coding": [ {
          "system": "http://hl7.org/fhir/sid/icd-10-cm",
          "code": "S01.312A"
        } ]
      },
      "subject": {
        "reference": "Patient/8b63d691-46a8-4ce6-8dee-60aea7f34f82"
      },
      "encounter": {
        "reference": "Encounter/bbe72f8b-45d6-4f30-8269-869cf12654dd"
      }
    },
    "request": {
      "method": "PUT",
      "url": "Condition/59243e30-4c3d-4fe4-b647-2d0bef4ad6bf"
    }
  }, {
    "fullUrl": "https://madie.cms.gov/Patient/8b63d691-46a8-4ce6-8dee-60aea7f34f82",
    "resource": {
      "resourceType": "Patient",
      "id": "8b63d691-46a8-4ce6-8dee-60aea7f34f82",
      "meta": {
        "profile": [ "http://hl7.org/fhir/us/qicore/StructureDefinition/qicore-patient" ]
      },
      "extension": [ {
        "url": "http://hl7.org/fhir/us/core/StructureDefinition/us-core-race",
        "extension": [ {
          "url": "ombCategory",
          "valueCoding": {
            "system": "urn:oid:2.16.840.1.113883.6.238",
            "code": "2054-5",
            "display": "Black or African American",
            "userSelected": true
          }
        }, {
          "url": "text",
          "valueString": "Black or African American"
        } ]
      }, {
        "url": "http://hl7.org/fhir/us/core/StructureDefinition/us-core-ethnicity",
        "extension": [ {
          "url": "ombCategory",
          "valueCoding": {
            "system": "urn:oid:2.16.840.1.113883.6.238",
            "code": "2186-5",
            "display": "Not Hispanic or Latino",
            "userSelected": true
          }
        }, {
          "url": "text",
          "valueString": "Not Hispanic or Latino"
        } ]
      } ],
      "identifier": [ {
        "type": {
          "coding": [ {
            "system": "http://terminology.hl7.org/CodeSystem/v2-0203",
            "code": "MR"
          } ]
        },
        "system": "https://bonnie-fhir.healthit.gov/",
        "value": "61152a3b98086b7a79cbd7c1"
      } ],
      "active": true,
      "name": [ {
        "use": "usual",
        "family": "NUMERFail",
        "given": [ "IPStartsGTOneHrFromObservationEnd" ]
      } ],
      "gender": "male",
      "birthDate": "1964-12-11"
    },
    "request": {
      "method": "PUT",
      "url": "Patient/8b63d691-46a8-4ce6-8dee-60aea7f34f82"
    }
  }, {
    "fullUrl": "https://madie.cms.gov/AdverseEvent/bf70546c-41f8-45f5-bb27-3ab3e815dde3",
    "resource": {
      "resourceType": "AdverseEvent",
      "id": "bf70546c-41f8-45f5-bb27-3ab3e815dde3",
      "meta": {
        "profile": [ "http://hl7.org/fhir/us/qicore/StructureDefinition/qicore-adverseevent" ]
      },
      "actuality": "actual",
      "event": {
        "coding": [ {
          "system": "http://snomed.info/sct",
          "code": "217082002"
        } ]
      },
      "subject": {
        "reference": "Patient/8b63d691-46a8-4ce6-8dee-60aea7f34f82"
      },
      "date": "2026-11-06T09:00:00+00:00"
    },
    "request": {
      "method": "PUT",
      "url": "AdverseEvent/bf70546c-41f8-45f5-bb27-3ab3e815dde3"
    }
  }, {
    "fullUrl": "https://madie.cms.gov/MeasureReport/1a4d6e52-bff7-4573-9b2a-ae95313d781d",
    "resource": {
      "resourceType": "MeasureReport",
      "id": "1a4d6e52-bff7-4573-9b2a-ae95313d781d",
      "meta": {
        "profile": [ "http://hl7.org/fhir/us/cqfmeasures/StructureDefinition/test-case-cqfm" ]
      },
      "contained": [ {
        "resourceType": "Parameters",
        "id": "572c71cc-ef53-4683-bfb5-7ad1efb15c2e-parameters",
        "parameter": [ {
          "name": "subject",
          "valueString": "8b63d691-46a8-4ce6-8dee-60aea7f34f82"
        } ]
      } ],
      "extension": [ {
        "url": "http://hl7.org/fhir/us/cqfmeasures/StructureDefinition/cqfm-inputParameters",
        "valueReference": {
          "reference": "#572c71cc-ef53-4683-bfb5-7ad1efb15c2e-parameters"
        }
      }, {
        "url": "http://hl7.org/fhir/us/cqfmeasures/StructureDefinition/cqfm-testCaseDescription",
        "valueMarkdown": "Patient w/ adverse event Fall in Observation. IP admission starts 1 hour  + 1 minute after Observation ends. IP has dx of injury NPOA, but does not meet Numerator because Observation is not part of encounter - IP start must be within 1hr from Obs end"
      } ],
      "modifierExtension": [ {
        "url": "http://hl7.org/fhir/us/cqfmeasures/StructureDefinition/cqfm-isTestCase",
        "valueBoolean": true
      } ],
      "status": "complete",
      "type": "individual",
      "measure": "https://madie.cms.gov/Measure/FallsWithInjuryFHIR",
      "period": {
        "start": "2026-01-01",
        "end": "2026-12-31"
      },
      "group": [ {
        "population": [ {
          "code": {
            "coding": [ {
              "system": "http://terminology.hl7.org/CodeSystem/measure-population",
              "code": "initial-population",
              "display": "Initial Population"
            } ]
          },
          "count": 1
        }, {
          "code": {
            "coding": [ {
              "system": "http://terminology.hl7.org/CodeSystem/measure-population",
              "code": "denominator",
              "display": "Denominator"
            } ]
          },
          "count": 1
        }, {
          "code": {
            "coding": [ {
              "system": "http://terminology.hl7.org/CodeSystem/measure-population",
              "code": "denominator-exclusion",
              "display": "Denominator Exclusion"
            } ]
          },
          "count": 0
        }, {
          "code": {
            "coding": [ {
              "system": "http://terminology.hl7.org/CodeSystem/measure-population",
              "code": "numerator",
              "display": "Numerator"
            } ]
          },
          "count": 0
        }, {
          "code": {
            "coding": [ {
              "system": "http://terminology.hl7.org/CodeSystem/measure-population",
              "code": "numerator-exclusion",
              "display": "Numerator Exclusion"
            } ]
          },
          "count": 0
        }, {
          "code": {
            "coding": [ {
              "system": "http://terminology.hl7.org/CodeSystem/measure-population",
              "code": "denominator-observation",
              "display": "DenominatorObservation"
            } ]
          },
          "count": 1
        } ]
      } ],
      "evaluatedResource": [ {
        "reference": "Encounter/bbe72f8b-45d6-4f30-8269-869cf12654dd"
      }, {
        "reference": "Encounter/3d0f7131-a5c9-440e-9136-04c803b5577b"
      }, {
        "reference": "Condition/59243e30-4c3d-4fe4-b647-2d0bef4ad6bf"
      }, {
        "reference": "Patient/8b63d691-46a8-4ce6-8dee-60aea7f34f82"
      }, {
        "reference": "AdverseEvent/bf70546c-41f8-45f5-bb27-3ab3e815dde3"
      } ]
    },
    "request": {
      "method": "PUT",
      "url": "MeasureReport/1a4d6e52-bff7-4573-9b2a-ae95313d781d"
    }
  } ]
}