{"resourceType":"Bundle","id":"tests-e383c9a2-7b5e-4ab6-b2e2-642a2304d6e2-bundle","type":"transaction","entry":[{"fullUrl":"https://madie.cms.gov/Patient/e383c9a2-7b5e-4ab6-b2e2-642a2304d6e2","resource":{"resourceType":"Patient","id":"e383c9a2-7b5e-4ab6-b2e2-642a2304d6e2","meta":{"profile":["http://hl7.org/fhir/us/qicore/StructureDefinition/qicore-patient"]},"extension":[{"url":"http://hl7.org/fhir/us/core/StructureDefinition/us-core-race","extension":[{"url":"ombCategory","valueCoding":{"system":"urn:oid:2.16.840.1.113883.6.238","code":"2028-9","display":"Asian"}},{"url":"text","valueString":"Asian"}]},{"url":"http://hl7.org/fhir/us/core/StructureDefinition/us-core-ethnicity","extension":[{"url":"ombCategory","valueCoding":{"system":"urn:oid:2.16.840.1.113883.6.238","code":"2135-2","display":"Hispanic or Latino"}},{"url":"text","valueString":"Hispanic or Latino"}]}],"identifier":[{"system":"http://hospital.smarthealthit.org","value":"999999995"}],"name":[{"family":"Bertha","given":["Betty"]}],"gender":"female","birthDate":"2012-12-31"},"request":{"method":"PUT","url":"Patient/e383c9a2-7b5e-4ab6-b2e2-642a2304d6e2"}},{"fullUrl":"https://madie.cms.gov/Encounter/Encounter-4.6","resource":{"resourceType":"Encounter","id":"d1670832-770d-48c1-bd10-7a9e8cd70744","meta":{"profile":["http://hl7.org/fhir/us/qicore/StructureDefinition/qicore-encounter"]},"status":"finished","class":{"system":"http://terminology.hl7.org/CodeSystem/v3-ActCode","code":"AMB","display":"ambulatory"},"type":[{"coding":[{"system":"http://www.ama-assn.org/go/cpt","code":"99429","display":"Unlisted preventive medicine service"}]}],"subject":{"reference":"Patient/e383c9a2-7b5e-4ab6-b2e2-642a2304d6e2"},"period":{"start":"2025-01-01T01:00:00.000Z","end":"2025-01-01T01:15:00.000Z"}},"request":{"method":"PUT","url":"Encounter/d1670832-770d-48c1-bd10-7a9e8cd70744"}},{"fullUrl":"https://madie.cms.gov/Encounter/Encounter-5.6","resource":{"resourceType":"Encounter","id":"f967073d-c8b1-4124-9633-3f3623e1ebc2","meta":{"profile":["http://hl7.org/fhir/us/qicore/StructureDefinition/qicore-encounter"]},"status":"finished","class":{"system":"http://terminology.hl7.org/CodeSystem/v3-ActCode","code":"AMB","display":"ambulatory"},"type":[{"coding":[{"system":"http://www.ama-assn.org/go/cpt","code":"99024","display":"Postoperative follow-up visit, normally included in the surgical package, to indicate that an evaluation and management service was performed during a postoperative period for a reason(s) related to the original procedure"}]}],"subject":{"reference":"Patient/e383c9a2-7b5e-4ab6-b2e2-642a2304d6e2"},"period":{"start":"2025-01-01T01:00:00.000Z","end":"2025-01-01T01:15:00.000Z"}},"request":{"method":"PUT","url":"Encounter/f967073d-c8b1-4124-9633-3f3623e1ebc2"}},{"fullUrl":"https://madie.cms.gov/Observation/Observation-2.8","resource":{"resourceType":"Observation","id":"b7365790-df3a-4c9e-8dce-e04e77dd6fb8","meta":{"profile":["http://hl7.org/fhir/us/qicore/StructureDefinition/qicore-observation"]},"status":"final","category":[{"coding":[{"system":"http://terminology.hl7.org/CodeSystem/observation-category","code":"survey","display":"survey"}],"text":"survey"}],"code":{"coding":[{"system":"http://loinc.org","code":"39240-7","display":"Tobacco use status CPHS"}]},"subject":{"reference":"Patient/e383c9a2-7b5e-4ab6-b2e2-642a2304d6e2"},"effectivePeriod":{"start":"2025-01-01T23:00:00.000Z","end":"2025-01-01T23:59:00.000Z"},"valueCodeableConcept":{"coding":[{"system":"http://snomed.info/sct","code":"110483000","display":"Tobacco user (finding)"}]}},"request":{"method":"PUT","url":"Observation/b7365790-df3a-4c9e-8dce-e04e77dd6fb8"}},{"fullUrl":"https://madie.cms.gov/Encounter/Encounter-14","resource":{"resourceType":"Encounter","id":"73a69d6f-3a73-4617-a61b-8c58d290c098","meta":{"profile":["http://hl7.org/fhir/us/qicore/StructureDefinition/qicore-encounter"]},"status":"finished","class":{"system":"http://terminology.hl7.org/CodeSystem/v3-ActCode","code":"AMB","display":"ambulatory"},"type":[{"coding":[{"system":"http://snomed.info/sct","code":"183921001","display":"Admission to hospice for respite (procedure)"}]}],"subject":{"reference":"Patient/e383c9a2-7b5e-4ab6-b2e2-642a2304d6e2"},"period":{"start":"2024-12-31T23:59:59.000Z","end":"2025-01-01T01:00:00.000Z"}},"request":{"method":"PUT","url":"Encounter/73a69d6f-3a73-4617-a61b-8c58d290c098"}},{"fullUrl":"https://madie.cms.gov/MeasureReport/f0afadb8-210f-4abf-beaf-9ff2085f5875","resource":{"resourceType":"MeasureReport","id":"f0afadb8-210f-4abf-beaf-9ff2085f5875","meta":{"profile":["http://hl7.org/fhir/us/cqfmeasures/StructureDefinition/test-case-cqfm"]},"contained":[{"resourceType":"Parameters","id":"86bb59e1-269d-44eb-9216-58b1e712190f-parameters","parameter":[{"name":"subject","valueString":"e383c9a2-7b5e-4ab6-b2e2-642a2304d6e2"}]}],"extension":[{"url":"http://hl7.org/fhir/us/cqfmeasures/StructureDefinition/cqfm-inputParameters","valueReference":{"reference":"#86bb59e1-269d-44eb-9216-58b1e712190f-parameters"}},{"url":"http://hl7.org/fhir/us/cqfmeasures/StructureDefinition/cqfm-testCaseDescription","valueMarkdown":"Hospice Encounter - For meeting 100% coverage"}],"modifierExtension":[{"url":"http://hl7.org/fhir/us/cqfmeasures/StructureDefinition/cqfm-isTestCase","valueBoolean":true}],"status":"complete","type":"individual","measure":"https://madie.cms.gov/Measure/PreventiveCareAndTobaccoUseScreeningAndCessationInterventionFHIR","period":{"start":"2025-01-01","end":"2025-12-31"},"group":[{"population":[{"code":{"coding":[{"system":"http://terminology.hl7.org/CodeSystem/measure-population","code":"initial-population","display":"Initial Population"}]},"count":1},{"code":{"coding":[{"system":"http://terminology.hl7.org/CodeSystem/measure-population","code":"denominator","display":"Denominator"}]},"count":1},{"code":{"coding":[{"system":"http://terminology.hl7.org/CodeSystem/measure-population","code":"denominator-exclusion","display":"Denominator Exclusion"}]},"count":1},{"code":{"coding":[{"system":"http://terminology.hl7.org/CodeSystem/measure-population","code":"numerator","display":"Numerator"}]},"count":0}]},{"population":[{"code":{"coding":[{"system":"http://terminology.hl7.org/CodeSystem/measure-population","code":"initial-population","display":"Initial Population"}]},"count":1},{"code":{"coding":[{"system":"http://terminology.hl7.org/CodeSystem/measure-population","code":"denominator","display":"Denominator"}]},"count":1},{"code":{"coding":[{"system":"http://terminology.hl7.org/CodeSystem/measure-population","code":"denominator-exclusion","display":"Denominator Exclusion"}]},"count":1},{"code":{"coding":[{"system":"http://terminology.hl7.org/CodeSystem/measure-population","code":"numerator","display":"Numerator"}]},"count":0}]},{"population":[{"code":{"coding":[{"system":"http://terminology.hl7.org/CodeSystem/measure-population","code":"initial-population","display":"Initial Population"}]},"count":1},{"code":{"coding":[{"system":"http://terminology.hl7.org/CodeSystem/measure-population","code":"denominator","display":"Denominator"}]},"count":1},{"code":{"coding":[{"system":"http://terminology.hl7.org/CodeSystem/measure-population","code":"denominator-exclusion","display":"Denominator Exclusion"}]},"count":1},{"code":{"coding":[{"system":"http://terminology.hl7.org/CodeSystem/measure-population","code":"numerator","display":"Numerator"}]},"count":0}]}]},"request":{"method":"PUT","url":"MeasureReport/f0afadb8-210f-4abf-beaf-9ff2085f5875"}}]}