{
  "resourceType": "Bundle",
  "id": "ipppass-age18",
  "type": "transaction",
  "entry": [ {
    "fullUrl": "https://madie.cms.gov/Patient/caf6f716-1c9c-46aa-9d3a-e82adec15ad4",
    "resource": {
      "resourceType": "Patient",
      "id": "caf6f716-1c9c-46aa-9d3a-e82adec15ad4",
      "meta": {
        "profile": [ "http://hl7.org/fhir/us/core/StructureDefinition/us-core-patient", "http://hl7.org/fhir/us/qicore/StructureDefinition/qicore-patient" ]
      },
      "extension": [ {
        "url": "http://hl7.org/fhir/us/core/StructureDefinition/us-core-race",
        "extension": [ {
          "url": "ombCategory",
          "valueCoding": {
            "system": "urn:oid:2.16.840.1.113883.6.238",
            "code": "2028-9",
            "display": "Asian"
          }
        }, {
          "url": "text",
          "valueString": "Asian"
        }, {
          "url": "detailed",
          "valueCoding": {
            "system": "urn:oid:2.16.840.1.113883.6.238",
            "code": "2036-2",
            "display": "Filipino"
          }
        } ]
      }, {
        "url": "http://hl7.org/fhir/us/core/StructureDefinition/us-core-ethnicity",
        "extension": [ {
          "url": "ombCategory",
          "valueCoding": {
            "system": "urn:oid:2.16.840.1.113883.6.238",
            "code": "2135-2",
            "display": "Hispanic or Latino"
          }
        }, {
          "url": "text",
          "valueString": "Hispanic or Latino"
        }, {
          "url": "detailed",
          "valueCoding": {
            "system": "urn:oid:2.16.840.1.113883.6.238",
            "code": "2143-6",
            "display": "Gallego"
          }
        } ]
      } ],
      "identifier": [ {
        "system": "http://hospital.smarthealthit.org",
        "value": "999999995"
      } ],
      "name": [ {
        "family": "Age18",
        "given": [ "IPPPass" ]
      } ],
      "gender": "female",
      "birthDate": "2007-01-01"
    },
    "request": {
      "method": "PUT",
      "url": "Patient/caf6f716-1c9c-46aa-9d3a-e82adec15ad4"
    }
  }, {
    "fullUrl": "https://madie.cms.gov/Encounter/f55afa51-f37a-4073-9447-457a49b345f7",
    "resource": {
      "resourceType": "Encounter",
      "id": "f55afa51-f37a-4073-9447-457a49b345f7",
      "meta": {
        "profile": [ "http://hl7.org/fhir/us/qicore/StructureDefinition/qicore-encounter" ]
      },
      "status": "finished",
      "class": {
        "system": "http://terminology.hl7.org/CodeSystem/v3-ActCode",
        "code": "IMP",
        "display": "inpatient encounter"
      },
      "type": [ {
        "coding": [ {
          "system": "http://snomed.info/sct",
          "code": "183452005",
          "display": "Emergency hospital admission"
        } ]
      } ],
      "subject": {
        "reference": "Patient/caf6f716-1c9c-46aa-9d3a-e82adec15ad4"
      },
      "period": {
        "start": "2026-01-01T00:00:00.000Z",
        "end": "2026-01-03T01:00:00.000Z"
      }
    },
    "request": {
      "method": "PUT",
      "url": "Encounter/f55afa51-f37a-4073-9447-457a49b345f7"
    }
  }, {
    "fullUrl": "https://madie.cms.gov/Observation/cf73ff18-20c2-4880-8db9-4e74d9afe1b4",
    "resource": {
      "resourceType": "Observation",
      "id": "cf73ff18-20c2-4880-8db9-4e74d9afe1b4",
      "meta": {
        "profile": [ "http://hl7.org/fhir/us/qicore/StructureDefinition/qicore-observation" ]
      },
      "status": "final",
      "category": [ {
        "coding": [ {
          "system": "http://terminology.hl7.org/CodeSystem/observation-category",
          "code": "imaging",
          "display": "Imaging"
        } ]
      } ],
      "code": {
        "coding": [ {
          "system": "http://loinc.org",
          "code": "96914-7",
          "display": "CT dose and image quality category"
        } ],
        "text": "CT dose and image quality category"
      },
      "subject": {
        "reference": "Patient/caf6f716-1c9c-46aa-9d3a-e82adec15ad4"
      },
      "encounter": {
        "reference": "Encounter/f55afa51-f37a-4073-9447-457a49b345f7"
      },
      "effectiveDateTime": "2026-01-02T00:00:00.000Z",
      "valueCodeableConcept": {
        "coding": [ {
          "system": "http://loinc.org",
          "code": "LA31752-1",
          "display": "Abdomen and Pelvis Low Dose"
        } ]
      },
      "component": [ {
        "code": {
          "coding": [ {
            "system": "http://loinc.org",
            "code": "96912-1",
            "display": "Calculated CT global noise"
          } ]
        },
        "valueQuantity": {
          "value": 63,
          "unit": "[hnsf'U]",
          "system": "http://unitsofmeasure.org",
          "code": "[hnsf'U]"
        }
      }, {
        "code": {
          "coding": [ {
            "system": "http://loinc.org",
            "code": "96913-9",
            "display": "Calculated CT size-adjusted dose"
          } ]
        },
        "valueQuantity": {
          "value": 597,
          "unit": "mGy.cm",
          "system": "http://unitsofmeasure.org",
          "code": "mGy.cm"
        }
      } ]
    },
    "request": {
      "method": "PUT",
      "url": "Observation/cf73ff18-20c2-4880-8db9-4e74d9afe1b4"
    }
  }, {
    "fullUrl": "https://madie.cms.gov/Coverage/0daee083-78e7-4927-9191-64392a34e609",
    "resource": {
      "resourceType": "Coverage",
      "id": "0daee083-78e7-4927-9191-64392a34e609",
      "meta": {
        "profile": [ "http://hl7.org/fhir/us/qicore/StructureDefinition/qicore-coverage" ]
      },
      "identifier": [ {
        "system": "http://benefitsinc.com/certificate",
        "value": "12345"
      } ],
      "status": "active",
      "type": {
        "coding": [ {
          "system": "https://nahdo.org/sopt",
          "code": "1",
          "display": "MEDICARE"
        } ]
      },
      "policyHolder": {
        "reference": "Patient/caf6f716-1c9c-46aa-9d3a-e82adec15ad4"
      },
      "subscriber": {
        "reference": "Patient/caf6f716-1c9c-46aa-9d3a-e82adec15ad4"
      },
      "beneficiary": {
        "reference": "Patient/caf6f716-1c9c-46aa-9d3a-e82adec15ad4"
      },
      "dependent": "0",
      "relationship": {
        "coding": [ {
          "system": "http://terminology.hl7.org/CodeSystem/subscriber-relationship",
          "code": "self"
        } ]
      },
      "period": {
        "start": "2022-05-23",
        "end": "2027-05-23"
      },
      "payor": [ {
        "reference": "Organization/Org-123456"
      } ],
      "order": 9
    },
    "request": {
      "method": "PUT",
      "url": "Coverage/0daee083-78e7-4927-9191-64392a34e609"
    }
  }, {
    "fullUrl": "https://madie.cms.gov/MeasureReport/51233f64-f7dd-481a-bd2a-fede938e0828",
    "resource": {
      "resourceType": "MeasureReport",
      "id": "51233f64-f7dd-481a-bd2a-fede938e0828",
      "meta": {
        "profile": [ "http://hl7.org/fhir/us/cqfmeasures/StructureDefinition/test-case-cqfm" ]
      },
      "contained": [ {
        "resourceType": "Parameters",
        "id": "ff5b78a8-4765-4e64-965b-de15be21223e-parameters",
        "parameter": [ {
          "name": "subject",
          "valueString": "caf6f716-1c9c-46aa-9d3a-e82adec15ad4"
        } ]
      } ],
      "extension": [ {
        "url": "http://hl7.org/fhir/us/cqfmeasures/StructureDefinition/cqfm-inputParameters",
        "valueReference": {
          "reference": "#ff5b78a8-4765-4e64-965b-de15be21223e-parameters"
        }
      }, {
        "url": "http://hl7.org/fhir/us/cqfmeasures/StructureDefinition/cqfm-testCaseDescription",
        "valueMarkdown": "Patient is just 18 at start of measurement period and should meet IPP"
      } ],
      "modifierExtension": [ {
        "url": "http://hl7.org/fhir/us/cqfmeasures/StructureDefinition/cqfm-isTestCase",
        "valueBoolean": true
      } ],
      "status": "complete",
      "type": "individual",
      "measure": "https://madie.cms.gov/Measure/AlaraCTIQRFHIR",
      "period": {
        "start": "2026-01-01",
        "end": "2026-12-31"
      },
      "group": [ {
        "population": [ {
          "code": {
            "coding": [ {
              "system": "http://terminology.hl7.org/CodeSystem/measure-population",
              "code": "initial-population",
              "display": "Initial Population"
            } ]
          },
          "count": 1
        }, {
          "code": {
            "coding": [ {
              "system": "http://terminology.hl7.org/CodeSystem/measure-population",
              "code": "denominator",
              "display": "Denominator"
            } ]
          },
          "count": 1
        }, {
          "code": {
            "coding": [ {
              "system": "http://terminology.hl7.org/CodeSystem/measure-population",
              "code": "denominator-exclusion",
              "display": "Denominator Exclusion"
            } ]
          },
          "count": 0
        }, {
          "code": {
            "coding": [ {
              "system": "http://terminology.hl7.org/CodeSystem/measure-population",
              "code": "numerator",
              "display": "Numerator"
            } ]
          },
          "count": 0
        } ]
      } ],
      "evaluatedResource": [ {
        "reference": "Patient/caf6f716-1c9c-46aa-9d3a-e82adec15ad4"
      }, {
        "reference": "Encounter/f55afa51-f37a-4073-9447-457a49b345f7"
      }, {
        "reference": "Observation/cf73ff18-20c2-4880-8db9-4e74d9afe1b4"
      }, {
        "reference": "Coverage/0daee083-78e7-4927-9191-64392a34e609"
      } ]
    },
    "request": {
      "method": "PUT",
      "url": "MeasureReport/51233f64-f7dd-481a-bd2a-fede938e0828"
    }
  } ]
}