{
  "resourceType": "Bundle",
  "id": "60f82c2e98086b570510e280",
  "type": "transaction",
  "entry": [ {
    "fullUrl": "https://madie.cms.gov/Patient/da480fb9-7501-46f5-9575-f15a638bc751",
    "resource": {
      "resourceType": "Patient",
      "id": "da480fb9-7501-46f5-9575-f15a638bc751",
      "meta": {
        "profile": [ "http://hl7.org/fhir/us/qicore/StructureDefinition/qicore-patient" ]
      },
      "text": {
        "status": "generated",
        "div": "<div xmlns=\"http://www.w3.org/1999/xhtml\"><div class=\"hapiHeaderText\">LOS&gt;2Days_EDB4EncIP <b>DENEXFAIL </b></div><table class=\"hapiPropertyTable\"><tbody><tr><td>Identifier</td><td>96ae3fd09d21aef1d8b07c1b7dc995d3</td></tr><tr><td>Date of birth</td><td><span>21 August 1993</span></td></tr></tbody></table></div>"
      },
      "extension": [ {
        "url": "http://hl7.org/fhir/us/core/StructureDefinition/us-core-race",
        "extension": [ {
          "url": "ombCategory",
          "valueCoding": {
            "system": "urn:oid:2.16.840.1.113883.6.238",
            "code": "1002-5",
            "display": "American Indian or Alaska Native",
            "userSelected": true
          }
        }, {
          "url": "text",
          "valueString": "American Indian or Alaska Native"
        } ]
      }, {
        "url": "http://hl7.org/fhir/us/core/StructureDefinition/us-core-ethnicity",
        "extension": [ {
          "url": "ombCategory",
          "valueCoding": {
            "system": "urn:oid:2.16.840.1.113883.6.238",
            "code": "2135-2",
            "display": "Hispanic or Latino",
            "userSelected": true
          }
        }, {
          "url": "text",
          "valueString": "Hispanic or Latino"
        } ]
      } ],
      "identifier": [ {
        "type": {
          "coding": [ {
            "system": "http://terminology.hl7.org/CodeSystem/v2-0203",
            "code": "MR"
          } ]
        },
        "system": "https://bonnie-fhir.healthit.gov/",
        "value": "60f82c2e98086b570510e280"
      } ],
      "active": true,
      "name": [ {
        "use": "usual",
        "family": "DENEXFail",
        "given": [ "LOS>2Days_EDB4EncIP" ]
      } ],
      "gender": "male",
      "birthDate": "1994-08-21"
    },
    "request": {
      "method": "PUT",
      "url": "Patient/da480fb9-7501-46f5-9575-f15a638bc751"
    }
  }, {
    "fullUrl": "https://madie.cms.gov/Encounter/a7904b7c-456f-4085-9b5e-372cb5e87a25",
    "resource": {
      "resourceType": "Encounter",
      "id": "a7904b7c-456f-4085-9b5e-372cb5e87a25",
      "meta": {
        "profile": [ "http://hl7.org/fhir/us/qicore/StructureDefinition/qicore-encounter" ]
      },
      "status": "finished",
      "class": {
        "system": "http://terminology.hl7.org/CodeSystem/v3-ActCode",
        "code": "EMER",
        "display": "emergency",
        "userSelected": true
      },
      "type": [ {
        "coding": [ {
          "system": "http://snomed.info/sct",
          "code": "4525004"
        } ]
      } ],
      "subject": {
        "reference": "Patient/da480fb9-7501-46f5-9575-f15a638bc751"
      },
      "period": {
        "start": "2026-08-19T08:00:00+00:00",
        "end": "2026-08-20T21:30:00+00:00"
      },
      "length": {
        "value": 1,
        "unit": "days"
      }
    },
    "request": {
      "method": "PUT",
      "url": "Encounter/a7904b7c-456f-4085-9b5e-372cb5e87a25"
    }
  }, {
    "fullUrl": "https://madie.cms.gov/Encounter/ab1db851-b903-4c5c-92db-c1356984e1d1",
    "resource": {
      "resourceType": "Encounter",
      "id": "ab1db851-b903-4c5c-92db-c1356984e1d1",
      "meta": {
        "profile": [ "http://hl7.org/fhir/us/qicore/StructureDefinition/qicore-encounter" ]
      },
      "status": "finished",
      "class": {
        "system": "http://terminology.hl7.org/CodeSystem/v3-ActCode",
        "code": "IMP",
        "display": "inpatient encounter",
        "userSelected": true
      },
      "type": [ {
        "coding": [ {
          "system": "http://snomed.info/sct",
          "code": "32485007"
        } ]
      } ],
      "subject": {
        "reference": "Patient/da480fb9-7501-46f5-9575-f15a638bc751"
      },
      "period": {
        "start": "2026-08-20T22:00:00+00:00",
        "end": "2026-08-22T12:00:00+00:00"
      },
      "length": {
        "value": 2,
        "unit": "days"
      },
      "diagnosis": [ {
        "condition": {
          "reference": "Condition/7c2dfd8e-026b-4c64-abdc-6b0378c3d87a"
        },
        "use": {
          "coding": [ {
            "system": "http://terminology.hl7.org/CodeSystem/diagnosis-role",
            "code": "billing",
            "display": "Billing"
          } ]
        },
        "rank": 1
      } ]
    },
    "request": {
      "method": "PUT",
      "url": "Encounter/ab1db851-b903-4c5c-92db-c1356984e1d1"
    }
  }, {
    "fullUrl": "https://madie.cms.gov/Coverage/42bf8909-97fb-4b8c-9399-6c1955e975e4",
    "resource": {
      "resourceType": "Coverage",
      "id": "42bf8909-97fb-4b8c-9399-6c1955e975e4",
      "status": "active",
      "beneficiary": {
        "reference": "Patient/da480fb9-7501-46f5-9575-f15a638bc751"
      },
      "period": {
        "start": "1994-08-21T07:00:00+00:00"
      },
      "payor": [ {
        "reference": "Organization/50c405f1-0fb7-4d18-9cc8-ece1a1a46a75"
      } ]
    },
    "request": {
      "method": "PUT",
      "url": "Coverage/42bf8909-97fb-4b8c-9399-6c1955e975e4"
    }
  }, {
    "fullUrl": "https://madie.cms.gov/Condition/7c2dfd8e-026b-4c64-abdc-6b0378c3d87a",
    "resource": {
      "resourceType": "Condition",
      "id": "7c2dfd8e-026b-4c64-abdc-6b0378c3d87a",
      "meta": {
        "profile": [ "http://hl7.org/fhir/us/qicore/StructureDefinition/qicore-condition" ]
      },
      "clinicalStatus": {
        "coding": [ {
          "system": "http://terminology.hl7.org/CodeSystem/condition-clinical",
          "code": "active"
        } ]
      },
      "verificationStatus": {
        "coding": [ {
          "system": "http://terminology.hl7.org/CodeSystem/condition-ver-status",
          "code": "confirmed"
        } ]
      },
      "category": [ {
        "coding": [ {
          "system": "http://terminology.hl7.org/CodeSystem/condition-category",
          "code": "encounter-diagnosis",
          "display": "Encounter Diagnosis"
        } ]
      } ],
      "code": {
        "coding": [ {
          "system": "http://snomed.info/sct",
          "version": "2020-09",
          "code": "111297002",
          "display": "Nonparalytic stroke (disorder)",
          "userSelected": true
        } ]
      },
      "subject": {
        "reference": "Patient/da480fb9-7501-46f5-9575-f15a638bc751"
      },
      "recordedDate": "2026-08-12T08:00:00.000+00:00"
    },
    "request": {
      "method": "PUT",
      "url": "Condition/7c2dfd8e-026b-4c64-abdc-6b0378c3d87a"
    }
  }, {
    "fullUrl": "https://madie.cms.gov/Organization/50c405f1-0fb7-4d18-9cc8-ece1a1a46a75",
    "resource": {
      "resourceType": "Organization",
      "id": "50c405f1-0fb7-4d18-9cc8-ece1a1a46a75",
      "meta": {
        "profile": [ "http://hl7.org/fhir/us/qicore/StructureDefinition/qicore-organization" ]
      },
      "identifier": [ {
        "use": "temp",
        "system": "urn:oid:2.16.840.1.113883.4.4",
        "value": "21-3259825"
      } ],
      "active": true,
      "type": [ {
        "coding": [ {
          "system": "http://terminology.hl7.org/CodeSystem/organization-type",
          "code": "pay",
          "display": "Payer"
        } ]
      } ],
      "name": "Blue Cross Blue Shield of Texas",
      "telecom": [ {
        "system": "phone",
        "value": "(+1) 972-766-6900"
      } ],
      "address": [ {
        "use": "billing",
        "type": "postal",
        "line": [ "P.O. Box 660044" ],
        "city": "Dallas",
        "state": "TX",
        "postalCode": "75266-0044",
        "country": "USA"
      } ]
    },
    "request": {
      "method": "PUT",
      "url": "Organization/50c405f1-0fb7-4d18-9cc8-ece1a1a46a75"
    }
  }, {
    "fullUrl": "https://madie.cms.gov/MeasureReport/1a1e869f-5628-4a86-b720-0924a47add24",
    "resource": {
      "resourceType": "MeasureReport",
      "id": "1a1e869f-5628-4a86-b720-0924a47add24",
      "meta": {
        "profile": [ "http://hl7.org/fhir/us/cqfmeasures/StructureDefinition/test-case-cqfm" ]
      },
      "contained": [ {
        "resourceType": "Parameters",
        "id": "71358a44-828c-45b8-ab2a-ffa0a91d557c-parameters",
        "parameter": [ {
          "name": "subject",
          "valueString": "da480fb9-7501-46f5-9575-f15a638bc751"
        } ]
      } ],
      "extension": [ {
        "url": "http://hl7.org/fhir/us/cqfmeasures/StructureDefinition/cqfm-inputParameters",
        "valueReference": {
          "reference": "#71358a44-828c-45b8-ab2a-ffa0a91d557c-parameters"
        }
      }, {
        "url": "http://hl7.org/fhir/us/cqfmeasures/StructureDefinition/cqfm-testCaseDescription",
        "valueMarkdown": "LOS=3 days, Patient has  ED Visit <= 1 hour ends before IP encounter and starts > 2 days before end of IP , global.Hospitalization ( = Ed +IP)\n"
      } ],
      "modifierExtension": [ {
        "url": "http://hl7.org/fhir/us/cqfmeasures/StructureDefinition/cqfm-isTestCase",
        "valueBoolean": true
      } ],
      "status": "complete",
      "type": "individual",
      "measure": "https://madie.cms.gov/Measure/CMS72FHIRSTKAntithromboticDay2",
      "period": {
        "start": "2026-01-01",
        "end": "2026-12-31"
      },
      "group": [ {
        "population": [ {
          "code": {
            "coding": [ {
              "system": "http://terminology.hl7.org/CodeSystem/measure-population",
              "code": "initial-population",
              "display": "Initial Population"
            } ]
          },
          "count": 1
        }, {
          "code": {
            "coding": [ {
              "system": "http://terminology.hl7.org/CodeSystem/measure-population",
              "code": "denominator",
              "display": "Denominator"
            } ]
          },
          "count": 1
        }, {
          "code": {
            "coding": [ {
              "system": "http://terminology.hl7.org/CodeSystem/measure-population",
              "code": "denominator-exclusion",
              "display": "Denominator Exclusion"
            } ]
          },
          "count": 0
        }, {
          "code": {
            "coding": [ {
              "system": "http://terminology.hl7.org/CodeSystem/measure-population",
              "code": "numerator",
              "display": "Numerator"
            } ]
          },
          "count": 0
        }, {
          "code": {
            "coding": [ {
              "system": "http://terminology.hl7.org/CodeSystem/measure-population",
              "code": "denominator-exception",
              "display": "Denominator Exception"
            } ]
          },
          "count": 0
        } ]
      } ],
      "evaluatedResource": [ {
        "reference": "Patient/da480fb9-7501-46f5-9575-f15a638bc751"
      }, {
        "reference": "Encounter/a7904b7c-456f-4085-9b5e-372cb5e87a25"
      }, {
        "reference": "Encounter/ab1db851-b903-4c5c-92db-c1356984e1d1"
      }, {
        "reference": "Coverage/42bf8909-97fb-4b8c-9399-6c1955e975e4"
      }, {
        "reference": "Condition/7c2dfd8e-026b-4c64-abdc-6b0378c3d87a"
      }, {
        "reference": "Organization/50c405f1-0fb7-4d18-9cc8-ece1a1a46a75"
      } ]
    },
    "request": {
      "method": "PUT",
      "url": "MeasureReport/1a1e869f-5628-4a86-b720-0924a47add24"
    }
  } ]
}