{"resourceType":"Bundle","id":"tests-87011e54-9905-4753-b2ae-8676f61f4c2b-bundle","type":"transaction","entry":[{"fullUrl":"https://madie.cms.gov/Patient/87011e54-9905-4753-b2ae-8676f61f4c2b","resource":{"resourceType":"Patient","id":"87011e54-9905-4753-b2ae-8676f61f4c2b","meta":{"profile":["http://hl7.org/fhir/us/core/StructureDefinition/us-core-patient","http://hl7.org/fhir/us/qicore/StructureDefinition/qicore-patient"]},"extension":[{"url":"http://hl7.org/fhir/us/core/StructureDefinition/us-core-race","extension":[{"url":"ombCategory","valueCoding":{"system":"urn:oid:2.16.840.1.113883.6.238","code":"2028-9","display":"Asian"}},{"url":"text","valueString":"Asian"}]},{"url":"http://hl7.org/fhir/us/core/StructureDefinition/us-core-ethnicity","extension":[{"url":"ombCategory","valueCoding":{"system":"urn:oid:2.16.840.1.113883.6.238","code":"2135-2","display":"Hispanic or Latino"}},{"url":"text","valueString":"Hispanic or Latino"}]}],"identifier":[{"system":"http://hospital.smarthealthit.org","value":"999999995"}],"name":[{"family":"MissingResults","given":["DENOMFail"]}],"gender":"female","birthDate":"1986-06-12"},"request":{"method":"PUT","url":"Patient/87011e54-9905-4753-b2ae-8676f61f4c2b"}},{"fullUrl":"https://madie.cms.gov/Observation/denomfail-missingresults-2","resource":{"resourceType":"Observation","id":"denomfail-missingresults-2","meta":{"profile":["http://hl7.org/fhir/us/qicore/StructureDefinition/qicore-observation"]},"status":"final","category":[{"coding":[{"system":"http://terminology.hl7.org/CodeSystem/observation-category","code":"imaging","display":"Imaging"}]}],"code":{"coding":[{"system":"http://loinc.org","code":"96914-7","display":"CT dose and image quality category"}],"text":"CT dose and image quality category"},"subject":{"reference":"Patient/87011e54-9905-4753-b2ae-8676f61f4c2b"},"effectiveDateTime":"2025-03-02T00:00:00.000Z","valueCodeableConcept":{"coding":[{"system":"http://alaracare.com","code":"ABDOPEL RT","display":"Abdomen or Pelvis Routine Dose"}]}},"request":{"method":"PUT","url":"Observation/denomfail-missingresults-2"}},{"fullUrl":"https://madie.cms.gov/MeasureReport/3e27d43c-706b-419c-8f55-c773feee740a","resource":{"resourceType":"MeasureReport","id":"3e27d43c-706b-419c-8f55-c773feee740a","meta":{"profile":["http://hl7.org/fhir/us/cqfmeasures/StructureDefinition/test-case-cqfm"]},"contained":[{"resourceType":"Parameters","id":"fac98fff-ccf3-4d2a-96c3-fdbec2ccbcbc-parameters","parameter":[{"name":"subject","valueString":"87011e54-9905-4753-b2ae-8676f61f4c2b"}]}],"extension":[{"url":"http://hl7.org/fhir/us/cqfmeasures/StructureDefinition/cqfm-inputParameters","valueReference":{"reference":"#fac98fff-ccf3-4d2a-96c3-fdbec2ccbcbc-parameters"}},{"url":"http://hl7.org/fhir/us/cqfmeasures/StructureDefinition/cqfm-testCaseDescription","valueMarkdown":"Patient has a valid CT Scan but the results are missing"}],"modifierExtension":[{"url":"http://hl7.org/fhir/us/cqfmeasures/StructureDefinition/cqfm-isTestCase","valueBoolean":true}],"status":"complete","type":"individual","measure":"https://madie.cms.gov/Measure/ALARACTOQRFHIR","period":{"start":"2025-01-01","end":"2025-12-31"},"group":[{"population":[{"code":{"coding":[{"system":"http://terminology.hl7.org/CodeSystem/measure-population","code":"initial-population","display":"Initial Population"}]},"count":1},{"code":{"coding":[{"system":"http://terminology.hl7.org/CodeSystem/measure-population","code":"denominator","display":"Denominator"}]},"count":0},{"code":{"coding":[{"system":"http://terminology.hl7.org/CodeSystem/measure-population","code":"denominator-exclusion","display":"Denominator Exclusion"}]},"count":0},{"code":{"coding":[{"system":"http://terminology.hl7.org/CodeSystem/measure-population","code":"numerator","display":"Numerator"}]},"count":0}]}],"evaluatedResource":[{"reference":"Patient/87011e54-9905-4753-b2ae-8676f61f4c2b"},{"reference":"Observation/denomfail-missingresults-2"}]},"request":{"method":"PUT","url":"MeasureReport/3e27d43c-706b-419c-8f55-c773feee740a"}}]}