{"resourceType":"Bundle","id":"tests-eca36e7f-95ed-4395-933e-44899a268b79-bundle","type":"transaction","entry":[{"fullUrl":"https://madie.cms.gov/Patient/eca36e7f-95ed-4395-933e-44899a268b79","resource":{"resourceType":"Patient","id":"eca36e7f-95ed-4395-933e-44899a268b79","meta":{"profile":["http://hl7.org/fhir/us/core/StructureDefinition/us-core-patient","http://hl7.org/fhir/us/qicore/StructureDefinition/qicore-patient"]},"extension":[{"url":"http://hl7.org/fhir/us/core/StructureDefinition/us-core-race","extension":[{"url":"ombCategory","valueCoding":{"system":"urn:oid:2.16.840.1.113883.6.238","code":"2028-9","display":"Asian"}},{"url":"text","valueString":"Asian"}]},{"url":"http://hl7.org/fhir/us/core/StructureDefinition/us-core-ethnicity","extension":[{"url":"ombCategory","valueCoding":{"system":"urn:oid:2.16.840.1.113883.6.238","code":"2135-2","display":"Hispanic or Latino"}},{"url":"text","valueString":"Hispanic or Latino"}]}],"identifier":[{"system":"http://hospital.smarthealthit.org","value":"999999995"}],"name":[{"family":"AllScans","given":["DENOMPass"]}],"gender":"female","birthDate":"1986-06-12"},"request":{"method":"PUT","url":"Patient/eca36e7f-95ed-4395-933e-44899a268b79"}},{"fullUrl":"https://madie.cms.gov/Observation/denompass-allscans-2","resource":{"resourceType":"Observation","id":"aabf805f-e353-437b-b473-31a293a35413","meta":{"profile":["http://hl7.org/fhir/us/qicore/StructureDefinition/qicore-observation"]},"status":"final","category":[{"coding":[{"system":"http://terminology.hl7.org/CodeSystem/observation-category","code":"imaging","display":"Imaging"}]}],"code":{"coding":[{"system":"http://loinc.org","code":"96914-7","display":"CT dose and image quality category"}],"text":"CT dose and image quality category"},"subject":{"reference":"Patient/eca36e7f-95ed-4395-933e-44899a268b79"},"effectiveDateTime":"2025-01-02T00:00:00.000Z","valueCodeableConcept":{"coding":[{"system":"http://loinc.org","code":"LA31752-1","display":"Abdomen and Pelvis Low Dose"}]},"component":[{"code":{"coding":[{"system":"http://loinc.org","code":"96912-1","display":"Calculated CT global noise"}]},"valueQuantity":{"value":63,"unit":"[hnsf'U]","system":"http://unitsofmeasure.org","code":"[hnsf'U]"}},{"code":{"coding":[{"system":"http://loinc.org","code":"96913-9","display":"Calculated CT size-adjusted dose"}]},"valueQuantity":{"value":597,"unit":"mGy.cm","system":"http://unitsofmeasure.org","code":"mGy.cm"}}]},"request":{"method":"PUT","url":"Observation/aabf805f-e353-437b-b473-31a293a35413"}},{"fullUrl":"https://madie.cms.gov/Observation/denompass-allscans-3","resource":{"resourceType":"Observation","id":"7e2f3635-d0c5-4af6-bd78-b88c378e1f4f","meta":{"profile":["http://hl7.org/fhir/us/qicore/StructureDefinition/qicore-observation"]},"status":"final","category":[{"coding":[{"system":"http://terminology.hl7.org/CodeSystem/observation-category","code":"imaging","display":"Imaging"}]}],"code":{"coding":[{"system":"http://loinc.org","code":"96914-7","display":"CT dose and image quality category"}],"text":"CT dose and image quality category"},"subject":{"reference":"Patient/eca36e7f-95ed-4395-933e-44899a268b79"},"effectiveDateTime":"2025-01-02T00:00:00.000Z","valueCodeableConcept":{"coding":[{"system":"http://loinc.org","code":"LA31753-9","display":"Abdomen and Pelvis Routine Dose"}]},"component":[{"code":{"coding":[{"system":"http://loinc.org","code":"96912-1","display":"Calculated CT global noise"}]},"valueQuantity":{"value":28,"unit":"[hnsf'U]","system":"http://unitsofmeasure.org","code":"[hnsf'U]"}},{"code":{"coding":[{"system":"http://loinc.org","code":"96913-9","display":"Calculated CT size-adjusted dose"}]},"valueQuantity":{"value":643,"unit":"mGy.cm","system":"http://unitsofmeasure.org","code":"mGy.cm"}}]},"request":{"method":"PUT","url":"Observation/7e2f3635-d0c5-4af6-bd78-b88c378e1f4f"}},{"fullUrl":"https://madie.cms.gov/Observation/denompass-allscans-4","resource":{"resourceType":"Observation","id":"6066d48c-322c-4567-9817-aea7ecbd8120","meta":{"profile":["http://hl7.org/fhir/us/qicore/StructureDefinition/qicore-observation"]},"status":"final","category":[{"coding":[{"system":"http://terminology.hl7.org/CodeSystem/observation-category","code":"imaging","display":"Imaging"}]}],"code":{"coding":[{"system":"http://loinc.org","code":"96914-7","display":"CT dose and image quality category"}],"text":"CT dose and image quality category"},"subject":{"reference":"Patient/eca36e7f-95ed-4395-933e-44899a268b79"},"effectiveDateTime":"2025-01-02T00:00:00.000Z","valueCodeableConcept":{"coding":[{"system":"http://loinc.org","code":"LA31754-7","display":"Abdomen and Pelvis High Dose"}]},"component":[{"code":{"coding":[{"system":"http://loinc.org","code":"96912-1","display":"Calculated CT global noise"}]},"valueQuantity":{"value":28,"unit":"[hnsf'U]","system":"http://unitsofmeasure.org","code":"[hnsf'U]"}},{"code":{"coding":[{"system":"http://loinc.org","code":"96913-9","display":"Calculated CT size-adjusted dose"}]},"valueQuantity":{"value":1259,"unit":"mGy.cm","system":"http://unitsofmeasure.org","code":"mGy.cm"}}]},"request":{"method":"PUT","url":"Observation/6066d48c-322c-4567-9817-aea7ecbd8120"}},{"fullUrl":"https://madie.cms.gov/Observation/denompass-allscans-5","resource":{"resourceType":"Observation","id":"fff4a598-230d-4e75-ba37-02cfe3a1f2f8","meta":{"profile":["http://hl7.org/fhir/us/qicore/StructureDefinition/qicore-observation"]},"status":"final","category":[{"coding":[{"system":"http://terminology.hl7.org/CodeSystem/observation-category","code":"imaging","display":"Imaging"}]}],"code":{"coding":[{"system":"http://loinc.org","code":"96914-7","display":"CT dose and image quality category"}],"text":"CT dose and image quality category"},"subject":{"reference":"Patient/eca36e7f-95ed-4395-933e-44899a268b79"},"effectiveDateTime":"2025-01-02T00:00:00.000Z","valueCodeableConcept":{"coding":[{"system":"http://loinc.org","code":"LA31755-4","display":"Cardiac Low Dose"}]},"component":[{"code":{"coding":[{"system":"http://loinc.org","code":"96912-1","display":"Calculated CT global noise"}]},"valueQuantity":{"value":54,"unit":"[hnsf'U]","system":"http://unitsofmeasure.org","code":"[hnsf'U]"}},{"code":{"coding":[{"system":"http://loinc.org","code":"96913-9","display":"Calculated CT size-adjusted dose"}]},"valueQuantity":{"value":92,"unit":"mGy.cm","system":"http://unitsofmeasure.org","code":"mGy.cm"}}]},"request":{"method":"PUT","url":"Observation/fff4a598-230d-4e75-ba37-02cfe3a1f2f8"}},{"fullUrl":"https://madie.cms.gov/Observation/denompass-allscans-6","resource":{"resourceType":"Observation","id":"4b4dadcd-94ce-46d7-9ada-c3072703f17c","meta":{"profile":["http://hl7.org/fhir/us/qicore/StructureDefinition/qicore-observation"]},"status":"final","category":[{"coding":[{"system":"http://terminology.hl7.org/CodeSystem/observation-category","code":"imaging","display":"Imaging"}]}],"code":{"coding":[{"system":"http://loinc.org","code":"96914-7","display":"CT dose and image quality category"}],"text":"CT dose and image quality category"},"subject":{"reference":"Patient/eca36e7f-95ed-4395-933e-44899a268b79"},"effectiveDateTime":"2025-01-02T00:00:00.000Z","valueCodeableConcept":{"coding":[{"system":"http://loinc.org","code":"LA31756-2","display":"Cardiac Routine Dose"}]},"component":[{"code":{"coding":[{"system":"http://loinc.org","code":"96912-1","display":"Calculated CT global noise"}]},"valueQuantity":{"value":31,"unit":"[hnsf'U]","system":"http://unitsofmeasure.org","code":"[hnsf'U]"}},{"code":{"coding":[{"system":"http://loinc.org","code":"96913-9","display":"Calculated CT size-adjusted dose"}]},"valueQuantity":{"value":575,"unit":"mGy.cm","system":"http://unitsofmeasure.org","code":"mGy.cm"}}]},"request":{"method":"PUT","url":"Observation/4b4dadcd-94ce-46d7-9ada-c3072703f17c"}},{"fullUrl":"https://madie.cms.gov/Observation/denompass-allscans-7","resource":{"resourceType":"Observation","id":"21a0d0da-6699-41b7-a47d-294c49df99c9","meta":{"profile":["http://hl7.org/fhir/us/qicore/StructureDefinition/qicore-observation"]},"status":"final","category":[{"coding":[{"system":"http://terminology.hl7.org/CodeSystem/observation-category","code":"imaging","display":"Imaging"}]}],"code":{"coding":[{"system":"http://loinc.org","code":"96914-7","display":"CT dose and image quality category"}],"text":"CT dose and image quality category"},"subject":{"reference":"Patient/eca36e7f-95ed-4395-933e-44899a268b79"},"effectiveDateTime":"2025-01-02T00:00:00.000Z","valueCodeableConcept":{"coding":[{"system":"http://loinc.org","code":"LA31758-8","display":"Chest Low Dose"}]},"component":[{"code":{"coding":[{"system":"http://loinc.org","code":"96912-1","display":"Calculated CT global noise"}]},"valueQuantity":{"value":54,"unit":"[hnsf'U]","system":"http://unitsofmeasure.org","code":"[hnsf'U]"}},{"code":{"coding":[{"system":"http://loinc.org","code":"96913-9","display":"Calculated CT size-adjusted dose"}]},"valueQuantity":{"value":376,"unit":"mGy.cm","system":"http://unitsofmeasure.org","code":"mGy.cm"}}]},"request":{"method":"PUT","url":"Observation/21a0d0da-6699-41b7-a47d-294c49df99c9"}},{"fullUrl":"https://madie.cms.gov/Observation/denompass-allscans-8","resource":{"resourceType":"Observation","id":"9bbed511-62ff-44e4-9197-b7e068dae741","meta":{"profile":["http://hl7.org/fhir/us/qicore/StructureDefinition/qicore-observation"]},"status":"final","category":[{"coding":[{"system":"http://terminology.hl7.org/CodeSystem/observation-category","code":"imaging","display":"Imaging"}]}],"code":{"coding":[{"system":"http://loinc.org","code":"96914-7","display":"CT dose and image quality category"}],"text":"CT dose and image quality category"},"subject":{"reference":"Patient/eca36e7f-95ed-4395-933e-44899a268b79"},"effectiveDateTime":"2025-01-02T00:00:00.000Z","valueCodeableConcept":{"coding":[{"system":"http://loinc.org","code":"LA31759-6","display":"Chest Routine Dose"}]},"component":[{"code":{"coding":[{"system":"http://loinc.org","code":"96912-1","display":"Calculated CT global noise"}]},"valueQuantity":{"value":48,"unit":"[hnsf'U]","system":"http://unitsofmeasure.org","code":"[hnsf'U]"}},{"code":{"coding":[{"system":"http://loinc.org","code":"96913-9","display":"Calculated CT size-adjusted dose"}]},"valueQuantity":{"value":376,"unit":"mGy.cm","system":"http://unitsofmeasure.org","code":"mGy.cm"}}]},"request":{"method":"PUT","url":"Observation/9bbed511-62ff-44e4-9197-b7e068dae741"}},{"fullUrl":"https://madie.cms.gov/Observation/denompass-allscans-9","resource":{"resourceType":"Observation","id":"68984d40-7f14-4059-9212-6214d17b8a06","meta":{"profile":["http://hl7.org/fhir/us/qicore/StructureDefinition/qicore-observation"]},"status":"final","category":[{"coding":[{"system":"http://terminology.hl7.org/CodeSystem/observation-category","code":"imaging","display":"Imaging"}]}],"code":{"coding":[{"system":"http://loinc.org","code":"96914-7","display":"CT dose and image quality category"}],"text":"CT dose and image quality category"},"subject":{"reference":"Patient/eca36e7f-95ed-4395-933e-44899a268b79"},"effectiveDateTime":"2025-01-02T00:00:00.000Z","valueCodeableConcept":{"coding":[{"system":"http://loinc.org","code":"LA31761-2","display":"Cardiac High Dose or Chest High Dose"}]},"component":[{"code":{"coding":[{"system":"http://loinc.org","code":"96912-1","display":"Calculated CT global noise"}]},"valueQuantity":{"value":48,"unit":"[hnsf'U]","system":"http://unitsofmeasure.org","code":"[hnsf'U]"}},{"code":{"coding":[{"system":"http://loinc.org","code":"96913-9","display":"Calculated CT size-adjusted dose"}]},"valueQuantity":{"value":1281,"unit":"mGy.cm","system":"http://unitsofmeasure.org","code":"mGy.cm"}}]},"request":{"method":"PUT","url":"Observation/68984d40-7f14-4059-9212-6214d17b8a06"}},{"fullUrl":"https://madie.cms.gov/Observation/denompass-allscans-10","resource":{"resourceType":"Observation","id":"c37c3ae9-15b8-49cb-a0e8-9260e0412382","meta":{"profile":["http://hl7.org/fhir/us/qicore/StructureDefinition/qicore-observation"]},"status":"final","category":[{"coding":[{"system":"http://terminology.hl7.org/CodeSystem/observation-category","code":"imaging","display":"Imaging"}]}],"code":{"coding":[{"system":"http://loinc.org","code":"96914-7","display":"CT dose and image quality category"}],"text":"CT dose and image quality category"},"subject":{"reference":"Patient/eca36e7f-95ed-4395-933e-44899a268b79"},"effectiveDateTime":"2025-01-02T00:00:00.000Z","valueCodeableConcept":{"coding":[{"system":"http://loinc.org","code":"LA31762-0","display":"Head Low Dose"}]},"component":[{"code":{"coding":[{"system":"http://loinc.org","code":"96912-1","display":"Calculated CT global noise"}]},"valueQuantity":{"value":114,"unit":"[hnsf'U]","system":"http://unitsofmeasure.org","code":"[hnsf'U]"}},{"code":{"coding":[{"system":"http://loinc.org","code":"96913-9","display":"Calculated CT size-adjusted dose"}]},"valueQuantity":{"value":581,"unit":"mGy.cm","system":"http://unitsofmeasure.org","code":"mGy.cm"}}]},"request":{"method":"PUT","url":"Observation/c37c3ae9-15b8-49cb-a0e8-9260e0412382"}},{"fullUrl":"https://madie.cms.gov/Observation/denompass-allscans-11","resource":{"resourceType":"Observation","id":"ac5c3568-b059-4a6f-a06f-09a3c99aa579","meta":{"profile":["http://hl7.org/fhir/us/qicore/StructureDefinition/qicore-observation"]},"status":"final","category":[{"coding":[{"system":"http://terminology.hl7.org/CodeSystem/observation-category","code":"imaging","display":"Imaging"}]}],"code":{"coding":[{"system":"http://loinc.org","code":"96914-7","display":"CT dose and image quality category"}],"text":"CT dose and image quality category"},"subject":{"reference":"Patient/eca36e7f-95ed-4395-933e-44899a268b79"},"effectiveDateTime":"2025-01-02T00:00:00.000Z","valueCodeableConcept":{"coding":[{"system":"http://loinc.org","code":"LA31763-8","display":"Head Routine Dose"}]},"component":[{"code":{"coding":[{"system":"http://loinc.org","code":"96912-1","display":"Calculated CT global noise"}]},"valueQuantity":{"value":114,"unit":"[hnsf'U]","system":"http://unitsofmeasure.org","code":"[hnsf'U]"}},{"code":{"coding":[{"system":"http://loinc.org","code":"96913-9","display":"Calculated CT size-adjusted dose"}]},"valueQuantity":{"value":1024,"unit":"mGy.cm","system":"http://unitsofmeasure.org","code":"mGy.cm"}}]},"request":{"method":"PUT","url":"Observation/ac5c3568-b059-4a6f-a06f-09a3c99aa579"}},{"fullUrl":"https://madie.cms.gov/Observation/denompass-allscans-12","resource":{"resourceType":"Observation","id":"3b6ce5fb-4a63-49bb-bee8-e5f8ea831c9d","meta":{"profile":["http://hl7.org/fhir/us/qicore/StructureDefinition/qicore-observation"]},"status":"final","category":[{"coding":[{"system":"http://terminology.hl7.org/CodeSystem/observation-category","code":"imaging","display":"Imaging"}]}],"code":{"coding":[{"system":"http://loinc.org","code":"96914-7","display":"CT dose and image quality category"}],"text":"CT dose and image quality category"},"subject":{"reference":"Patient/eca36e7f-95ed-4395-933e-44899a268b79"},"effectiveDateTime":"2025-01-02T00:00:00.000Z","valueCodeableConcept":{"coding":[{"system":"http://loinc.org","code":"LA31764-6","display":"Head High Dose"}]},"component":[{"code":{"coding":[{"system":"http://loinc.org","code":"96912-1","display":"Calculated CT global noise"}]},"valueQuantity":{"value":114,"unit":"[hnsf'U]","system":"http://unitsofmeasure.org","code":"[hnsf'U]"}},{"code":{"coding":[{"system":"http://loinc.org","code":"96913-9","display":"Calculated CT size-adjusted dose"}]},"valueQuantity":{"value":1024,"unit":"mGy.cm","system":"http://unitsofmeasure.org","code":"mGy.cm"}}]},"request":{"method":"PUT","url":"Observation/3b6ce5fb-4a63-49bb-bee8-e5f8ea831c9d"}},{"fullUrl":"https://madie.cms.gov/Observation/denompass-allscans-13","resource":{"resourceType":"Observation","id":"de486645-6330-4fa1-a194-865f3ab9a907","meta":{"profile":["http://hl7.org/fhir/us/qicore/StructureDefinition/qicore-observation"]},"status":"final","category":[{"coding":[{"system":"http://terminology.hl7.org/CodeSystem/observation-category","code":"imaging","display":"Imaging"}]}],"code":{"coding":[{"system":"http://loinc.org","code":"96914-7","display":"CT dose and image quality category"}],"text":"CT dose and image quality category"},"subject":{"reference":"Patient/eca36e7f-95ed-4395-933e-44899a268b79"},"effectiveDateTime":"2025-01-02T00:00:00.000Z","valueCodeableConcept":{"coding":[{"system":"http://loinc.org","code":"LA31765-3","display":"Extremity"}]},"component":[{"code":{"coding":[{"system":"http://loinc.org","code":"96912-1","display":"Calculated CT global noise"}]},"valueQuantity":{"value":72,"unit":"[hnsf'U]","system":"http://unitsofmeasure.org","code":"[hnsf'U]"}},{"code":{"coding":[{"system":"http://loinc.org","code":"96913-9","display":"Calculated CT size-adjusted dose"}]},"valueQuantity":{"value":319,"unit":"mGy.cm","system":"http://unitsofmeasure.org","code":"mGy.cm"}}]},"request":{"method":"PUT","url":"Observation/de486645-6330-4fa1-a194-865f3ab9a907"}},{"fullUrl":"https://madie.cms.gov/Observation/denompass-allscans-14","resource":{"resourceType":"Observation","id":"a567859f-e271-41c6-9f43-8ed8c26572a0","meta":{"profile":["http://hl7.org/fhir/us/qicore/StructureDefinition/qicore-observation"]},"status":"final","category":[{"coding":[{"system":"http://terminology.hl7.org/CodeSystem/observation-category","code":"imaging","display":"Imaging"}]}],"code":{"coding":[{"system":"http://loinc.org","code":"96914-7","display":"CT dose and image quality category"}],"text":"CT dose and image quality category"},"subject":{"reference":"Patient/eca36e7f-95ed-4395-933e-44899a268b79"},"effectiveDateTime":"2025-01-02T00:00:00.000Z","valueCodeableConcept":{"coding":[{"system":"http://loinc.org","code":"LA31766-1","display":"Neck or Cervical Spine"}]},"component":[{"code":{"coding":[{"system":"http://loinc.org","code":"96912-1","display":"Calculated CT global noise"}]},"valueQuantity":{"value":24,"unit":"[hnsf'U]","system":"http://unitsofmeasure.org","code":"[hnsf'U]"}},{"code":{"coding":[{"system":"http://loinc.org","code":"96913-9","display":"Calculated CT size-adjusted dose"}]},"valueQuantity":{"value":1259,"unit":"mGy.cm","system":"http://unitsofmeasure.org","code":"mGy.cm"}}]},"request":{"method":"PUT","url":"Observation/a567859f-e271-41c6-9f43-8ed8c26572a0"}},{"fullUrl":"https://madie.cms.gov/Observation/denompass-allscans-15","resource":{"resourceType":"Observation","id":"a2f11d1d-ce9e-40ba-abe8-ab2777b5887d","meta":{"profile":["http://hl7.org/fhir/us/qicore/StructureDefinition/qicore-observation"]},"status":"final","category":[{"coding":[{"system":"http://terminology.hl7.org/CodeSystem/observation-category","code":"imaging","display":"Imaging"}]}],"code":{"coding":[{"system":"http://loinc.org","code":"96914-7","display":"CT dose and image quality category"}],"text":"CT dose and image quality category"},"subject":{"reference":"Patient/eca36e7f-95ed-4395-933e-44899a268b79"},"effectiveDateTime":"2025-01-02T00:00:00.000Z","valueCodeableConcept":{"coding":[{"system":"http://loinc.org","code":"LA31767-9","display":"Thoracic or Lumbar Spine"}]},"component":[{"code":{"coding":[{"system":"http://loinc.org","code":"96912-1","display":"Calculated CT global noise"}]},"valueQuantity":{"value":24,"unit":"[hnsf'U]","system":"http://unitsofmeasure.org","code":"[hnsf'U]"}},{"code":{"coding":[{"system":"http://loinc.org","code":"96913-9","display":"Calculated CT size-adjusted dose"}]},"valueQuantity":{"value":1259,"unit":"mGy.cm","system":"http://unitsofmeasure.org","code":"mGy.cm"}}]},"request":{"method":"PUT","url":"Observation/a2f11d1d-ce9e-40ba-abe8-ab2777b5887d"}},{"fullUrl":"https://madie.cms.gov/Observation/denompass-allscans-16","resource":{"resourceType":"Observation","id":"fad56067-bb39-4745-8399-a4c61a74809c","meta":{"profile":["http://hl7.org/fhir/us/qicore/StructureDefinition/qicore-observation"]},"status":"final","category":[{"coding":[{"system":"http://terminology.hl7.org/CodeSystem/observation-category","code":"imaging","display":"Imaging"}]}],"code":{"coding":[{"system":"http://loinc.org","code":"96914-7","display":"CT dose and image quality category"}],"text":"CT dose and image quality category"},"subject":{"reference":"Patient/eca36e7f-95ed-4395-933e-44899a268b79"},"effectiveDateTime":"2025-01-02T00:00:00.000Z","valueCodeableConcept":{"coding":[{"system":"http://loinc.org","code":"LA31768-7","display":"Simultaneous Chest and Abdomen and Pelvis"}]},"component":[{"code":{"coding":[{"system":"http://loinc.org","code":"96912-1","display":"Calculated CT global noise"}]},"valueQuantity":{"value":28,"unit":"[hnsf'U]","system":"http://unitsofmeasure.org","code":"[hnsf'U]"}},{"code":{"coding":[{"system":"http://loinc.org","code":"96913-9","display":"Calculated CT size-adjusted dose"}]},"valueQuantity":{"value":1636,"unit":"mGy.cm","system":"http://unitsofmeasure.org","code":"mGy.cm"}}]},"request":{"method":"PUT","url":"Observation/fad56067-bb39-4745-8399-a4c61a74809c"}},{"fullUrl":"https://madie.cms.gov/Observation/denompass-allscans-17","resource":{"resourceType":"Observation","id":"f1e044e0-d86f-4e02-86a1-1b04bbfe38a4","meta":{"profile":["http://hl7.org/fhir/us/qicore/StructureDefinition/qicore-observation"]},"status":"final","category":[{"coding":[{"system":"http://terminology.hl7.org/CodeSystem/observation-category","code":"imaging","display":"Imaging"}]}],"code":{"coding":[{"system":"http://loinc.org","code":"96914-7","display":"CT dose and image quality category"}],"text":"CT dose and image quality category"},"subject":{"reference":"Patient/eca36e7f-95ed-4395-933e-44899a268b79"},"effectiveDateTime":"2025-01-02T00:00:00.000Z","valueCodeableConcept":{"coding":[{"system":"http://loinc.org","code":"LA31851-1","display":"Simultaneous Thoracic and Lumbar Spine"}]},"component":[{"code":{"coding":[{"system":"http://loinc.org","code":"96912-1","display":"Calculated CT global noise"}]},"valueQuantity":{"value":24,"unit":"[hnsf'U]","system":"http://unitsofmeasure.org","code":"[hnsf'U]"}},{"code":{"coding":[{"system":"http://loinc.org","code":"96913-9","display":"Calculated CT size-adjusted dose"}]},"valueQuantity":{"value":2519,"unit":"mGy.cm","system":"http://unitsofmeasure.org","code":"mGy.cm"}}]},"request":{"method":"PUT","url":"Observation/f1e044e0-d86f-4e02-86a1-1b04bbfe38a4"}},{"fullUrl":"https://madie.cms.gov/Observation/denompass-allscans-18","resource":{"resourceType":"Observation","id":"b1038cc2-b419-4f67-b80e-3df257a94ffe","meta":{"profile":["http://hl7.org/fhir/us/qicore/StructureDefinition/qicore-observation"]},"status":"final","category":[{"coding":[{"system":"http://terminology.hl7.org/CodeSystem/observation-category","code":"imaging","display":"Imaging"}]}],"code":{"coding":[{"system":"http://loinc.org","code":"96914-7","display":"CT dose and image quality category"}],"text":"CT dose and image quality category"},"subject":{"reference":"Patient/eca36e7f-95ed-4395-933e-44899a268b79"},"effectiveDateTime":"2025-01-02T00:00:00.000Z","valueCodeableConcept":{"coding":[{"system":"http://loinc.org","code":"LA31769-5","display":"Simultaneous Head and Neck Routine Dose"}]},"component":[{"code":{"coding":[{"system":"http://loinc.org","code":"96912-1","display":"Calculated CT global noise"}]},"valueQuantity":{"value":24,"unit":"[hnsf'U]","system":"http://unitsofmeasure.org","code":"[hnsf'U]"}},{"code":{"coding":[{"system":"http://loinc.org","code":"96913-9","display":"Calculated CT size-adjusted dose"}]},"valueQuantity":{"value":2284,"unit":"mGy.cm","system":"http://unitsofmeasure.org","code":"mGy.cm"}}]},"request":{"method":"PUT","url":"Observation/b1038cc2-b419-4f67-b80e-3df257a94ffe"}},{"fullUrl":"https://madie.cms.gov/Observation/denompass-allscans-19","resource":{"resourceType":"Observation","id":"33072cce-9026-4909-861b-eb97a11f14d6","meta":{"profile":["http://hl7.org/fhir/us/qicore/StructureDefinition/qicore-observation"]},"status":"final","category":[{"coding":[{"system":"http://terminology.hl7.org/CodeSystem/observation-category","code":"imaging","display":"Imaging"}]}],"code":{"coding":[{"system":"http://loinc.org","code":"96914-7","display":"CT dose and image quality category"}],"text":"CT dose and image quality category"},"subject":{"reference":"Patient/eca36e7f-95ed-4395-933e-44899a268b79"},"effectiveDateTime":"2025-01-02T00:00:00.000Z","valueCodeableConcept":{"coding":[{"system":"http://loinc.org","code":"LA31770-3","display":"Simultaneous Head and Neck High Dose"}]},"component":[{"code":{"coding":[{"system":"http://loinc.org","code":"96912-1","display":"Calculated CT global noise"}]},"valueQuantity":{"value":24,"unit":"[hnsf'U]","system":"http://unitsofmeasure.org","code":"[hnsf'U]"}},{"code":{"coding":[{"system":"http://loinc.org","code":"96913-9","display":"Calculated CT size-adjusted dose"}]},"valueQuantity":{"value":3091,"unit":"mGy.cm","system":"http://unitsofmeasure.org","code":"mGy.cm"}}]},"request":{"method":"PUT","url":"Observation/33072cce-9026-4909-861b-eb97a11f14d6"}},{"fullUrl":"https://madie.cms.gov/MeasureReport/dd93f416-4635-4043-aca9-01c0b6a58b54","resource":{"resourceType":"MeasureReport","id":"dd93f416-4635-4043-aca9-01c0b6a58b54","meta":{"profile":["http://hl7.org/fhir/us/cqfmeasures/StructureDefinition/test-case-cqfm"]},"contained":[{"resourceType":"Parameters","id":"47f6d170-f710-4322-9d14-29ff7cf9588d-parameters","parameter":[{"name":"subject","valueString":"eca36e7f-95ed-4395-933e-44899a268b79"}]}],"extension":[{"url":"http://hl7.org/fhir/us/cqfmeasures/StructureDefinition/cqfm-inputParameters","valueReference":{"reference":"#47f6d170-f710-4322-9d14-29ff7cf9588d-parameters"}},{"url":"http://hl7.org/fhir/us/cqfmeasures/StructureDefinition/cqfm-testCaseDescription","valueMarkdown":"Patient has every type of valid CTScan with good results"}],"modifierExtension":[{"url":"http://hl7.org/fhir/us/cqfmeasures/StructureDefinition/cqfm-isTestCase","valueBoolean":true}],"status":"complete","type":"individual","measure":"https://madie.cms.gov/Measure/ALARACTOQRFHIR","period":{"start":"2025-01-01","end":"2025-12-31"},"group":[{"population":[{"code":{"coding":[{"system":"http://terminology.hl7.org/CodeSystem/measure-population","code":"initial-population","display":"Initial Population"}]},"count":18},{"code":{"coding":[{"system":"http://terminology.hl7.org/CodeSystem/measure-population","code":"denominator","display":"Denominator"}]},"count":18},{"code":{"coding":[{"system":"http://terminology.hl7.org/CodeSystem/measure-population","code":"denominator-exclusion","display":"Denominator Exclusion"}]},"count":0},{"code":{"coding":[{"system":"http://terminology.hl7.org/CodeSystem/measure-population","code":"numerator","display":"Numerator"}]},"count":0}]}]},"request":{"method":"PUT","url":"MeasureReport/dd93f416-4635-4043-aca9-01c0b6a58b54"}}]}