{
  "resourceType": "Bundle",
  "id": "62ec286bea03a4ebacd6a07b",
  "type": "transaction",
  "entry": [ {
    "fullUrl": "https://madie.cms.gov/Patient/3142fb25-de49-42b7-aeb9-61ffe1c9a086",
    "resource": {
      "resourceType": "Patient",
      "id": "3142fb25-de49-42b7-aeb9-61ffe1c9a086",
      "meta": {
        "profile": [ "http://hl7.org/fhir/us/qicore/StructureDefinition/qicore-patient" ]
      },
      "extension": [ {
        "url": "http://hl7.org/fhir/us/core/StructureDefinition/us-core-race",
        "extension": [ {
          "url": "ombCategory",
          "valueCoding": {
            "system": "urn:oid:2.16.840.1.113883.6.238",
            "code": "2076-8",
            "display": "Native Hawaiian or Other Pacific Islander",
            "userSelected": true
          }
        }, {
          "url": "text",
          "valueString": "Native Hawaiian or Other Pacific Islander"
        } ]
      }, {
        "url": "http://hl7.org/fhir/us/core/StructureDefinition/us-core-ethnicity",
        "extension": [ {
          "url": "ombCategory",
          "valueCoding": {
            "system": "urn:oid:2.16.840.1.113883.6.238",
            "code": "2135-2",
            "display": "Hispanic or Latino",
            "userSelected": true
          }
        }, {
          "url": "text",
          "valueString": "Hispanic or Latino"
        } ]
      } ],
      "identifier": [ {
        "type": {
          "coding": [ {
            "system": "http://terminology.hl7.org/CodeSystem/v2-0203",
            "code": "MR"
          } ]
        },
        "system": "https://bonnie-fhir.healthit.gov/",
        "value": "62ec286bea03a4ebacd6a07b"
      } ],
      "name": [ {
        "family": "IPPDenomFail",
        "given": [ "Encounter1MinBeforeMPBegins" ]
      } ],
      "gender": "male",
      "birthDate": "2007-12-26"
    },
    "request": {
      "method": "PUT",
      "url": "Patient/3142fb25-de49-42b7-aeb9-61ffe1c9a086"
    }
  }, {
    "fullUrl": "https://madie.cms.gov/Encounter/encounter-to-document-medications-a07c",
    "resource": {
      "resourceType": "Encounter",
      "id": "encounter-to-document-medications-a07c",
      "meta": {
        "profile": [ "http://hl7.org/fhir/us/qicore/StructureDefinition/qicore-encounter" ]
      },
      "status": "finished",
      "class": {
        "system": "http://terminology.hl7.org/CodeSystem/v3-ActCode",
        "code": "IMP",
        "display": "inpatient encounter"
      },
      "type": [ {
        "coding": [ {
          "system": "http://snomed.info/sct",
          "version": "2022-03",
          "code": "10197000",
          "display": "Psychiatric interview and evaluation (procedure)",
          "userSelected": true
        } ]
      } ],
      "subject": {
        "reference": "Patient/3142fb25-de49-42b7-aeb9-61ffe1c9a086"
      },
      "period": {
        "start": "2024-12-31T08:00:00.000+00:00",
        "end": "2024-12-31T09:15:00.000+00:00"
      }
    },
    "request": {
      "method": "PUT",
      "url": "Encounter/encounter-to-document-medications-a07c"
    }
  }, {
    "fullUrl": "https://madie.cms.gov/MeasureReport/641ddd9c-aa4c-48f5-9422-ffc3f3de4c4c",
    "resource": {
      "resourceType": "MeasureReport",
      "id": "641ddd9c-aa4c-48f5-9422-ffc3f3de4c4c",
      "meta": {
        "profile": [ "http://hl7.org/fhir/us/cqfmeasures/StructureDefinition/test-case-cqfm" ]
      },
      "contained": [ {
        "resourceType": "Parameters",
        "id": "3397c9f0-bea4-4be4-9afd-1746df63a899-parameters",
        "parameter": [ {
          "name": "subject",
          "valueString": "3142fb25-de49-42b7-aeb9-61ffe1c9a086"
        } ]
      } ],
      "extension": [ {
        "url": "http://hl7.org/fhir/us/cqfmeasures/StructureDefinition/cqfm-inputParameters",
        "valueReference": {
          "reference": "#3397c9f0-bea4-4be4-9afd-1746df63a899-parameters"
        }
      }, {
        "url": "http://hl7.org/fhir/us/cqfmeasures/StructureDefinition/cqfm-testCaseDescription",
        "valueMarkdown": "Qualifying encounter 1 minute before MP begins"
      } ],
      "modifierExtension": [ {
        "url": "http://hl7.org/fhir/us/cqfmeasures/StructureDefinition/cqfm-isTestCase",
        "valueBoolean": true
      } ],
      "status": "complete",
      "type": "individual",
      "measure": "https://madie.cms.gov/Measure/DocumentationofCurrentMedicationsFHIR",
      "period": {
        "start": "2025-01-01",
        "end": "2025-12-31"
      },
      "group": [ {
        "population": [ {
          "code": {
            "coding": [ {
              "system": "http://terminology.hl7.org/CodeSystem/measure-population",
              "code": "initial-population",
              "display": "Initial Population"
            } ]
          },
          "count": 0
        }, {
          "code": {
            "coding": [ {
              "system": "http://terminology.hl7.org/CodeSystem/measure-population",
              "code": "denominator",
              "display": "Denominator"
            } ]
          },
          "count": 0
        }, {
          "code": {
            "coding": [ {
              "system": "http://terminology.hl7.org/CodeSystem/measure-population",
              "code": "numerator",
              "display": "Numerator"
            } ]
          },
          "count": 0
        }, {
          "code": {
            "coding": [ {
              "system": "http://terminology.hl7.org/CodeSystem/measure-population",
              "code": "denominator-exception",
              "display": "Denominator Exception"
            } ]
          },
          "count": 0
        } ]
      } ],
      "evaluatedResource": [ {
        "reference": "Patient/3142fb25-de49-42b7-aeb9-61ffe1c9a086"
      }, {
        "reference": "Encounter/encounter-to-document-medications-a07c"
      } ]
    },
    "request": {
      "method": "PUT",
      "url": "MeasureReport/641ddd9c-aa4c-48f5-9422-ffc3f3de4c4c"
    }
  } ]
}