{
  "resourceType": "Bundle",
  "id": "633c9d030968f8012250fc84",
  "type": "transaction",
  "entry": [ {
    "fullUrl": "https://madie.cms.gov/Patient/e8df70c5-74a8-4a26-871c-0301bcf9fd45",
    "resource": {
      "resourceType": "Patient",
      "id": "e8df70c5-74a8-4a26-871c-0301bcf9fd45",
      "meta": {
        "profile": [ "http://hl7.org/fhir/us/qicore/StructureDefinition/qicore-patient" ]
      },
      "text": {
        "status": "generated",
        "div": "<div xmlns=\"http://www.w3.org/1999/xhtml\"><div class=\"hapiHeaderText\">DENEXPass CMOdurEnc_ED&lt;1hrNoObsBFEnc <b>DENEXPASS </b></div><table class=\"hapiPropertyTable\"><tbody><tr><td>Identifier</td><td>49d4dc38463db4c2b58eeaff86ecd8cb</td></tr><tr><td>Date of birth</td><td><span>18 September 1985</span></td></tr></tbody></table></div>"
      },
      "extension": [ {
        "url": "http://hl7.org/fhir/us/core/StructureDefinition/us-core-race",
        "extension": [ {
          "url": "ombCategory",
          "valueCoding": {
            "system": "urn:oid:2.16.840.1.113883.6.238",
            "code": "1002-5",
            "display": "American Indian or Alaska Native",
            "userSelected": true
          }
        }, {
          "url": "text",
          "valueString": "American Indian or Alaska Native"
        } ]
      }, {
        "url": "http://hl7.org/fhir/us/core/StructureDefinition/us-core-ethnicity",
        "extension": [ {
          "url": "ombCategory",
          "valueCoding": {
            "system": "urn:oid:2.16.840.1.113883.6.238",
            "code": "2135-2",
            "display": "Hispanic or Latino",
            "userSelected": true
          }
        }, {
          "url": "text",
          "valueString": "Hispanic or Latino"
        } ]
      } ],
      "identifier": [ {
        "type": {
          "coding": [ {
            "system": "http://terminology.hl7.org/CodeSystem/v2-0203",
            "code": "MR"
          } ]
        },
        "system": "https://bonnie-fhir.healthit.gov/",
        "value": "633c9d030968f8012250fc84"
      } ],
      "active": true,
      "name": [ {
        "use": "usual",
        "family": "DENEXPass",
        "given": [ "DENEXPass CMOdurEnc_ED<1hrNoObsBFEnc" ]
      } ],
      "gender": "female",
      "birthDate": "1986-09-18"
    },
    "request": {
      "method": "PUT",
      "url": "Patient/e8df70c5-74a8-4a26-871c-0301bcf9fd45"
    }
  }, {
    "fullUrl": "https://madie.cms.gov/Condition/141fd9f9-ceb2-4144-9bda-df950fc24f98",
    "resource": {
      "resourceType": "Condition",
      "id": "141fd9f9-ceb2-4144-9bda-df950fc24f98",
      "meta": {
        "profile": [ "http://hl7.org/fhir/us/qicore/StructureDefinition/qicore-condition" ]
      },
      "clinicalStatus": {
        "coding": [ {
          "system": "http://terminology.hl7.org/CodeSystem/condition-clinical",
          "code": "inactive"
        } ]
      },
      "verificationStatus": {
        "coding": [ {
          "system": "http://terminology.hl7.org/CodeSystem/condition-ver-status",
          "code": "confirmed"
        } ]
      },
      "category": [ {
        "coding": [ {
          "system": "http://terminology.hl7.org/CodeSystem/condition-category",
          "code": "encounter-diagnosis",
          "display": "Encounter Diagnosis"
        } ]
      } ],
      "code": {
        "coding": [ {
          "system": "http://hl7.org/fhir/sid/icd-10-cm",
          "code": "I48.20"
        }, {
          "system": "http://hl7.org/fhir/sid/icd-10-cm",
          "code": "I48.0"
        }, {
          "system": "http://snomed.info/sct",
          "code": "5370000"
        } ]
      },
      "subject": {
        "reference": "Patient/e8df70c5-74a8-4a26-871c-0301bcf9fd45"
      },
      "onsetDateTime": "2026-10-01T09:00:00.000Z",
      "abatementDateTime": "2026-10-12T00:15:00.000Z"
    },
    "request": {
      "method": "PUT",
      "url": "Condition/141fd9f9-ceb2-4144-9bda-df950fc24f98"
    }
  }, {
    "fullUrl": "https://madie.cms.gov/Encounter/5e897a54-b930-40d4-83ee-dea121291b5a",
    "resource": {
      "resourceType": "Encounter",
      "id": "5e897a54-b930-40d4-83ee-dea121291b5a",
      "meta": {
        "profile": [ "http://hl7.org/fhir/us/qicore/StructureDefinition/qicore-encounter" ]
      },
      "status": "finished",
      "class": {
        "system": "http://terminology.hl7.org/CodeSystem/v3-ActCode",
        "code": "EMER",
        "display": "emergency"
      },
      "type": [ {
        "coding": [ {
          "system": "http://snomed.info/sct",
          "code": "4525004"
        } ]
      } ],
      "subject": {
        "reference": "Patient/e8df70c5-74a8-4a26-871c-0301bcf9fd45"
      },
      "period": {
        "start": "2026-10-01T09:00:00.000Z",
        "end": "2026-10-01T11:00:00.000Z"
      },
      "length": {
        "value": 0,
        "unit": "days"
      }
    },
    "request": {
      "method": "PUT",
      "url": "Encounter/5e897a54-b930-40d4-83ee-dea121291b5a"
    }
  }, {
    "fullUrl": "https://madie.cms.gov/Encounter/a5754f43-ab1b-4380-b0a4-af8c0ae8cdbb",
    "resource": {
      "resourceType": "Encounter",
      "id": "a5754f43-ab1b-4380-b0a4-af8c0ae8cdbb",
      "meta": {
        "profile": [ "http://hl7.org/fhir/us/qicore/StructureDefinition/qicore-encounter" ]
      },
      "status": "finished",
      "class": {
        "system": "http://terminology.hl7.org/CodeSystem/v3-ActCode",
        "code": "IMP",
        "display": "inpatient encounter"
      },
      "type": [ {
        "coding": [ {
          "system": "http://snomed.info/sct",
          "code": "32485007"
        } ]
      } ],
      "subject": {
        "reference": "Patient/e8df70c5-74a8-4a26-871c-0301bcf9fd45"
      },
      "period": {
        "start": "2026-10-01T11:59:00.000Z",
        "end": "2026-10-12T00:15:00.000Z"
      },
      "length": {
        "value": 11,
        "unit": "days"
      },
      "diagnosis": [ {
        "condition": {
          "reference": "Condition/1451a555-086d-43fd-be08-e85c5db70c3d"
        },
        "use": {
          "coding": [ {
            "system": "http://terminology.hl7.org/CodeSystem/diagnosis-role",
            "code": "billing",
            "display": "Billing"
          } ]
        },
        "rank": 1
      } ]
    },
    "request": {
      "method": "PUT",
      "url": "Encounter/a5754f43-ab1b-4380-b0a4-af8c0ae8cdbb"
    }
  }, {
    "fullUrl": "https://madie.cms.gov/ServiceRequest/4d20236a-5e79-416b-98bf-f825fbe8ca57",
    "resource": {
      "resourceType": "ServiceRequest",
      "id": "4d20236a-5e79-416b-98bf-f825fbe8ca57",
      "meta": {
        "profile": [ "http://hl7.org/fhir/us/qicore/StructureDefinition/qicore-servicerequest" ]
      },
      "status": "active",
      "intent": "order",
      "code": {
        "coding": [ {
          "system": "http://snomed.info/sct",
          "code": "133918004"
        } ]
      },
      "subject": {
        "reference": "Patient/e8df70c5-74a8-4a26-871c-0301bcf9fd45"
      },
      "authoredOn": "2026-10-01T11:30:00.000+00:00"
    },
    "request": {
      "method": "PUT",
      "url": "ServiceRequest/4d20236a-5e79-416b-98bf-f825fbe8ca57"
    }
  }, {
    "fullUrl": "https://madie.cms.gov/Coverage/49b030cf-a2bd-4363-9c90-3f4d7c56c207",
    "resource": {
      "resourceType": "Coverage",
      "id": "49b030cf-a2bd-4363-9c90-3f4d7c56c207",
      "status": "active",
      "beneficiary": {
        "reference": "Patient/e8df70c5-74a8-4a26-871c-0301bcf9fd45"
      },
      "period": {
        "start": "1986-09-18T08:00:00.000Z"
      },
      "payor": [ {
        "reference": "Organization/7ff0d172-67fa-44ea-a304-6afd86e5fa7f"
      } ]
    },
    "request": {
      "method": "PUT",
      "url": "Coverage/49b030cf-a2bd-4363-9c90-3f4d7c56c207"
    }
  }, {
    "fullUrl": "https://madie.cms.gov/Condition/1451a555-086d-43fd-be08-e85c5db70c3d",
    "resource": {
      "resourceType": "Condition",
      "id": "1451a555-086d-43fd-be08-e85c5db70c3d",
      "meta": {
        "profile": [ "http://hl7.org/fhir/us/qicore/StructureDefinition/qicore-condition" ]
      },
      "clinicalStatus": {
        "coding": [ {
          "system": "http://terminology.hl7.org/CodeSystem/condition-clinical",
          "code": "active"
        } ]
      },
      "verificationStatus": {
        "coding": [ {
          "system": "http://terminology.hl7.org/CodeSystem/condition-ver-status",
          "code": "confirmed"
        } ]
      },
      "category": [ {
        "coding": [ {
          "system": "http://terminology.hl7.org/CodeSystem/condition-category",
          "code": "encounter-diagnosis",
          "display": "Encounter Diagnosis"
        } ]
      } ],
      "code": {
        "coding": [ {
          "system": "http://snomed.info/sct",
          "version": "2021-09",
          "code": "111297002",
          "display": "Nonparalytic stroke (disorder)",
          "userSelected": true
        } ]
      },
      "subject": {
        "reference": "Patient/e8df70c5-74a8-4a26-871c-0301bcf9fd45"
      },
      "recordedDate": "2026-10-13T08:00:00.000+00:00"
    },
    "request": {
      "method": "PUT",
      "url": "Condition/1451a555-086d-43fd-be08-e85c5db70c3d"
    }
  }, {
    "fullUrl": "https://madie.cms.gov/Organization/7ff0d172-67fa-44ea-a304-6afd86e5fa7f",
    "resource": {
      "resourceType": "Organization",
      "id": "7ff0d172-67fa-44ea-a304-6afd86e5fa7f",
      "meta": {
        "profile": [ "http://hl7.org/fhir/us/qicore/StructureDefinition/qicore-organization" ]
      },
      "identifier": [ {
        "use": "temp",
        "system": "urn:oid:2.16.840.1.113883.4.4",
        "value": "21-3259825"
      } ],
      "active": true,
      "type": [ {
        "coding": [ {
          "system": "http://terminology.hl7.org/CodeSystem/organization-type",
          "code": "pay",
          "display": "Payer"
        } ]
      } ],
      "name": "Blue Cross Blue Shield of Texas",
      "telecom": [ {
        "system": "phone",
        "value": "(+1) 972-766-6900"
      } ],
      "address": [ {
        "use": "billing",
        "type": "postal",
        "line": [ "P.O. Box 660044" ],
        "city": "Dallas",
        "state": "TX",
        "postalCode": "75266-0044",
        "country": "USA"
      } ]
    },
    "request": {
      "method": "PUT",
      "url": "Organization/7ff0d172-67fa-44ea-a304-6afd86e5fa7f"
    }
  }, {
    "fullUrl": "https://madie.cms.gov/Practitioner/ebe8f858-eb45-4223-80a2-cd72deb959ef",
    "resource": {
      "resourceType": "Practitioner",
      "id": "ebe8f858-eb45-4223-80a2-cd72deb959ef",
      "identifier": [ {
        "system": "http://hl7.org/fhir/sid/us-npi",
        "value": "123456"
      } ],
      "name": [ {
        "family": "Evil",
        "prefix": [ "Dr" ]
      } ]
    },
    "request": {
      "method": "PUT",
      "url": "Practitioner/ebe8f858-eb45-4223-80a2-cd72deb959ef"
    }
  }, {
    "fullUrl": "https://madie.cms.gov/MeasureReport/7757921a-f380-46bf-b76f-6ba708a82e97",
    "resource": {
      "resourceType": "MeasureReport",
      "id": "7757921a-f380-46bf-b76f-6ba708a82e97",
      "meta": {
        "profile": [ "http://hl7.org/fhir/us/cqfmeasures/StructureDefinition/test-case-cqfm" ]
      },
      "contained": [ {
        "resourceType": "Parameters",
        "id": "284bb83b-e686-447e-9025-4f84f320cd29-parameters",
        "parameter": [ {
          "name": "subject",
          "valueString": "e8df70c5-74a8-4a26-871c-0301bcf9fd45"
        } ]
      } ],
      "extension": [ {
        "url": "http://hl7.org/fhir/us/cqfmeasures/StructureDefinition/cqfm-inputParameters",
        "valueReference": {
          "reference": "#284bb83b-e686-447e-9025-4f84f320cd29-parameters"
        }
      }, {
        "url": "http://hl7.org/fhir/us/cqfmeasures/StructureDefinition/cqfm-testCaseDescription",
        "valueMarkdown": "Patient receives CMO during inpatient encounter. ED starts 59 minutes before inpatient encounter start on the same day. No Observation. Testing day of operator with HospitalizationWithObservation function.\n"
      } ],
      "modifierExtension": [ {
        "url": "http://hl7.org/fhir/us/cqfmeasures/StructureDefinition/cqfm-isTestCase",
        "valueBoolean": true
      } ],
      "status": "complete",
      "type": "individual",
      "measure": "https://madie.cms.gov/Measure/CMS71FHIRSTKAnticoagAFFlutter",
      "period": {
        "start": "2026-01-01",
        "end": "2026-12-31"
      },
      "group": [ {
        "population": [ {
          "code": {
            "coding": [ {
              "system": "http://terminology.hl7.org/CodeSystem/measure-population",
              "code": "initial-population",
              "display": "Initial Population"
            } ]
          },
          "count": 1
        }, {
          "code": {
            "coding": [ {
              "system": "http://terminology.hl7.org/CodeSystem/measure-population",
              "code": "denominator",
              "display": "Denominator"
            } ]
          },
          "count": 1
        }, {
          "code": {
            "coding": [ {
              "system": "http://terminology.hl7.org/CodeSystem/measure-population",
              "code": "denominator-exclusion",
              "display": "Denominator Exclusion"
            } ]
          },
          "count": 1
        }, {
          "code": {
            "coding": [ {
              "system": "http://terminology.hl7.org/CodeSystem/measure-population",
              "code": "numerator",
              "display": "Numerator"
            } ]
          },
          "count": 0
        }, {
          "code": {
            "coding": [ {
              "system": "http://terminology.hl7.org/CodeSystem/measure-population",
              "code": "denominator-exception",
              "display": "Denominator Exception"
            } ]
          },
          "count": 0
        } ]
      } ],
      "evaluatedResource": [ {
        "reference": "Patient/e8df70c5-74a8-4a26-871c-0301bcf9fd45"
      }, {
        "reference": "Condition/141fd9f9-ceb2-4144-9bda-df950fc24f98"
      }, {
        "reference": "Encounter/5e897a54-b930-40d4-83ee-dea121291b5a"
      }, {
        "reference": "Encounter/a5754f43-ab1b-4380-b0a4-af8c0ae8cdbb"
      }, {
        "reference": "ServiceRequest/4d20236a-5e79-416b-98bf-f825fbe8ca57"
      }, {
        "reference": "Coverage/49b030cf-a2bd-4363-9c90-3f4d7c56c207"
      }, {
        "reference": "Condition/1451a555-086d-43fd-be08-e85c5db70c3d"
      }, {
        "reference": "Organization/7ff0d172-67fa-44ea-a304-6afd86e5fa7f"
      }, {
        "reference": "Practitioner/ebe8f858-eb45-4223-80a2-cd72deb959ef"
      } ]
    },
    "request": {
      "method": "PUT",
      "url": "MeasureReport/7757921a-f380-46bf-b76f-6ba708a82e97"
    }
  } ]
}