{
  "resourceType": "Bundle",
  "id": "NUMERPass-TwoInjuriesOnePOAOneNPOAOneFallNPOA",
  "type": "transaction",
  "entry": [ {
    "fullUrl": "https://madie.cms.gov/Encounter/f1376d8c-fb03-414b-8f83-d3d5c78854f0",
    "resource": {
      "resourceType": "Encounter",
      "id": "f1376d8c-fb03-414b-8f83-d3d5c78854f0",
      "meta": {
        "profile": [ "http://hl7.org/fhir/us/qicore/StructureDefinition/qicore-encounter" ]
      },
      "status": "finished",
      "class": {
        "system": "http://terminology.hl7.org/CodeSystem/v3-ActCode",
        "code": "IMP",
        "display": "inpatient encounter"
      },
      "type": [ {
        "coding": [ {
          "system": "http://snomed.info/sct",
          "code": "183452005"
        } ]
      } ],
      "subject": {
        "reference": "Patient/735a7993-89b8-4b21-87c2-d5f57df0f5a8"
      },
      "period": {
        "start": "2026-11-09T11:15:00+00:00",
        "end": "2026-11-13T08:15:00+00:00"
      },
      "diagnosis": [ {
        "extension": [ {
          "url": "http://hl7.org/fhir/us/qicore/StructureDefinition/qicore-encounter-diagnosisPresentOnAdmission",
          "valueCodeableConcept": {
            "coding": [ {
              "system": "https://www.cms.gov/Medicare/Medicare-Fee-for-Service-Payment/HospitalAcqCond/Coding",
              "code": "N"
            } ]
          }
        } ],
        "condition": {
          "reference": "Condition/TwoInjuriesOnePOAOneNPOAOneFallNPOA-1"
        }
      }, {
        "extension": [ {
          "url": "http://hl7.org/fhir/us/qicore/StructureDefinition/qicore-encounter-diagnosisPresentOnAdmission",
          "valueCodeableConcept": {
            "coding": [ {
              "system": "https://www.cms.gov/Medicare/Medicare-Fee-for-Service-Payment/HospitalAcqCond/Coding",
              "code": "Y"
            } ]
          }
        } ],
        "condition": {
          "reference": "Condition/NUMERPass-TwoInjuriesOnePOAOneNPOAOneFallNPOA-2"
        }
      }, {
        "extension": [ {
          "url": "http://hl7.org/fhir/us/qicore/StructureDefinition/qicore-encounter-diagnosisPresentOnAdmission",
          "valueCodeableConcept": {
            "coding": [ {
              "system": "https://www.cms.gov/Medicare/Medicare-Fee-for-Service-Payment/HospitalAcqCond/Coding",
              "code": "N"
            } ]
          }
        } ],
        "condition": {
          "reference": "Condition/NUMERPass-TwoInjuriesOnePOAOneNPOAOneFallNPOA-3"
        }
      } ]
    },
    "request": {
      "method": "PUT",
      "url": "Encounter/f1376d8c-fb03-414b-8f83-d3d5c78854f0"
    }
  }, {
    "fullUrl": "https://madie.cms.gov/Encounter/82fc3eda-0d53-44ff-8c26-87c51044b0c5",
    "resource": {
      "resourceType": "Encounter",
      "id": "82fc3eda-0d53-44ff-8c26-87c51044b0c5",
      "meta": {
        "profile": [ "http://hl7.org/fhir/us/qicore/StructureDefinition/qicore-encounter" ]
      },
      "status": "finished",
      "class": {
        "system": "http://terminology.hl7.org/CodeSystem/v3-ActCode",
        "code": "IMP",
        "display": "inpatient encounter"
      },
      "type": [ {
        "coding": [ {
          "system": "http://snomed.info/sct",
          "code": "4525004"
        } ]
      } ],
      "subject": {
        "reference": "Patient/735a7993-89b8-4b21-87c2-d5f57df0f5a8"
      },
      "period": {
        "start": "2026-11-09T08:00:00+00:00",
        "end": "2026-11-09T10:15:00+00:00"
      }
    },
    "request": {
      "method": "PUT",
      "url": "Encounter/82fc3eda-0d53-44ff-8c26-87c51044b0c5"
    }
  }, {
    "fullUrl": "https://madie.cms.gov/Condition/4b0b4467-b1fd-4cd8-ba83-eda82e56e3c3",
    "resource": {
      "resourceType": "Condition",
      "id": "4b0b4467-b1fd-4cd8-ba83-eda82e56e3c3",
      "meta": {
        "profile": [ "http://hl7.org/fhir/us/qicore/StructureDefinition/qicore-condition" ]
      },
      "clinicalStatus": {
        "coding": [ {
          "system": "http://terminology.hl7.org/CodeSystem/condition-clinical",
          "code": "active"
        } ]
      },
      "verificationStatus": {
        "coding": [ {
          "system": "http://terminology.hl7.org/CodeSystem/condition-ver-status",
          "code": "confirmed"
        } ]
      },
      "category": [ {
        "coding": [ {
          "system": "http://terminology.hl7.org/CodeSystem/condition-category",
          "code": "encounter-diagnosis",
          "display": "Encounter Diagnosis"
        } ]
      } ],
      "code": {
        "coding": [ {
          "system": "http://snomed.info/sct",
          "code": "242389003"
        } ]
      },
      "subject": {
        "reference": "Patient/735a7993-89b8-4b21-87c2-d5f57df0f5a8"
      },
      "encounter": {
        "reference": "Encounter/f1376d8c-fb03-414b-8f83-d3d5c78854f0"
      }
    },
    "request": {
      "method": "PUT",
      "url": "Condition/4b0b4467-b1fd-4cd8-ba83-eda82e56e3c3"
    }
  }, {
    "fullUrl": "https://madie.cms.gov/Condition/3d301bb7-fd1a-44f4-8d59-7e35715f353e",
    "resource": {
      "resourceType": "Condition",
      "id": "3d301bb7-fd1a-44f4-8d59-7e35715f353e",
      "meta": {
        "profile": [ "http://hl7.org/fhir/us/qicore/StructureDefinition/qicore-condition" ]
      },
      "clinicalStatus": {
        "coding": [ {
          "system": "http://terminology.hl7.org/CodeSystem/condition-clinical",
          "code": "active"
        } ]
      },
      "verificationStatus": {
        "coding": [ {
          "system": "http://terminology.hl7.org/CodeSystem/condition-ver-status",
          "code": "confirmed"
        } ]
      },
      "category": [ {
        "coding": [ {
          "system": "http://terminology.hl7.org/CodeSystem/condition-category",
          "code": "encounter-diagnosis",
          "display": "Encounter Diagnosis"
        } ]
      } ],
      "code": {
        "coding": [ {
          "system": "http://hl7.org/fhir/sid/icd-10-cm",
          "code": "S01.302A"
        } ]
      },
      "subject": {
        "reference": "Patient/735a7993-89b8-4b21-87c2-d5f57df0f5a8"
      },
      "encounter": {
        "reference": "Encounter/f1376d8c-fb03-414b-8f83-d3d5c78854f0"
      }
    },
    "request": {
      "method": "PUT",
      "url": "Condition/3d301bb7-fd1a-44f4-8d59-7e35715f353e"
    }
  }, {
    "fullUrl": "https://madie.cms.gov/Condition/f33cd290-6a28-479b-a25b-e6cd9bbb2a6c",
    "resource": {
      "resourceType": "Condition",
      "id": "f33cd290-6a28-479b-a25b-e6cd9bbb2a6c",
      "meta": {
        "profile": [ "http://hl7.org/fhir/us/qicore/StructureDefinition/qicore-condition" ]
      },
      "clinicalStatus": {
        "coding": [ {
          "system": "http://terminology.hl7.org/CodeSystem/condition-clinical",
          "code": "active"
        } ]
      },
      "verificationStatus": {
        "coding": [ {
          "system": "http://terminology.hl7.org/CodeSystem/condition-ver-status",
          "code": "confirmed"
        } ]
      },
      "category": [ {
        "coding": [ {
          "system": "http://terminology.hl7.org/CodeSystem/condition-category",
          "code": "encounter-diagnosis",
          "display": "Encounter Diagnosis"
        } ]
      } ],
      "code": {
        "coding": [ {
          "system": "http://hl7.org/fhir/sid/icd-10-cm",
          "code": "S02.841B"
        } ]
      },
      "subject": {
        "reference": "Patient/735a7993-89b8-4b21-87c2-d5f57df0f5a8"
      },
      "encounter": {
        "reference": "Encounter/f1376d8c-fb03-414b-8f83-d3d5c78854f0"
      }
    },
    "request": {
      "method": "PUT",
      "url": "Condition/f33cd290-6a28-479b-a25b-e6cd9bbb2a6c"
    }
  }, {
    "fullUrl": "https://madie.cms.gov/Patient/735a7993-89b8-4b21-87c2-d5f57df0f5a8",
    "resource": {
      "resourceType": "Patient",
      "id": "735a7993-89b8-4b21-87c2-d5f57df0f5a8",
      "meta": {
        "profile": [ "http://hl7.org/fhir/us/qicore/StructureDefinition/qicore-patient" ]
      },
      "extension": [ {
        "url": "http://hl7.org/fhir/us/core/StructureDefinition/us-core-race",
        "extension": [ {
          "url": "ombCategory",
          "valueCoding": {
            "system": "urn:oid:2.16.840.1.113883.6.238",
            "code": "2028-9",
            "display": "Asian",
            "userSelected": true
          }
        }, {
          "url": "text",
          "valueString": "Asian"
        } ]
      }, {
        "url": "http://hl7.org/fhir/us/core/StructureDefinition/us-core-ethnicity",
        "extension": [ {
          "url": "ombCategory",
          "valueCoding": {
            "system": "urn:oid:2.16.840.1.113883.6.238",
            "code": "2186-5",
            "display": "Not Hispanic or Latino",
            "userSelected": true
          }
        }, {
          "url": "text",
          "valueString": "Not Hispanic or Latino"
        } ]
      } ],
      "identifier": [ {
        "type": {
          "coding": [ {
            "system": "http://terminology.hl7.org/CodeSystem/v2-0203",
            "code": "MR"
          } ]
        },
        "system": "https://bonnie-fhir.healthit.gov/",
        "value": "61152a3b98086b7a79cbd7c1"
      } ],
      "active": true,
      "name": [ {
        "use": "usual",
        "family": "NUMERPass",
        "given": [ "TwoInjuriesOnePOAOneNPOAOneFallNPOA" ]
      } ],
      "gender": "male",
      "birthDate": "2000-09-09"
    },
    "request": {
      "method": "PUT",
      "url": "Patient/735a7993-89b8-4b21-87c2-d5f57df0f5a8"
    }
  }, {
    "fullUrl": "https://madie.cms.gov/MeasureReport/abc2a0cd-7d7c-4513-8b58-72dec44a60b2",
    "resource": {
      "resourceType": "MeasureReport",
      "id": "abc2a0cd-7d7c-4513-8b58-72dec44a60b2",
      "meta": {
        "profile": [ "http://hl7.org/fhir/us/cqfmeasures/StructureDefinition/test-case-cqfm" ]
      },
      "contained": [ {
        "resourceType": "Parameters",
        "id": "a93af440-c2b7-4e20-98d4-6407e27852d9-parameters",
        "parameter": [ {
          "name": "subject",
          "valueString": "735a7993-89b8-4b21-87c2-d5f57df0f5a8"
        } ]
      } ],
      "extension": [ {
        "url": "http://hl7.org/fhir/us/cqfmeasures/StructureDefinition/cqfm-inputParameters",
        "valueReference": {
          "reference": "#a93af440-c2b7-4e20-98d4-6407e27852d9-parameters"
        }
      }, {
        "url": "http://hl7.org/fhir/us/cqfmeasures/StructureDefinition/cqfm-testCaseDescription",
        "valueMarkdown": "Encounter diagnoses include a major injury NPOA and a moderate injury POA. Has one fall NPOA. Numerator Pass."
      } ],
      "modifierExtension": [ {
        "url": "http://hl7.org/fhir/us/cqfmeasures/StructureDefinition/cqfm-isTestCase",
        "valueBoolean": true
      } ],
      "status": "complete",
      "type": "individual",
      "measure": "https://madie.cms.gov/Measure/FallsWithInjuryFHIR",
      "period": {
        "start": "2026-01-01",
        "end": "2026-12-31"
      },
      "group": [ {
        "population": [ {
          "code": {
            "coding": [ {
              "system": "http://terminology.hl7.org/CodeSystem/measure-population",
              "code": "initial-population",
              "display": "Initial Population"
            } ]
          },
          "count": 1
        }, {
          "code": {
            "coding": [ {
              "system": "http://terminology.hl7.org/CodeSystem/measure-population",
              "code": "denominator",
              "display": "Denominator"
            } ]
          },
          "count": 1
        }, {
          "code": {
            "coding": [ {
              "system": "http://terminology.hl7.org/CodeSystem/measure-population",
              "code": "denominator-exclusion",
              "display": "Denominator Exclusion"
            } ]
          },
          "count": 0
        }, {
          "code": {
            "coding": [ {
              "system": "http://terminology.hl7.org/CodeSystem/measure-population",
              "code": "numerator",
              "display": "Numerator"
            } ]
          },
          "count": 0
        }, {
          "code": {
            "coding": [ {
              "system": "http://terminology.hl7.org/CodeSystem/measure-population",
              "code": "numerator-exclusion",
              "display": "Numerator Exclusion"
            } ]
          },
          "count": 0
        }, {
          "code": {
            "coding": [ {
              "system": "http://terminology.hl7.org/CodeSystem/measure-population",
              "code": "denominator-observation",
              "display": "DenominatorObservation"
            } ]
          },
          "count": 4
        } ]
      } ],
      "evaluatedResource": [ {
        "reference": "Encounter/f1376d8c-fb03-414b-8f83-d3d5c78854f0"
      }, {
        "reference": "Encounter/82fc3eda-0d53-44ff-8c26-87c51044b0c5"
      }, {
        "reference": "Condition/4b0b4467-b1fd-4cd8-ba83-eda82e56e3c3"
      }, {
        "reference": "Condition/3d301bb7-fd1a-44f4-8d59-7e35715f353e"
      }, {
        "reference": "Condition/f33cd290-6a28-479b-a25b-e6cd9bbb2a6c"
      }, {
        "reference": "Patient/735a7993-89b8-4b21-87c2-d5f57df0f5a8"
      } ]
    },
    "request": {
      "method": "PUT",
      "url": "MeasureReport/abc2a0cd-7d7c-4513-8b58-72dec44a60b2"
    }
  } ]
}