{
  "resourceType": "Bundle",
  "id": "NUMEXFail-InjuryPOAandNPOA",
  "type": "transaction",
  "entry": [ {
    "fullUrl": "https://madie.cms.gov/Encounter/48e0cce7-51a1-4fc7-b35f-1b16820e0573",
    "resource": {
      "resourceType": "Encounter",
      "id": "48e0cce7-51a1-4fc7-b35f-1b16820e0573",
      "meta": {
        "profile": [ "http://hl7.org/fhir/us/qicore/StructureDefinition/qicore-encounter" ]
      },
      "status": "finished",
      "class": {
        "system": "http://terminology.hl7.org/CodeSystem/v3-ActCode",
        "code": "IMP",
        "display": "inpatient encounter"
      },
      "type": [ {
        "coding": [ {
          "system": "http://snomed.info/sct",
          "code": "183452005"
        } ]
      } ],
      "subject": {
        "reference": "Patient/f4f2278b-629c-45cc-b616-9c60bedb0498"
      },
      "period": {
        "start": "2026-11-09T11:00:00+00:00",
        "end": "2026-11-12T08:15:00+00:00"
      },
      "diagnosis": [ {
        "extension": [ {
          "url": "http://hl7.org/fhir/us/qicore/StructureDefinition/qicore-encounter-diagnosisPresentOnAdmission",
          "valueCodeableConcept": {
            "coding": [ {
              "system": "https://www.cms.gov/Medicare/Medicare-Fee-for-Service-Payment/HospitalAcqCond/Coding",
              "code": "N"
            } ]
          }
        } ],
        "condition": {
          "reference": "Condition/4536dc4f-a008-46b6-9b6b-0e2a219971b9"
        }
      }, {
        "extension": [ {
          "url": "http://hl7.org/fhir/us/qicore/StructureDefinition/qicore-encounter-diagnosisPresentOnAdmission",
          "valueCodeableConcept": {
            "coding": [ {
              "system": "https://www.cms.gov/Medicare/Medicare-Fee-for-Service-Payment/HospitalAcqCond/Coding",
              "code": "W"
            } ]
          }
        } ],
        "condition": {
          "reference": "Condition/6fa21663-003c-489d-b2be-60a4760821d3"
        }
      } ]
    },
    "request": {
      "method": "PUT",
      "url": "Encounter/48e0cce7-51a1-4fc7-b35f-1b16820e0573"
    }
  }, {
    "fullUrl": "https://madie.cms.gov/Encounter/975f69f3-3a4b-45f7-bc9d-899e86f518c6",
    "resource": {
      "resourceType": "Encounter",
      "id": "975f69f3-3a4b-45f7-bc9d-899e86f518c6",
      "meta": {
        "profile": [ "http://hl7.org/fhir/us/qicore/StructureDefinition/qicore-encounter" ]
      },
      "status": "finished",
      "class": {
        "system": "http://terminology.hl7.org/CodeSystem/v3-ActCode",
        "code": "IMP",
        "display": "inpatient encounter"
      },
      "type": [ {
        "coding": [ {
          "system": "http://snomed.info/sct",
          "code": "4525004"
        } ]
      } ],
      "subject": {
        "reference": "Patient/f4f2278b-629c-45cc-b616-9c60bedb0498"
      },
      "period": {
        "start": "2026-11-09T08:00:00+00:00",
        "end": "2026-11-09T10:15:00+00:00"
      }
    },
    "request": {
      "method": "PUT",
      "url": "Encounter/975f69f3-3a4b-45f7-bc9d-899e86f518c6"
    }
  }, {
    "fullUrl": "https://madie.cms.gov/Condition/6fa21663-003c-489d-b2be-60a4760821d3",
    "resource": {
      "resourceType": "Condition",
      "id": "6fa21663-003c-489d-b2be-60a4760821d3",
      "meta": {
        "profile": [ "http://hl7.org/fhir/us/qicore/StructureDefinition/qicore-condition" ]
      },
      "clinicalStatus": {
        "coding": [ {
          "system": "http://terminology.hl7.org/CodeSystem/condition-clinical",
          "code": "active"
        } ]
      },
      "verificationStatus": {
        "coding": [ {
          "system": "http://terminology.hl7.org/CodeSystem/condition-ver-status",
          "code": "confirmed"
        } ]
      },
      "category": [ {
        "coding": [ {
          "system": "http://terminology.hl7.org/CodeSystem/condition-category",
          "code": "encounter-diagnosis",
          "display": "Encounter Diagnosis"
        } ]
      } ],
      "code": {
        "coding": [ {
          "system": "http://hl7.org/fhir/sid/icd-10-cm",
          "code": "M80.00XA"
        } ]
      },
      "subject": {
        "reference": "Patient/f4f2278b-629c-45cc-b616-9c60bedb0498"
      },
      "encounter": {
        "reference": "Encounter/48e0cce7-51a1-4fc7-b35f-1b16820e0573"
      }
    },
    "request": {
      "method": "PUT",
      "url": "Condition/6fa21663-003c-489d-b2be-60a4760821d3"
    }
  }, {
    "fullUrl": "https://madie.cms.gov/Condition/4536dc4f-a008-46b6-9b6b-0e2a219971b9",
    "resource": {
      "resourceType": "Condition",
      "id": "4536dc4f-a008-46b6-9b6b-0e2a219971b9",
      "meta": {
        "profile": [ "http://hl7.org/fhir/us/qicore/StructureDefinition/qicore-condition" ]
      },
      "clinicalStatus": {
        "coding": [ {
          "system": "http://terminology.hl7.org/CodeSystem/condition-clinical",
          "code": "active"
        } ]
      },
      "verificationStatus": {
        "coding": [ {
          "system": "http://terminology.hl7.org/CodeSystem/condition-ver-status",
          "code": "confirmed"
        } ]
      },
      "category": [ {
        "coding": [ {
          "system": "http://terminology.hl7.org/CodeSystem/condition-category",
          "code": "encounter-diagnosis",
          "display": "Encounter Diagnosis"
        } ]
      } ],
      "code": {
        "coding": [ {
          "system": "http://hl7.org/fhir/sid/icd-10-cm",
          "code": "M80.00XA"
        } ]
      },
      "subject": {
        "reference": "Patient/f4f2278b-629c-45cc-b616-9c60bedb0498"
      },
      "encounter": {
        "reference": "Encounter/48e0cce7-51a1-4fc7-b35f-1b16820e0573"
      }
    },
    "request": {
      "method": "PUT",
      "url": "Condition/4536dc4f-a008-46b6-9b6b-0e2a219971b9"
    }
  }, {
    "fullUrl": "https://madie.cms.gov/Patient/f4f2278b-629c-45cc-b616-9c60bedb0498",
    "resource": {
      "resourceType": "Patient",
      "id": "f4f2278b-629c-45cc-b616-9c60bedb0498",
      "meta": {
        "profile": [ "http://hl7.org/fhir/us/qicore/StructureDefinition/qicore-patient" ]
      },
      "extension": [ {
        "url": "http://hl7.org/fhir/us/core/StructureDefinition/us-core-race",
        "extension": [ {
          "url": "ombCategory",
          "valueCoding": {
            "system": "urn:oid:2.16.840.1.113883.6.238",
            "code": "2054-5",
            "display": "Black or African American",
            "userSelected": true
          }
        }, {
          "url": "text",
          "valueString": "Black or African American"
        } ]
      }, {
        "url": "http://hl7.org/fhir/us/core/StructureDefinition/us-core-ethnicity",
        "extension": [ {
          "url": "ombCategory",
          "valueCoding": {
            "system": "urn:oid:2.16.840.1.113883.6.238",
            "code": "2186-5",
            "display": "Not Hispanic or Latino",
            "userSelected": true
          }
        }, {
          "url": "text",
          "valueString": "Not Hispanic or Latino"
        } ]
      } ],
      "identifier": [ {
        "type": {
          "coding": [ {
            "system": "http://terminology.hl7.org/CodeSystem/v2-0203",
            "code": "MR"
          } ]
        },
        "system": "https://bonnie-fhir.healthit.gov/",
        "value": "61152a3b98086b7a79cbd7c1"
      } ],
      "active": true,
      "name": [ {
        "use": "usual",
        "family": "NUMEXPass",
        "given": [ "InjuryPOAandNPOA" ]
      } ],
      "gender": "male",
      "birthDate": "1964-12-11"
    },
    "request": {
      "method": "PUT",
      "url": "Patient/f4f2278b-629c-45cc-b616-9c60bedb0498"
    }
  }, {
    "fullUrl": "https://madie.cms.gov/AdverseEvent/db883301-420e-4810-8683-f8bd6f7a57d8",
    "resource": {
      "resourceType": "AdverseEvent",
      "id": "db883301-420e-4810-8683-f8bd6f7a57d8",
      "meta": {
        "profile": [ "http://hl7.org/fhir/us/qicore/StructureDefinition/qicore-adverseevent" ]
      },
      "actuality": "actual",
      "event": {
        "coding": [ {
          "system": "http://hl7.org/fhir/sid/icd-10-cm",
          "code": "W01.0XXA"
        } ]
      },
      "subject": {
        "reference": "Patient/f4f2278b-629c-45cc-b616-9c60bedb0498"
      },
      "date": "2026-11-10T08:00:00+00:00"
    },
    "request": {
      "method": "PUT",
      "url": "AdverseEvent/db883301-420e-4810-8683-f8bd6f7a57d8"
    }
  }, {
    "fullUrl": "https://madie.cms.gov/MeasureReport/bdd58b86-c6b8-4c2f-b747-ee7bc90895c4",
    "resource": {
      "resourceType": "MeasureReport",
      "id": "bdd58b86-c6b8-4c2f-b747-ee7bc90895c4",
      "meta": {
        "profile": [ "http://hl7.org/fhir/us/cqfmeasures/StructureDefinition/test-case-cqfm" ]
      },
      "contained": [ {
        "resourceType": "Parameters",
        "id": "a1346a0f-484b-4cd4-b2e7-772128f74957-parameters",
        "parameter": [ {
          "name": "subject",
          "valueString": "f4f2278b-629c-45cc-b616-9c60bedb0498"
        } ]
      } ],
      "extension": [ {
        "url": "http://hl7.org/fhir/us/cqfmeasures/StructureDefinition/cqfm-inputParameters",
        "valueReference": {
          "reference": "#a1346a0f-484b-4cd4-b2e7-772128f74957-parameters"
        }
      }, {
        "url": "http://hl7.org/fhir/us/cqfmeasures/StructureDefinition/cqfm-testCaseDescription",
        "valueMarkdown": "Encounter with a major injury POA and another maj injury NPOA. \nHad adverse event fall during encounter. Major Inj POA doesn't cause exclusion since there was another major injury NPOA with a fall. NUMEX (and DENEX) fails."
      } ],
      "modifierExtension": [ {
        "url": "http://hl7.org/fhir/us/cqfmeasures/StructureDefinition/cqfm-isTestCase",
        "valueBoolean": true
      } ],
      "status": "complete",
      "type": "individual",
      "measure": "https://madie.cms.gov/Measure/FallsWithInjuryFHIR",
      "period": {
        "start": "2026-01-01",
        "end": "2026-12-31"
      },
      "group": [ {
        "population": [ {
          "code": {
            "coding": [ {
              "system": "http://terminology.hl7.org/CodeSystem/measure-population",
              "code": "initial-population",
              "display": "Initial Population"
            } ]
          },
          "count": 1
        }, {
          "code": {
            "coding": [ {
              "system": "http://terminology.hl7.org/CodeSystem/measure-population",
              "code": "denominator",
              "display": "Denominator"
            } ]
          },
          "count": 1
        }, {
          "code": {
            "coding": [ {
              "system": "http://terminology.hl7.org/CodeSystem/measure-population",
              "code": "denominator-exclusion",
              "display": "Denominator Exclusion"
            } ]
          },
          "count": 0
        }, {
          "code": {
            "coding": [ {
              "system": "http://terminology.hl7.org/CodeSystem/measure-population",
              "code": "numerator",
              "display": "Numerator"
            } ]
          },
          "count": 1
        }, {
          "code": {
            "coding": [ {
              "system": "http://terminology.hl7.org/CodeSystem/measure-population",
              "code": "numerator-exclusion",
              "display": "Numerator Exclusion"
            } ]
          },
          "count": 0
        }, {
          "code": {
            "coding": [ {
              "system": "http://terminology.hl7.org/CodeSystem/measure-population",
              "code": "denominator-observation",
              "display": "DenominatorObservation"
            } ]
          },
          "count": 3
        }, {
          "code": {
            "coding": [ {
              "system": "http://terminology.hl7.org/CodeSystem/measure-population",
              "code": "numerator-observation",
              "display": "Numerator Observation"
            } ]
          },
          "count": 1
        } ]
      } ],
      "evaluatedResource": [ {
        "reference": "Encounter/48e0cce7-51a1-4fc7-b35f-1b16820e0573"
      }, {
        "reference": "Encounter/975f69f3-3a4b-45f7-bc9d-899e86f518c6"
      }, {
        "reference": "Condition/6fa21663-003c-489d-b2be-60a4760821d3"
      }, {
        "reference": "Condition/4536dc4f-a008-46b6-9b6b-0e2a219971b9"
      }, {
        "reference": "Patient/f4f2278b-629c-45cc-b616-9c60bedb0498"
      }, {
        "reference": "AdverseEvent/db883301-420e-4810-8683-f8bd6f7a57d8"
      } ]
    },
    "request": {
      "method": "PUT",
      "url": "MeasureReport/bdd58b86-c6b8-4c2f-b747-ee7bc90895c4"
    }
  } ]
}