{
  "resourceType": "Bundle",
  "id": "tests-DENEXFail-2Enc1stDenex2ndNumer-bundle",
  "type": "transaction",
  "entry": [ {
    "fullUrl": "https://madie.cms.gov/Encounter/cc296338-571a-4cda-9351-b0f8e26f6100",
    "resource": {
      "resourceType": "Encounter",
      "id": "cc296338-571a-4cda-9351-b0f8e26f6100",
      "meta": {
        "profile": [ "http://hl7.org/fhir/us/qicore/StructureDefinition/qicore-encounter" ]
      },
      "status": "finished",
      "class": {
        "system": "http://terminology.hl7.org/CodeSystem/v3-ActCode",
        "code": "IMP",
        "display": "inpatient encounter"
      },
      "type": [ {
        "coding": [ {
          "system": "http://snomed.info/sct",
          "code": "112689000",
          "display": "Hospital admission, elective, with complete pre-admission work-up"
        } ],
        "text": "Hospital admission, elective, with complete pre-admission work-up"
      } ],
      "priority": {
        "coding": [ {
          "system": "http://snomed.info/sct",
          "code": "103390000"
        } ]
      },
      "subject": {
        "reference": "Patient/b203d4af-3937-4fb3-a7c0-6014d18f433d"
      },
      "period": {
        "start": "2026-04-10T08:00:00+00:00",
        "end": "2026-04-14T08:15:00+00:00"
      },
      "diagnosis": [ {
        "condition": {
          "reference": "Procedure/756a6f13-ab9b-4af5-9b61-82607a7bf4c2"
        },
        "rank": 1
      } ]
    },
    "request": {
      "method": "PUT",
      "url": "Encounter/cc296338-571a-4cda-9351-b0f8e26f6100"
    }
  }, {
    "fullUrl": "https://madie.cms.gov/Encounter/668261e6-de8a-45e9-8639-887d679cc682",
    "resource": {
      "resourceType": "Encounter",
      "id": "668261e6-de8a-45e9-8639-887d679cc682",
      "meta": {
        "profile": [ "http://hl7.org/fhir/us/qicore/StructureDefinition/qicore-encounter" ]
      },
      "status": "finished",
      "class": {
        "system": "http://terminology.hl7.org/CodeSystem/v3-ActCode",
        "code": "IMP",
        "display": "inpatient encounter"
      },
      "type": [ {
        "coding": [ {
          "system": "http://snomed.info/sct",
          "code": "112689000",
          "display": "Hospital admission, elective, with complete pre-admission work-up"
        } ],
        "text": "Hospital admission, elective, with complete pre-admission work-up"
      } ],
      "priority": {
        "coding": [ {
          "system": "http://snomed.info/sct",
          "code": "103390000"
        } ]
      },
      "subject": {
        "reference": "Patient/b203d4af-3937-4fb3-a7c0-6014d18f433d"
      },
      "period": {
        "start": "2026-04-18T08:00:00+00:00",
        "end": "2026-04-23T08:15:00+00:00"
      },
      "diagnosis": [ {
        "condition": {
          "reference": "Procedure/a7fea444-5119-4b7b-b1de-03f336fe567e"
        },
        "rank": 1
      } ]
    },
    "request": {
      "method": "PUT",
      "url": "Encounter/668261e6-de8a-45e9-8639-887d679cc682"
    }
  }, {
    "fullUrl": "https://madie.cms.gov/Patient/b203d4af-3937-4fb3-a7c0-6014d18f433d",
    "resource": {
      "resourceType": "Patient",
      "id": "b203d4af-3937-4fb3-a7c0-6014d18f433d",
      "meta": {
        "profile": [ "http://hl7.org/fhir/us/qicore/StructureDefinition/qicore-patient" ]
      },
      "extension": [ {
        "url": "http://hl7.org/fhir/us/core/StructureDefinition/us-core-race",
        "extension": [ {
          "url": "ombCategory",
          "valueCoding": {
            "system": "urn:oid:2.16.840.1.113883.6.238",
            "code": "1002-5",
            "display": "American Indian or Alaska Native",
            "userSelected": true
          }
        }, {
          "url": "text",
          "valueString": "American Indian or Alaska Native"
        } ]
      }, {
        "url": "http://hl7.org/fhir/us/core/StructureDefinition/us-core-ethnicity",
        "extension": [ {
          "url": "ombCategory",
          "valueCoding": {
            "system": "urn:oid:2.16.840.1.113883.6.238",
            "code": "2186-5",
            "display": "Not Hispanic or Latino",
            "userSelected": true
          }
        }, {
          "url": "text",
          "valueString": "Not Hispanic or Latino"
        } ]
      } ],
      "identifier": [ {
        "type": {
          "coding": [ {
            "system": "http://terminology.hl7.org/CodeSystem/v2-0203",
            "code": "MR"
          } ]
        },
        "system": "https://bonnie-fhir.healthit.gov/",
        "value": "61152a3b98086b7a79cbd7c1"
      } ],
      "active": true,
      "name": [ {
        "use": "usual",
        "family": "DENEXFail",
        "given": [ "2Enc1stDenex2ndNumer" ]
      } ],
      "gender": "male",
      "birthDate": "1966-07-12"
    },
    "request": {
      "method": "PUT",
      "url": "Patient/b203d4af-3937-4fb3-a7c0-6014d18f433d"
    }
  }, {
    "fullUrl": "https://madie.cms.gov/Procedure/756a6f13-ab9b-4af5-9b61-82607a7bf4c2",
    "resource": {
      "resourceType": "Procedure",
      "id": "756a6f13-ab9b-4af5-9b61-82607a7bf4c2",
      "meta": {
        "profile": [ "http://hl7.org/fhir/us/qicore/StructureDefinition/qicore-procedure" ]
      },
      "extension": [ {
        "url": "http://hl7.org/fhir/us/qicore/StructureDefinition/qicore-recorded",
        "valueDateTime": "2026-04-11T10:30:00+00:00"
      } ],
      "status": "completed",
      "category": {
        "coding": [ {
          "system": "http://snomed.info/sct",
          "code": "18286008",
          "display": "General or neuraxial anesthesia"
        } ]
      },
      "code": {
        "coding": [ {
          "system": "http://snomed.info/sct",
          "code": "112943005",
          "display": "Epidural injection of anesthetic substance, diagnostic, caudal, continuous"
        } ]
      },
      "subject": {
        "reference": "Patient/b203d4af-3937-4fb3-a7c0-6014d18f433d"
      },
      "performedPeriod": {
        "start": "2026-04-11T08:00:00+00:00",
        "end": "2026-04-11T10:15:00+00:00"
      }
    },
    "request": {
      "method": "PUT",
      "url": "Procedure/756a6f13-ab9b-4af5-9b61-82607a7bf4c2"
    }
  }, {
    "fullUrl": "https://madie.cms.gov/Procedure/84ce28ab-5c01-43bd-b14f-9bfb7285a254",
    "resource": {
      "resourceType": "Procedure",
      "id": "84ce28ab-5c01-43bd-b14f-9bfb7285a254",
      "meta": {
        "profile": [ "http://hl7.org/fhir/us/qicore/StructureDefinition/qicore-procedure" ]
      },
      "extension": [ {
        "url": "http://hl7.org/fhir/us/qicore/StructureDefinition/qicore-recorded",
        "valueDateTime": "2026-04-11T10:30:00+00:00"
      } ],
      "status": "completed",
      "category": {
        "coding": [ {
          "system": "http://snomed.info/sct",
          "code": "18286008",
          "display": "General or neuraxial anesthesia"
        } ]
      },
      "code": {
        "coding": [ {
          "system": "http://snomed.info/sct",
          "code": "112943005",
          "display": "Epidural injection of anesthetic substance, diagnostic, caudal, continuous"
        } ]
      },
      "subject": {
        "reference": "Patient/b203d4af-3937-4fb3-a7c0-6014d18f433d"
      },
      "performedPeriod": {
        "start": "2026-04-19T08:00:00+00:00",
        "end": "2026-04-19T11:15:00+00:00"
      }
    },
    "request": {
      "method": "PUT",
      "url": "Procedure/84ce28ab-5c01-43bd-b14f-9bfb7285a254"
    }
  }, {
    "fullUrl": "https://madie.cms.gov/Procedure/4fee66ee-84f5-4225-9650-5b882b40259d",
    "resource": {
      "resourceType": "Procedure",
      "id": "4fee66ee-84f5-4225-9650-5b882b40259d",
      "meta": {
        "profile": [ "http://hl7.org/fhir/us/qicore/StructureDefinition/qicore-procedure" ]
      },
      "extension": [ {
        "url": "http://hl7.org/fhir/us/qicore/StructureDefinition/qicore-recorded",
        "valueDateTime": "2026-04-11T10:10:00+00:00"
      } ],
      "status": "completed",
      "code": {
        "coding": [ {
          "system": "http://www.cms.gov/Medicare/Coding/ICD10",
          "code": "0BW10FZ",
          "display": "Revision of Tracheostomy Device in Trachea, Open Approach"
        } ],
        "text": "Revision of Tracheostomy Device in Trachea, Open Approach"
      },
      "subject": {
        "reference": "Patient/b203d4af-3937-4fb3-a7c0-6014d18f433d"
      },
      "performedDateTime": "2026-04-11T09:00:00+00:00"
    },
    "request": {
      "method": "PUT",
      "url": "Procedure/4fee66ee-84f5-4225-9650-5b882b40259d"
    }
  }, {
    "fullUrl": "https://madie.cms.gov/Procedure/5ea575a1-3019-49b6-bacf-81120c764d7f",
    "resource": {
      "resourceType": "Procedure",
      "id": "5ea575a1-3019-49b6-bacf-81120c764d7f",
      "meta": {
        "profile": [ "http://hl7.org/fhir/us/qicore/StructureDefinition/qicore-procedure" ]
      },
      "extension": [ {
        "url": "http://hl7.org/fhir/us/qicore/StructureDefinition/qicore-recorded",
        "valueDateTime": "2026-04-21T12:00:00+00:00"
      } ],
      "status": "completed",
      "code": {
        "coding": [ {
          "system": "http://snomed.info/sct",
          "code": "271280005",
          "display": "Removal of endotracheal tube (procedure)"
        } ],
        "text": "Removal of endotracheal tube (procedure)"
      },
      "subject": {
        "reference": "Patient/b203d4af-3937-4fb3-a7c0-6014d18f433d"
      },
      "performedPeriod": {
        "start": "2026-04-21T11:30:00+00:00",
        "end": "2026-04-21T11:45:00+00:00"
      }
    },
    "request": {
      "method": "PUT",
      "url": "Procedure/5ea575a1-3019-49b6-bacf-81120c764d7f"
    }
  }, {
    "fullUrl": "https://madie.cms.gov/MeasureReport/cfe195c1-25da-4672-b7fd-bdde4278bf3e",
    "resource": {
      "resourceType": "MeasureReport",
      "id": "cfe195c1-25da-4672-b7fd-bdde4278bf3e",
      "meta": {
        "profile": [ "http://hl7.org/fhir/us/cqfmeasures/StructureDefinition/test-case-cqfm" ]
      },
      "contained": [ {
        "resourceType": "Parameters",
        "id": "13052c37-f87b-4cac-941f-ee776576d00a-parameters",
        "parameter": [ {
          "name": "subject",
          "valueString": "b203d4af-3937-4fb3-a7c0-6014d18f433d"
        } ]
      } ],
      "extension": [ {
        "url": "http://hl7.org/fhir/us/cqfmeasures/StructureDefinition/cqfm-inputParameters",
        "valueReference": {
          "reference": "#13052c37-f87b-4cac-941f-ee776576d00a-parameters"
        }
      }, {
        "url": "http://hl7.org/fhir/us/cqfmeasures/StructureDefinition/cqfm-testCaseDescription",
        "valueMarkdown": "Enc 1: Elective hosp with trach proc during anesthesia period. No other proc occurs. Meets exclusion.\nEnc 2: Intubated during first proc, extubated >48 hrs after end of first proc. Meets Num 3.  Denex from 1st enc does not impact 2nd encounter.\n"
      } ],
      "modifierExtension": [ {
        "url": "http://hl7.org/fhir/us/cqfmeasures/StructureDefinition/cqfm-isTestCase",
        "valueBoolean": true
      } ],
      "status": "complete",
      "type": "individual",
      "measure": "https://madie.cms.gov/Measure/CMS1218HHRFFHIR",
      "period": {
        "start": "2026-01-01",
        "end": "2026-12-31"
      },
      "group": [ {
        "population": [ {
          "code": {
            "coding": [ {
              "system": "http://terminology.hl7.org/CodeSystem/measure-population",
              "code": "initial-population",
              "display": "Initial Population"
            } ]
          },
          "count": 2
        }, {
          "code": {
            "coding": [ {
              "system": "http://terminology.hl7.org/CodeSystem/measure-population",
              "code": "denominator",
              "display": "Denominator"
            } ]
          },
          "count": 2
        }, {
          "code": {
            "coding": [ {
              "system": "http://terminology.hl7.org/CodeSystem/measure-population",
              "code": "denominator-exclusion",
              "display": "Denominator Exclusion"
            } ]
          },
          "count": 1
        }, {
          "code": {
            "coding": [ {
              "system": "http://terminology.hl7.org/CodeSystem/measure-population",
              "code": "numerator",
              "display": "Numerator"
            } ]
          },
          "count": 1
        } ]
      } ],
      "evaluatedResource": [ {
        "reference": "Encounter/cc296338-571a-4cda-9351-b0f8e26f6100"
      }, {
        "reference": "Encounter/668261e6-de8a-45e9-8639-887d679cc682"
      }, {
        "reference": "Patient/b203d4af-3937-4fb3-a7c0-6014d18f433d"
      }, {
        "reference": "Procedure/756a6f13-ab9b-4af5-9b61-82607a7bf4c2"
      }, {
        "reference": "Procedure/84ce28ab-5c01-43bd-b14f-9bfb7285a254"
      }, {
        "reference": "Procedure/4fee66ee-84f5-4225-9650-5b882b40259d"
      }, {
        "reference": "Procedure/5ea575a1-3019-49b6-bacf-81120c764d7f"
      } ]
    },
    "request": {
      "method": "PUT",
      "url": "MeasureReport/cfe195c1-25da-4672-b7fd-bdde4278bf3e"
    }
  } ]
}