{"resourceType":"Bundle","id":"tests-bba6dd6e-c6da-4684-bb74-b650dee77b64-bundle","type":"transaction","entry":[{"fullUrl":"https://madie.cms.gov/Patient/bba6dd6e-c6da-4684-bb74-b650dee77b64","resource":{"resourceType":"Patient","id":"bba6dd6e-c6da-4684-bb74-b650dee77b64","meta":{"profile":["http://hl7.org/fhir/us/qicore/StructureDefinition/qicore-patient"]},"extension":[{"url":"http://hl7.org/fhir/us/core/StructureDefinition/us-core-race","extension":[{"url":"ombCategory","valueCoding":{"system":"urn:oid:2.16.840.1.113883.6.238","code":"2028-9","display":"Asian","userSelected":true}},{"url":"text","valueString":"Asian"}]},{"url":"http://hl7.org/fhir/us/core/StructureDefinition/us-core-ethnicity","extension":[{"url":"ombCategory","valueCoding":{"system":"urn:oid:2.16.840.1.113883.6.238","code":"2135-2","display":"Hispanic or Latino","userSelected":true}},{"url":"text","valueString":"Hispanic or Latino"}]}],"identifier":[{"type":{"coding":[{"system":"http://terminology.hl7.org/CodeSystem/v2-0203","code":"MR"}]},"system":"http://hospital.smarthealthit.org","value":"999999995"}],"name":[{"family":"Bertha","given":["Betty"]}],"gender":"female","birthDate":"2012-01-01"},"request":{"method":"PUT","url":"Patient/bba6dd6e-c6da-4684-bb74-b650dee77b64"}},{"fullUrl":"https://madie.cms.gov/Condition/Condition-11","resource":{"resourceType":"Condition","id":"614e7b12-ed93-454c-a1da-a83074a5cba6","meta":{"profile":["http://hl7.org/fhir/us/qicore/StructureDefinition/qicore-condition"]},"clinicalStatus":{"coding":[{"system":"http://terminology.hl7.org/CodeSystem/condition-clinical","code":"active"}]},"category":[{"coding":[{"system":"http://terminology.hl7.org/CodeSystem/condition-category","code":"problem-list-item","display":"Problem List Item"}]}],"code":{"coding":[{"system":"http://hl7.org/fhir/sid/icd-10-cm","code":"F10.10","display":"Alcohol abuse, uncomplicated"}]},"subject":{"reference":"Patient/bba6dd6e-c6da-4684-bb74-b650dee77b64"},"onsetDateTime":"2025-11-14T00:00:00.000Z"},"request":{"method":"PUT","url":"Condition/614e7b12-ed93-454c-a1da-a83074a5cba6"}},{"fullUrl":"https://madie.cms.gov/Encounter/Encounter-11","resource":{"resourceType":"Encounter","id":"4568aac4-8653-4d94-9557-a9fb20879301","meta":{"profile":["http://hl7.org/fhir/us/qicore/StructureDefinition/qicore-encounter"]},"status":"finished","class":{"system":"http://terminology.hl7.org/CodeSystem/v3-ActCode","code":"AMB","display":"ambulatory"},"type":[{"coding":[{"system":"http://www.ama-assn.org/go/cpt","code":"98966","display":"Telephone assessment and management service provided by a qualified nonphysician health care professional to an established patient, parent, or guardian not originating from a related assessment and management service provided within the previous 7 days nor leading to an assessment and management service or procedure within the next 24 hours or soonest available appointment; 5-10 minutes of medical discussion"}]}],"subject":{"reference":"Patient/bba6dd6e-c6da-4684-bb74-b650dee77b64"},"period":{"start":"2025-11-14T00:00:00.000Z","end":"2025-11-14T01:15:00.000Z"}},"request":{"method":"PUT","url":"Encounter/4568aac4-8653-4d94-9557-a9fb20879301"}},{"fullUrl":"https://madie.cms.gov/Encounter/Encounter-11.1","resource":{"resourceType":"Encounter","id":"cf7f2238-12ba-4fe4-8d69-dec71ce9cf90","meta":{"profile":["http://hl7.org/fhir/us/qicore/StructureDefinition/qicore-encounter"]},"status":"finished","class":{"system":"http://terminology.hl7.org/CodeSystem/v3-ActCode","code":"AMB","display":"ambulatory"},"type":[{"coding":[{"system":"http://www.ama-assn.org/go/cpt","code":"98966","display":"Telephone assessment and management service provided by a qualified nonphysician health care professional to an established patient, parent, or guardian not originating from a related assessment and management service provided within the previous 7 days nor leading to an assessment and management service or procedure within the next 24 hours or soonest available appointment; 5-10 minutes of medical discussion"}]}],"subject":{"reference":"Patient/bba6dd6e-c6da-4684-bb74-b650dee77b64"},"period":{"start":"2025-11-15T00:00:00.000Z","end":"2025-11-15T01:00:00.000Z"},"diagnosis":[{"condition":{"reference":"Condition/Condition-11"}}]},"request":{"method":"PUT","url":"Encounter/cf7f2238-12ba-4fe4-8d69-dec71ce9cf90"}},{"fullUrl":"https://madie.cms.gov/Procedure/Procedure-11.1","resource":{"resourceType":"Procedure","id":"bdaeed97-5f8d-44cd-9aab-17a97d97b8c5","meta":{"profile":["http://hl7.org/fhir/us/qicore/StructureDefinition/qicore-procedure"]},"extension":[{"url":"http://hl7.org/fhir/us/qicore/StructureDefinition/qicore-recorded","valueDateTime":"2025-11-16T00:00:00.000Z"}],"status":"completed","code":{"coding":[{"system":"http://snomed.info/sct","code":"1254709001","display":"Referral to substance use disorder treatment program (procedure)"}]},"subject":{"reference":"Patient/bba6dd6e-c6da-4684-bb74-b650dee77b64"},"performedPeriod":{"start":"2025-11-16T00:00:00.000Z","end":"2025-11-16T00:00:00.000Z"}},"request":{"method":"PUT","url":"Procedure/bdaeed97-5f8d-44cd-9aab-17a97d97b8c5"}},{"fullUrl":"https://madie.cms.gov/Procedure/Procedure-11.2","resource":{"resourceType":"Procedure","id":"c4b26ba3-4c6b-4838-b75d-c0ae89b325e6","meta":{"profile":["http://hl7.org/fhir/us/qicore/StructureDefinition/qicore-procedure"]},"extension":[{"url":"http://hl7.org/fhir/us/qicore/StructureDefinition/qicore-recorded","valueDateTime":"2025-11-17T00:00:00.000Z"}],"status":"completed","code":{"coding":[{"system":"http://snomed.info/sct","code":"1254709001","display":"Referral to substance use disorder treatment program (procedure)"}]},"subject":{"reference":"Patient/bba6dd6e-c6da-4684-bb74-b650dee77b64"},"performedPeriod":{"start":"2025-11-17T00:00:00.000Z","end":"2025-11-17T00:00:00.000Z"}},"request":{"method":"PUT","url":"Procedure/c4b26ba3-4c6b-4838-b75d-c0ae89b325e6"}},{"fullUrl":"https://madie.cms.gov/MeasureReport/49548ddd-86e9-4d95-8490-8640ade91c0d","resource":{"resourceType":"MeasureReport","id":"49548ddd-86e9-4d95-8490-8640ade91c0d","meta":{"profile":["http://hl7.org/fhir/us/cqfmeasures/StructureDefinition/test-case-cqfm"]},"contained":[{"resourceType":"Parameters","id":"95fcddbc-de69-443a-a47a-c09446f39c4f-parameters","parameter":[{"name":"subject","valueString":"bba6dd6e-c6da-4684-bb74-b650dee77b64"}]}],"extension":[{"url":"http://hl7.org/fhir/us/cqfmeasures/StructureDefinition/cqfm-inputParameters","valueReference":{"reference":"#95fcddbc-de69-443a-a47a-c09446f39c4f-parameters"}},{"url":"http://hl7.org/fhir/us/cqfmeasures/StructureDefinition/cqfm-testCaseDescription","valueMarkdown":"Two short-acting SUD medication administration 34 days after the Initiation of Treatment for first SUD episode"}],"modifierExtension":[{"url":"http://hl7.org/fhir/us/cqfmeasures/StructureDefinition/cqfm-isTestCase","valueBoolean":true}],"status":"complete","type":"individual","measure":"https://madie.cms.gov/Measure/InitiationandEngagementofSubstanceUseDisorderTreatmentFHIR","period":{"start":"2025-01-01","end":"2025-12-31"},"group":[{"population":[{"code":{"coding":[{"system":"http://terminology.hl7.org/CodeSystem/measure-population","code":"initial-population","display":"Initial Population"}]},"count":1},{"code":{"coding":[{"system":"http://terminology.hl7.org/CodeSystem/measure-population","code":"denominator","display":"Denominator"}]},"count":1},{"code":{"coding":[{"system":"http://terminology.hl7.org/CodeSystem/measure-population","code":"denominator-exclusion","display":"Denominator Exclusion"}]},"count":0},{"code":{"coding":[{"system":"http://terminology.hl7.org/CodeSystem/measure-population","code":"numerator","display":"Numerator"}]},"count":1}]},{"population":[{"code":{"coding":[{"system":"http://terminology.hl7.org/CodeSystem/measure-population","code":"initial-population","display":"Initial Population"}]},"count":1},{"code":{"coding":[{"system":"http://terminology.hl7.org/CodeSystem/measure-population","code":"denominator","display":"Denominator"}]},"count":1},{"code":{"coding":[{"system":"http://terminology.hl7.org/CodeSystem/measure-population","code":"denominator-exclusion","display":"Denominator Exclusion"}]},"count":0},{"code":{"coding":[{"system":"http://terminology.hl7.org/CodeSystem/measure-population","code":"numerator","display":"Numerator"}]},"count":1}]}]},"request":{"method":"PUT","url":"MeasureReport/49548ddd-86e9-4d95-8490-8640ade91c0d"}}]}