{"resourceType":"Bundle","id":"tests-906e7ebe-fc05-4d3d-ae0f-021c63247f55-bundle","type":"transaction","entry":[{"fullUrl":"https://madie.cms.gov/Patient/906e7ebe-fc05-4d3d-ae0f-021c63247f55","resource":{"resourceType":"Patient","id":"906e7ebe-fc05-4d3d-ae0f-021c63247f55","meta":{"profile":["http://hl7.org/fhir/us/qicore/StructureDefinition/qicore-patient"]},"extension":[{"url":"http://hl7.org/fhir/us/core/StructureDefinition/us-core-race","extension":[{"url":"ombCategory","valueCoding":{"system":"urn:oid:2.16.840.1.113883.6.238","code":"2028-9","display":"Asian"}},{"url":"text","valueString":"Asian"}]},{"url":"http://hl7.org/fhir/us/core/StructureDefinition/us-core-ethnicity","extension":[{"url":"ombCategory","valueCoding":{"system":"urn:oid:2.16.840.1.113883.6.238","code":"2135-2","display":"Hispanic or Latino"}},{"url":"text","valueString":"Hispanic or Latino"}]}],"identifier":[{"system":"http://hospital.smarthealthit.org","value":"999999995"}],"name":[{"family":"Bertha","given":["Betty"]}],"gender":"female","birthDate":"2012-01-01"},"request":{"method":"PUT","url":"Patient/906e7ebe-fc05-4d3d-ae0f-021c63247f55"}},{"fullUrl":"https://madie.cms.gov/Condition/Condition-6","resource":{"resourceType":"Condition","id":"Condition-6","meta":{"profile":["http://hl7.org/fhir/us/qicore/StructureDefinition/qicore-condition"]},"clinicalStatus":{"coding":[{"system":"http://terminology.hl7.org/CodeSystem/condition-clinical","code":"active"}]},"category":[{"coding":[{"system":"http://terminology.hl7.org/CodeSystem/condition-category","code":"problem-list-item","display":"Problem List Item"}]}],"code":{"coding":[{"system":"http://hl7.org/fhir/sid/icd-10-cm","code":"F10.10","display":"Alcohol abuse, uncomplicated"}]},"subject":{"reference":"Patient/906e7ebe-fc05-4d3d-ae0f-021c63247f55"},"onsetDateTime":"2025-01-01T00:00:00.000Z"},"request":{"method":"PUT","url":"Condition/Condition-6"}},{"fullUrl":"https://madie.cms.gov/Encounter/Encounter-6","resource":{"resourceType":"Encounter","id":"Encounter-6","meta":{"profile":["http://hl7.org/fhir/us/qicore/StructureDefinition/qicore-encounter"]},"status":"finished","class":{"system":"http://terminology.hl7.org/CodeSystem/v3-ActCode","code":"AMB","display":"ambulatory"},"type":[{"coding":[{"system":"http://snomed.info/sct","code":"182969009","display":"Dependent drug detoxification (regime/therapy)"}]}],"subject":{"reference":"Patient/906e7ebe-fc05-4d3d-ae0f-021c63247f55"},"period":{"start":"2025-01-01T00:00:00.000Z","end":"2025-01-01T01:15:00.000Z"}},"request":{"method":"PUT","url":"Encounter/Encounter-6"}},{"fullUrl":"https://madie.cms.gov/Encounter/Encounter-6.2","resource":{"resourceType":"Encounter","id":"Encounter-6.2","meta":{"profile":["http://hl7.org/fhir/us/qicore/StructureDefinition/qicore-encounter"]},"status":"finished","class":{"system":"http://terminology.hl7.org/CodeSystem/v3-ActCode","code":"AMB","display":"ambulatory"},"type":[{"coding":[{"system":"https://www.cms.gov/Medicare/Coding/HCPCSReleaseCodeSets","code":"G9473","display":"Services performed by chaplain in the hospice setting, each 15 minutes"}]}],"subject":{"reference":"Patient/906e7ebe-fc05-4d3d-ae0f-021c63247f55"},"period":{"start":"2024-12-31T01:00:00.000Z","end":"2024-12-31T01:15:00.000Z"}},"request":{"method":"PUT","url":"Encounter/Encounter-6.2"}},{"fullUrl":"https://madie.cms.gov/MeasureReport/fc5f76c8-b724-47d3-af7a-c463dcc838ac","resource":{"resourceType":"MeasureReport","id":"fc5f76c8-b724-47d3-af7a-c463dcc838ac","meta":{"profile":["http://hl7.org/fhir/us/cqfmeasures/StructureDefinition/test-case-cqfm"]},"contained":[{"resourceType":"Parameters","id":"c185f3b8-6b10-41f9-8858-fd9338e3aa26-parameters","parameter":[{"name":"subject","valueString":"906e7ebe-fc05-4d3d-ae0f-021c63247f55"}]}],"extension":[{"url":"http://hl7.org/fhir/us/cqfmeasures/StructureDefinition/cqfm-inputParameters","valueReference":{"reference":"#c185f3b8-6b10-41f9-8858-fd9338e3aa26-parameters"}},{"url":"http://hl7.org/fhir/us/cqfmeasures/StructureDefinition/cqfm-testCaseDescription","valueMarkdown":"Hospice encounter before the measurement period"}],"modifierExtension":[{"url":"http://hl7.org/fhir/us/cqfmeasures/StructureDefinition/cqfm-isTestCase","valueBoolean":true}],"status":"complete","type":"individual","measure":"https://madie.cms.gov/Measure/InitiationandEngagementofSubstanceUseDisorderTreatmentFHIR","period":{"start":"2025-01-01","end":"2025-12-31"},"group":[{"population":[{"code":{"coding":[{"system":"http://terminology.hl7.org/CodeSystem/measure-population","code":"initial-population","display":"Initial Population"}]},"count":1},{"code":{"coding":[{"system":"http://terminology.hl7.org/CodeSystem/measure-population","code":"denominator","display":"Denominator"}]},"count":1},{"code":{"coding":[{"system":"http://terminology.hl7.org/CodeSystem/measure-population","code":"denominator-exclusion","display":"Denominator Exclusion"}]},"count":0},{"code":{"coding":[{"system":"http://terminology.hl7.org/CodeSystem/measure-population","code":"numerator","display":"Numerator"}]},"count":0}]},{"population":[{"code":{"coding":[{"system":"http://terminology.hl7.org/CodeSystem/measure-population","code":"initial-population","display":"Initial Population"}]},"count":1},{"code":{"coding":[{"system":"http://terminology.hl7.org/CodeSystem/measure-population","code":"denominator","display":"Denominator"}]},"count":1},{"code":{"coding":[{"system":"http://terminology.hl7.org/CodeSystem/measure-population","code":"denominator-exclusion","display":"Denominator Exclusion"}]},"count":0},{"code":{"coding":[{"system":"http://terminology.hl7.org/CodeSystem/measure-population","code":"numerator","display":"Numerator"}]},"count":0}]}],"evaluatedResource":[{"reference":"Patient/906e7ebe-fc05-4d3d-ae0f-021c63247f55"},{"reference":"Condition/Condition-6"},{"reference":"Encounter/Encounter-6"},{"reference":"Encounter/Encounter-6.2"}]},"request":{"method":"PUT","url":"MeasureReport/fc5f76c8-b724-47d3-af7a-c463dcc838ac"}}]}