{"resourceType":"Bundle","id":"tests-f1308c5a-8dcc-41ae-8e32-5cf33b54c8e6-bundle","type":"transaction","entry":[{"fullUrl":"https://madie.cms.gov/Patient/f1308c5a-8dcc-41ae-8e32-5cf33b54c8e6","resource":{"resourceType":"Patient","id":"f1308c5a-8dcc-41ae-8e32-5cf33b54c8e6","meta":{"profile":["http://hl7.org/fhir/us/qicore/StructureDefinition/qicore-patient"]},"extension":[{"url":"http://hl7.org/fhir/us/core/StructureDefinition/us-core-race","extension":[{"url":"ombCategory","valueCoding":{"system":"urn:oid:2.16.840.1.113883.6.238","code":"2028-9","display":"Asian","userSelected":true}},{"url":"text","valueString":"Asian"}]},{"url":"http://hl7.org/fhir/us/core/StructureDefinition/us-core-ethnicity","extension":[{"url":"ombCategory","valueCoding":{"system":"urn:oid:2.16.840.1.113883.6.238","code":"2135-2","display":"Hispanic or Latino","userSelected":true}},{"url":"text","valueString":"Hispanic or Latino"}]}],"identifier":[{"type":{"coding":[{"system":"http://terminology.hl7.org/CodeSystem/v2-0203","code":"MR"}]},"system":"http://hospital.smarthealthit.org","value":"999999995"}],"name":[{"family":"Bertha","given":["Betty"]}],"gender":"female","birthDate":"2012-01-01"},"request":{"method":"PUT","url":"Patient/f1308c5a-8dcc-41ae-8e32-5cf33b54c8e6"}},{"fullUrl":"https://madie.cms.gov/Condition/Condition-11","resource":{"resourceType":"Condition","id":"b7bc986a-e8ab-4475-b5f7-c054f814ce13","meta":{"profile":["http://hl7.org/fhir/us/qicore/StructureDefinition/qicore-condition"]},"clinicalStatus":{"coding":[{"system":"http://terminology.hl7.org/CodeSystem/condition-clinical","code":"active"}]},"category":[{"coding":[{"system":"http://terminology.hl7.org/CodeSystem/condition-category","code":"problem-list-item","display":"Problem List Item"}]}],"code":{"coding":[{"system":"http://hl7.org/fhir/sid/icd-10-cm","code":"F10.10","display":"Alcohol abuse, uncomplicated"}]},"subject":{"reference":"Patient/f1308c5a-8dcc-41ae-8e32-5cf33b54c8e6"},"onsetDateTime":"2025-11-14T00:00:00.000Z"},"request":{"method":"PUT","url":"Condition/b7bc986a-e8ab-4475-b5f7-c054f814ce13"}},{"fullUrl":"https://madie.cms.gov/Encounter/Encounter-11","resource":{"resourceType":"Encounter","id":"fad6f4b3-bb67-453a-9dfa-1d23ee7d808a","meta":{"profile":["http://hl7.org/fhir/us/qicore/StructureDefinition/qicore-encounter"]},"status":"finished","class":{"system":"http://terminology.hl7.org/CodeSystem/v3-ActCode","code":"AMB","display":"ambulatory"},"type":[{"coding":[{"system":"http://www.ama-assn.org/go/cpt","code":"99202","display":"Office or other outpatient visit for the evaluation and management of a new patient, which requires a medically appropriate history and/or examination and straightforward medical decision making. When using total time on the date of the encounter for code selection, 15 minutes must be met or exceeded."}]}],"subject":{"reference":"Patient/f1308c5a-8dcc-41ae-8e32-5cf33b54c8e6"},"period":{"start":"2025-11-14T00:00:00.000Z","end":"2025-11-14T01:15:00.000Z"}},"request":{"method":"PUT","url":"Encounter/fad6f4b3-bb67-453a-9dfa-1d23ee7d808a"}},{"fullUrl":"https://madie.cms.gov/Procedure/Procedure-11","resource":{"resourceType":"Procedure","id":"9495c69d-bc50-4624-ad61-d2880803d8c3","meta":{"profile":["http://hl7.org/fhir/us/qicore/StructureDefinition/qicore-procedure"]},"extension":[{"url":"http://hl7.org/fhir/us/qicore/StructureDefinition/qicore-recorded","valueDateTime":"2025-11-27T00:00:00.000Z"}],"status":"completed","code":{"coding":[{"system":"http://www.nlm.nih.gov/research/umls/hcpcs","code":"G2067","display":"Medication assisted treatment, methadone; weekly bundle including dispensing and/or administration, substance use counseling, individual and group therapy, and toxicology testing, if performed (provision of the services by a medicare-enrolled opioid treatment program)"}]},"subject":{"reference":"Patient/f1308c5a-8dcc-41ae-8e32-5cf33b54c8e6"},"performedPeriod":{"start":"2025-11-15T00:00:00.000Z","end":"2025-11-15T01:00:00.000Z"}},"request":{"method":"PUT","url":"Procedure/9495c69d-bc50-4624-ad61-d2880803d8c3"}},{"fullUrl":"https://madie.cms.gov/Encounter/Encounter-11.1","resource":{"resourceType":"Encounter","id":"983f3bc0-b2fc-446a-9122-15ac9b620609","meta":{"profile":["http://hl7.org/fhir/us/qicore/StructureDefinition/qicore-encounter"]},"status":"finished","class":{"system":"http://terminology.hl7.org/CodeSystem/v3-ActCode","code":"AMB","display":"ambulatory"},"type":[{"coding":[{"system":"http://www.ama-assn.org/go/cpt","code":"98970","display":"Qualified nonphysician health care professional online digital assessment and management, for an established patient, for up to 7 days, cumulative time during the 7 days; 5-10 minutes"}]}],"subject":{"reference":"Patient/f1308c5a-8dcc-41ae-8e32-5cf33b54c8e6"},"period":{"start":"2025-11-20T00:00:00.000Z","end":"2025-11-20T01:15:00.000Z"},"diagnosis":[{"condition":{"reference":"Condition/Condition-11"}}]},"request":{"method":"PUT","url":"Encounter/983f3bc0-b2fc-446a-9122-15ac9b620609"}},{"fullUrl":"https://madie.cms.gov/Procedure/Procedure-11.1","resource":{"resourceType":"Procedure","id":"743efe29-53ba-48c2-b8be-e8b02ea6f222","meta":{"profile":["http://hl7.org/fhir/us/qicore/StructureDefinition/qicore-procedure"]},"extension":[{"url":"http://hl7.org/fhir/us/qicore/StructureDefinition/qicore-recorded","valueDateTime":"2025-11-27T00:00:00.000Z"}],"status":"completed","code":{"coding":[{"system":"http://www.nlm.nih.gov/research/umls/hcpcs","code":"G2067","display":"Medication assisted treatment, methadone; weekly bundle including dispensing and/or administration, substance use counseling, individual and group therapy, and toxicology testing, if performed (provision of the services by a medicare-enrolled opioid treatment program)"}]},"subject":{"reference":"Patient/f1308c5a-8dcc-41ae-8e32-5cf33b54c8e6"},"performedPeriod":{"start":"2025-11-27T00:00:00.000Z","end":"2025-11-27T01:00:00.000Z"}},"request":{"method":"PUT","url":"Procedure/743efe29-53ba-48c2-b8be-e8b02ea6f222"}},{"fullUrl":"https://madie.cms.gov/MeasureReport/0f3f1f62-de97-4898-8e8e-2214491fd739","resource":{"resourceType":"MeasureReport","id":"0f3f1f62-de97-4898-8e8e-2214491fd739","meta":{"profile":["http://hl7.org/fhir/us/cqfmeasures/StructureDefinition/test-case-cqfm"]},"contained":[{"resourceType":"Parameters","id":"75ffa629-d839-4ca9-a3e1-823fbe6d3448-parameters","parameter":[{"name":"subject","valueString":"f1308c5a-8dcc-41ae-8e32-5cf33b54c8e6"}]}],"extension":[{"url":"http://hl7.org/fhir/us/cqfmeasures/StructureDefinition/cqfm-inputParameters","valueReference":{"reference":"#75ffa629-d839-4ca9-a3e1-823fbe6d3448-parameters"}},{"url":"http://hl7.org/fhir/us/cqfmeasures/StructureDefinition/cqfm-testCaseDescription","valueMarkdown":"Two short-acting SUD medication 34 days after the Initiation of Treatment for first SUD episode. One of the follow-up visits is an encounter. \n"}],"modifierExtension":[{"url":"http://hl7.org/fhir/us/cqfmeasures/StructureDefinition/cqfm-isTestCase","valueBoolean":true}],"status":"complete","type":"individual","measure":"https://madie.cms.gov/Measure/InitiationandEngagementofSubstanceUseDisorderTreatmentFHIR","period":{"start":"2025-01-01","end":"2025-12-31"},"group":[{"population":[{"code":{"coding":[{"system":"http://terminology.hl7.org/CodeSystem/measure-population","code":"initial-population","display":"Initial Population"}]},"count":1},{"code":{"coding":[{"system":"http://terminology.hl7.org/CodeSystem/measure-population","code":"denominator","display":"Denominator"}]},"count":1},{"code":{"coding":[{"system":"http://terminology.hl7.org/CodeSystem/measure-population","code":"denominator-exclusion","display":"Denominator Exclusion"}]},"count":0},{"code":{"coding":[{"system":"http://terminology.hl7.org/CodeSystem/measure-population","code":"numerator","display":"Numerator"}]},"count":1}]},{"population":[{"code":{"coding":[{"system":"http://terminology.hl7.org/CodeSystem/measure-population","code":"initial-population","display":"Initial Population"}]},"count":1},{"code":{"coding":[{"system":"http://terminology.hl7.org/CodeSystem/measure-population","code":"denominator","display":"Denominator"}]},"count":1},{"code":{"coding":[{"system":"http://terminology.hl7.org/CodeSystem/measure-population","code":"denominator-exclusion","display":"Denominator Exclusion"}]},"count":0},{"code":{"coding":[{"system":"http://terminology.hl7.org/CodeSystem/measure-population","code":"numerator","display":"Numerator"}]},"count":1}]}]},"request":{"method":"PUT","url":"MeasureReport/0f3f1f62-de97-4898-8e8e-2214491fd739"}}]}