{"resourceType":"Bundle","id":"tests-c0481b47-738b-4a09-8901-915ece2beb7e-bundle","type":"transaction","entry":[{"fullUrl":"https://madie.cms.gov/Patient/c0481b47-738b-4a09-8901-915ece2beb7e","resource":{"resourceType":"Patient","id":"c0481b47-738b-4a09-8901-915ece2beb7e","meta":{"profile":["http://hl7.org/fhir/us/qicore/StructureDefinition/qicore-patient"]},"text":{"status":"generated","div":"<div xmlns=\"http://www.w3.org/1999/xhtml\"><div class=\"hapiHeaderText\">PtRefMALDUH1MinBfEDEnd <b>NUMERPASS </b></div><table class=\"hapiPropertyTable\"><tbody><tr><td>Identifier</td><td>24fc1ce85ce14557dd4d9eba17df9f17</td></tr><tr><td>Date of birth</td><td><span>02 January 1974</span></td></tr></tbody></table></div>"},"extension":[{"url":"http://hl7.org/fhir/us/core/StructureDefinition/us-core-race","extension":[{"url":"ombCategory","valueCoding":{"system":"urn:oid:2.16.840.1.113883.6.238","code":"1002-5","display":"American Indian or Alaska Native","userSelected":true}},{"url":"text","valueString":"American Indian or Alaska Native"}]},{"url":"http://hl7.org/fhir/us/core/StructureDefinition/us-core-ethnicity","extension":[{"url":"ombCategory","valueCoding":{"system":"urn:oid:2.16.840.1.113883.6.238","code":"2135-2","display":"Hispanic or Latino","userSelected":true}},{"url":"text","valueString":"Hispanic or Latino"}]}],"identifier":[{"type":{"coding":[{"system":"http://terminology.hl7.org/CodeSystem/v2-0203","code":"MR"}]},"system":"https://bonnie-fhir.healthit.gov/","value":"612e6a7002c62a011f2ea15f"}],"active":true,"name":[{"use":"usual","family":"NUMERPass","given":["PtRefMALDUH1MinBfEDEnd"]}],"gender":"male","birthDate":"1975-01-02"},"request":{"method":"PUT","url":"Patient/c0481b47-738b-4a09-8901-915ece2beb7e"}},{"fullUrl":"https://madie.cms.gov/Encounter/13b5f382-4a35-409c-b420-017cb76ccfaf","resource":{"resourceType":"Encounter","id":"13b5f382-4a35-409c-b420-017cb76ccfaf","meta":{"profile":["http://hl7.org/fhir/us/qicore/StructureDefinition/qicore-encounter"]},"status":"finished","class":{"system":"http://terminology.hl7.org/CodeSystem/v3-ActCode","code":"EMER","display":"emergency"},"type":[{"coding":[{"system":"http://snomed.info/sct","code":"4525004"}]}],"subject":{"reference":"Patient/c0481b47-738b-4a09-8901-915ece2beb7e"},"period":{"start":"2026-10-31T05:00:00+00:00","end":"2026-11-01T07:15:00+00:00"},"length":{"value":1,"unit":"days"}},"request":{"method":"PUT","url":"Encounter/13b5f382-4a35-409c-b420-017cb76ccfaf"}},{"fullUrl":"https://madie.cms.gov/Encounter/82e0120d-fb83-4109-9b3f-78dc55e8b3f5","resource":{"resourceType":"Encounter","id":"82e0120d-fb83-4109-9b3f-78dc55e8b3f5","meta":{"profile":["http://hl7.org/fhir/us/qicore/StructureDefinition/qicore-encounter"]},"status":"finished","class":{"system":"http://terminology.hl7.org/CodeSystem/v3-ActCode","code":"IMP","display":"inpatient encounter"},"type":[{"coding":[{"system":"http://snomed.info/sct","code":"8715000"}]}],"subject":{"reference":"Patient/c0481b47-738b-4a09-8901-915ece2beb7e"},"period":{"start":"2026-11-01T08:00:00+00:00","end":"2026-11-26T08:15:00+00:00"},"length":{"value":25,"unit":"days"},"location":[{"location":{"reference":"Location/cf4f9be6-0f9f-4100-ab0b-5fb678be1b90"},"period":{"start":"2026-11-03T09:00:00.000+00:00","end":"2026-11-05T08:15:00.000+00:00"}}]},"request":{"method":"PUT","url":"Encounter/82e0120d-fb83-4109-9b3f-78dc55e8b3f5"}},{"fullUrl":"https://madie.cms.gov/Coverage/488187ca-3125-42b5-a82d-1f34ae674b5a","resource":{"resourceType":"Coverage","id":"488187ca-3125-42b5-a82d-1f34ae674b5a","status":"active","beneficiary":{"reference":"Patient/c0481b47-738b-4a09-8901-915ece2beb7e"},"period":{"start":"1975-01-02T08:00:00+00:00"},"payor":[{"reference":"Organization/3e899f33-84eb-4634-a770-a5a0bd7a80e7"}]},"request":{"method":"PUT","url":"Coverage/488187ca-3125-42b5-a82d-1f34ae674b5a"}},{"fullUrl":"https://madie.cms.gov/MedicationAdministration/8e430f12-a40f-42a0-9482-4296cbf4a816","resource":{"resourceType":"MedicationAdministration","id":"8e430f12-a40f-42a0-9482-4296cbf4a816","meta":{"profile":["http://hl7.org/fhir/us/qicore/StructureDefinition/qicore-mednotadministered"]},"extension":[{"url":"http://hl7.org/fhir/us/qicore/StructureDefinition/qicore-recorded","valueDateTime":"2026-11-01T07:14:00+00:00"}],"status":"not-done","statusReason":[{"coding":[{"system":"http://snomed.info/sct","code":"443390004","display":"Refusal of treatment by patient (situation)"}]}],"medicationCodeableConcept":{"coding":[{"system":"http://www.nlm.nih.gov/research/umls/rxnorm","code":"1361574"}]},"subject":{"reference":"Patient/c0481b47-738b-4a09-8901-915ece2beb7e"},"effectivePeriod":{"start":"2026-11-02T11:00:00+00:00"}},"request":{"method":"PUT","url":"MedicationAdministration/8e430f12-a40f-42a0-9482-4296cbf4a816"}},{"fullUrl":"https://madie.cms.gov/Location/cf4f9be6-0f9f-4100-ab0b-5fb678be1b90","resource":{"resourceType":"Location","id":"cf4f9be6-0f9f-4100-ab0b-5fb678be1b90","meta":{"profile":["http://hl7.org/fhir/us/qicore/StructureDefinition/qicore-location"]},"identifier":[{"use":"usual","system":"http://exampleoflocation.com","value":"B1-S.F2"}],"name":"Medical Surgical East, first floor","type":[{"coding":[{"system":"https://www.cdc.gov/nhsn/cdaportal/terminology/codesystem/hsloc.html","code":"1025-6","display":"Trauma Critical Care","userSelected":true}]}]},"request":{"method":"PUT","url":"Location/cf4f9be6-0f9f-4100-ab0b-5fb678be1b90"}},{"fullUrl":"https://madie.cms.gov/Organization/5cb0a9be-ef1f-438f-8f7a-0b98770c9a3f","resource":{"resourceType":"Organization","id":"3e899f33-84eb-4634-a770-a5a0bd7a80e7","meta":{"profile":["http://hl7.org/fhir/us/qicore/StructureDefinition/qicore-organization"]},"identifier":[{"use":"temp","system":"urn:oid:2.16.840.1.113883.4.4","value":"21-3259825"}],"active":true,"type":[{"coding":[{"system":"http://terminology.hl7.org/CodeSystem/organization-type","code":"pay","display":"Payer"}]}],"name":"Blue Cross Blue Shield of Texas","telecom":[{"system":"phone","value":"(+1) 972-766-6900"}],"address":[{"use":"billing","type":"postal","line":["P.O. Box 660044"],"city":"Dallas","state":"TX","postalCode":"75266-0044","country":"USA"}]},"request":{"method":"PUT","url":"Organization/3e899f33-84eb-4634-a770-a5a0bd7a80e7"}},{"fullUrl":"https://madie.cms.gov/Practitioner/ee87ba89-6b5c-4e21-ae18-e968b111bcb8","resource":{"resourceType":"Practitioner","id":"ee87ba89-6b5c-4e21-ae18-e968b111bcb8","identifier":[{"system":"http://hl7.org/fhir/sid/us-npi","value":"123456"}],"name":[{"family":"Evil","prefix":["Dr"]}]},"request":{"method":"PUT","url":"Practitioner/ee87ba89-6b5c-4e21-ae18-e968b111bcb8"}},{"fullUrl":"https://madie.cms.gov/MeasureReport/16b3d6dd-3ba0-4143-9f6f-a06a6614ff99","resource":{"resourceType":"MeasureReport","id":"16b3d6dd-3ba0-4143-9f6f-a06a6614ff99","meta":{"profile":["http://hl7.org/fhir/us/cqfmeasures/StructureDefinition/test-case-cqfm"]},"contained":[{"resourceType":"Parameters","id":"4528fcdd-fddf-4424-b3b7-dd95c19ea7cf-parameters","parameter":[{"name":"subject","valueString":"c0481b47-738b-4a09-8901-915ece2beb7e"}]}],"extension":[{"url":"http://hl7.org/fhir/us/cqfmeasures/StructureDefinition/cqfm-inputParameters","valueReference":{"reference":"#4528fcdd-fddf-4424-b3b7-dd95c19ea7cf-parameters"}},{"url":"http://hl7.org/fhir/us/cqfmeasures/StructureDefinition/cqfm-testCaseDescription","valueMarkdown":"Patient refuses LDUH administration in ED.\n"}],"modifierExtension":[{"url":"http://hl7.org/fhir/us/cqfmeasures/StructureDefinition/cqfm-isTestCase","valueBoolean":true}],"status":"complete","type":"individual","measure":"https://madie.cms.gov/Measure/CMS190VTEProphylaxisICUFHIR","period":{"start":"2026-01-01","end":"2026-12-31"},"group":[{"population":[{"code":{"coding":[{"system":"http://terminology.hl7.org/CodeSystem/measure-population","code":"initial-population","display":"Initial Population"}]},"count":1},{"code":{"coding":[{"system":"http://terminology.hl7.org/CodeSystem/measure-population","code":"denominator","display":"Denominator"}]},"count":1},{"code":{"coding":[{"system":"http://terminology.hl7.org/CodeSystem/measure-population","code":"denominator-exclusion","display":"Denominator Exclusion"}]},"count":0},{"code":{"coding":[{"system":"http://terminology.hl7.org/CodeSystem/measure-population","code":"numerator","display":"Numerator"}]},"count":1},{"code":{"coding":[{"system":"http://terminology.hl7.org/CodeSystem/measure-population","code":"denominator-exception","display":"Denominator Exception"}]},"count":0}]}]},"request":{"method":"PUT","url":"MeasureReport/16b3d6dd-3ba0-4143-9f6f-a06a6614ff99"}}]}