{"resourceType":"Bundle","id":"tests-39baa108-b124-4300-b71c-dc21cc509d64-bundle","type":"transaction","entry":[{"fullUrl":"https://madie.cms.gov/Patient/39baa108-b124-4300-b71c-dc21cc509d64","resource":{"resourceType":"Patient","id":"39baa108-b124-4300-b71c-dc21cc509d64","meta":{"profile":["http://hl7.org/fhir/us/qicore/StructureDefinition/qicore-patient"]},"text":{"status":"generated","div":"<div xmlns=\"http://www.w3.org/1999/xhtml\"><div class=\"hapiHeaderText\">DAGCSDayAfterAnes<b>NUMERPASS </b></div><table class=\"hapiPropertyTable\"><tbody><tr><td>Identifier</td><td>af7fb96c408ff8f32d85ce64a563f18b</td></tr><tr><td>Date of birth</td><td><span>02 January 1974</span></td></tr></tbody></table></div>"},"extension":[{"url":"http://hl7.org/fhir/us/core/StructureDefinition/us-core-race","extension":[{"url":"ombCategory","valueCoding":{"system":"urn:oid:2.16.840.1.113883.6.238","code":"1002-5","display":"American Indian or Alaska Native","userSelected":true}},{"url":"text","valueString":"American Indian or Alaska Native"}]},{"url":"http://hl7.org/fhir/us/core/StructureDefinition/us-core-ethnicity","extension":[{"url":"ombCategory","valueCoding":{"system":"urn:oid:2.16.840.1.113883.6.238","code":"2135-2","display":"Hispanic or Latino","userSelected":true}},{"url":"text","valueString":"Hispanic or Latino"}]}],"identifier":[{"type":{"coding":[{"system":"http://terminology.hl7.org/CodeSystem/v2-0203","code":"MR"}]},"system":"https://bonnie-fhir.healthit.gov/","value":"612e6a9002c62a011f2ea5f9"}],"active":true,"name":[{"use":"usual","family":"NUMERPass","given":["DAGCSDayAfterAnes"]}],"gender":"male","birthDate":"1975-01-02"},"request":{"method":"PUT","url":"Patient/39baa108-b124-4300-b71c-dc21cc509d64"}},{"fullUrl":"https://madie.cms.gov/Encounter/de36eb86-6e9a-41a0-8b21-1d9a9153d646","resource":{"resourceType":"Encounter","id":"de36eb86-6e9a-41a0-8b21-1d9a9153d646","meta":{"profile":["http://hl7.org/fhir/us/qicore/StructureDefinition/qicore-encounter"]},"status":"finished","class":{"system":"http://terminology.hl7.org/CodeSystem/v3-ActCode","code":"IMP","display":"inpatient encounter"},"type":[{"coding":[{"system":"http://snomed.info/sct","code":"8715000"}]}],"subject":{"reference":"Patient/39baa108-b124-4300-b71c-dc21cc509d64"},"period":{"start":"2026-11-01T08:00:00+00:00","end":"2026-11-26T08:15:00+00:00"},"length":{"value":25.0,"unit":"days"},"location":[{"location":{"reference":"Location/449ecf78-2139-40b8-9557-dd36c8c117aa"},"period":{"start":"2026-11-03T08:15:00.000+00:00","end":"2026-11-06T08:00:00.000+00:00"}}]},"request":{"method":"PUT","url":"Encounter/de36eb86-6e9a-41a0-8b21-1d9a9153d646"}},{"fullUrl":"https://madie.cms.gov/Coverage/81dd9c51-be61-423a-9849-87d7e400583d","resource":{"resourceType":"Coverage","id":"81dd9c51-be61-423a-9849-87d7e400583d","status":"active","beneficiary":{"reference":"Patient/39baa108-b124-4300-b71c-dc21cc509d64"},"period":{"start":"1975-01-02T08:00:00+00:00"},"payor":[{"reference":"Organization/890316dc-a4ad-43b4-ba6f-9fb9e6eca282"}]},"request":{"method":"PUT","url":"Coverage/81dd9c51-be61-423a-9849-87d7e400583d"}},{"fullUrl":"https://madie.cms.gov/Procedure/f45567b4-6743-4deb-8ea6-05a1e0c29e12","resource":{"resourceType":"Procedure","id":"f45567b4-6743-4deb-8ea6-05a1e0c29e12","meta":{"profile":["http://hl7.org/fhir/us/qicore/StructureDefinition/qicore-procedure"]},"extension":[{"url":"http://hl7.org/fhir/us/qicore/StructureDefinition/qicore-recorded","valueDateTime":"2013-11-19T09:35:00-04:00"}],"status":"completed","code":{"coding":[{"system":"http://snomed.info/sct","code":"18946005"}]},"subject":{"reference":"Patient/39baa108-b124-4300-b71c-dc21cc509d64"},"performedPeriod":{"start":"2026-11-03T09:00:00+00:00","end":"2026-11-03T19:15:00+00:00"}},"request":{"method":"PUT","url":"Procedure/f45567b4-6743-4deb-8ea6-05a1e0c29e12"}},{"fullUrl":"https://madie.cms.gov/Procedure/123f9087-98a2-43a4-ad08-50550efd6f51","resource":{"resourceType":"Procedure","id":"123f9087-98a2-43a4-ad08-50550efd6f51","meta":{"profile":["http://hl7.org/fhir/us/qicore/StructureDefinition/qicore-procedure"]},"extension":[{"url":"http://hl7.org/fhir/us/qicore/StructureDefinition/qicore-recorded","valueDateTime":"2013-11-01T09:35:00-04:00"}],"status":"completed","code":{"coding":[{"system":"http://snomed.info/sct","code":"442410008","display":"Application of venous foot pump (procedure)"}]},"subject":{"reference":"Patient/39baa108-b124-4300-b71c-dc21cc509d64"},"performedDateTime":"2026-11-04T07:00:00.000+00:00","usedCode":[{"coding":[{"system":"http://snomed.info/sct","code":"229511001","display":"Application of graduated compression garment (procedure)","userSelected":true}]}]},"request":{"method":"PUT","url":"Procedure/123f9087-98a2-43a4-ad08-50550efd6f51"}},{"fullUrl":"https://madie.cms.gov/Organization/ea26eac9-629d-45f1-b14e-c5038855753d","resource":{"resourceType":"Organization","id":"890316dc-a4ad-43b4-ba6f-9fb9e6eca282","meta":{"profile":["http://hl7.org/fhir/us/qicore/StructureDefinition/qicore-organization"]},"identifier":[{"use":"temp","system":"urn:oid:2.16.840.1.113883.4.4","value":"21-3259825"}],"active":true,"type":[{"coding":[{"system":"http://terminology.hl7.org/CodeSystem/organization-type","code":"pay","display":"Payer"}]}],"name":"Blue Cross Blue Shield of Texas","telecom":[{"system":"phone","value":"(+1) 972-766-6900"}],"address":[{"use":"billing","type":"postal","line":["P.O. Box 660044"],"city":"Dallas","state":"TX","postalCode":"75266-0044","country":"USA"}]},"request":{"method":"PUT","url":"Organization/890316dc-a4ad-43b4-ba6f-9fb9e6eca282"}},{"fullUrl":"https://madie.cms.gov/Practitioner/912034f4-66ec-4642-a093-88fe4f373193","resource":{"resourceType":"Practitioner","id":"912034f4-66ec-4642-a093-88fe4f373193","identifier":[{"system":"http://hl7.org/fhir/sid/us-npi","value":"123456"}],"name":[{"family":"Evil","prefix":["Dr"]}]},"request":{"method":"PUT","url":"Practitioner/912034f4-66ec-4642-a093-88fe4f373193"}},{"fullUrl":"https://madie.cms.gov/Location/449ecf78-2139-40b8-9557-dd36c8c117aa","resource":{"resourceType":"Location","id":"449ecf78-2139-40b8-9557-dd36c8c117aa","meta":{"profile":["http://hl7.org/fhir/us/qicore/StructureDefinition/qicore-location"]},"identifier":[{"use":"usual","system":"http://exampleoflocation.com","value":"B1-S.F2"}],"name":"Medical Surgical East, first floor","type":[{"coding":[{"system":"https://www.cdc.gov/nhsn/cdaportal/terminology/codesystem/hsloc.html","code":"1025-6","display":"Trauma Critical Care","userSelected":true}]}]},"request":{"method":"PUT","url":"Location/449ecf78-2139-40b8-9557-dd36c8c117aa"}},{"fullUrl":"https://madie.cms.gov/MeasureReport/edfaa5fa-1243-4447-b2f7-9a971cabf0f7","resource":{"resourceType":"MeasureReport","id":"edfaa5fa-1243-4447-b2f7-9a971cabf0f7","meta":{"profile":["http://hl7.org/fhir/us/cqfmeasures/StructureDefinition/test-case-cqfm"]},"contained":[{"resourceType":"Parameters","id":"f6ee1888-000e-47ce-b9a7-220ac9c183d3-parameters","parameter":[{"name":"subject","valueString":"39baa108-b124-4300-b71c-dc21cc509d64"}]}],"extension":[{"url":"http://hl7.org/fhir/us/cqfmeasures/StructureDefinition/cqfm-inputParameters","valueReference":{"reference":"#f6ee1888-000e-47ce-b9a7-220ac9c183d3-parameters"}},{"url":"http://hl7.org/fhir/us/cqfmeasures/StructureDefinition/cqfm-testCaseDescription","valueMarkdown":"Device GCS applied on 1 Day After Anesthesia sug "}],"modifierExtension":[{"url":"http://hl7.org/fhir/us/cqfmeasures/StructureDefinition/cqfm-isTestCase","valueBoolean":true}],"status":"complete","type":"individual","measure":"https://madie.cms.gov/Measure/CMS190VTEProphylaxisICUFHIR","period":{"start":"2026-01-01","end":"2026-12-31"},"group":[{"population":[{"code":{"coding":[{"system":"http://terminology.hl7.org/CodeSystem/measure-population","code":"initial-population","display":"Initial Population"}]},"count":1},{"code":{"coding":[{"system":"http://terminology.hl7.org/CodeSystem/measure-population","code":"denominator","display":"Denominator"}]},"count":1},{"code":{"coding":[{"system":"http://terminology.hl7.org/CodeSystem/measure-population","code":"denominator-exclusion","display":"Denominator Exclusion"}]},"count":0},{"code":{"coding":[{"system":"http://terminology.hl7.org/CodeSystem/measure-population","code":"numerator","display":"Numerator"}]},"count":1},{"code":{"coding":[{"system":"http://terminology.hl7.org/CodeSystem/measure-population","code":"denominator-exception","display":"Denominator Exception"}]},"count":0}]}]},"request":{"method":"PUT","url":"MeasureReport/edfaa5fa-1243-4447-b2f7-9a971cabf0f7"}}]}