{"resourceType":"Bundle","id":"tests-7e7f4563-a628-40ab-990b-ca0837313759-bundle","type":"transaction","entry":[{"fullUrl":"https://madie.cms.gov/Patient/7e7f4563-a628-40ab-990b-ca0837313759","resource":{"resourceType":"Patient","id":"7e7f4563-a628-40ab-990b-ca0837313759","meta":{"profile":["http://hl7.org/fhir/us/qicore/StructureDefinition/qicore-patient"]},"text":{"status":"generated","div":"<div xmlns=\"http://www.w3.org/1999/xhtml\"><div class=\"hapiHeaderText\">PtRefMALMWHOBS <b>NUMERPASS </b></div><table class=\"hapiPropertyTable\"><tbody><tr><td>Identifier</td><td>3dc4a512478cd906257a70aca14edeef</td></tr><tr><td>Date of birth</td><td><span>02 January 1974</span></td></tr></tbody></table></div>"},"extension":[{"url":"http://hl7.org/fhir/us/core/StructureDefinition/us-core-race","extension":[{"url":"ombCategory","valueCoding":{"system":"urn:oid:2.16.840.1.113883.6.238","code":"1002-5","display":"American Indian or Alaska Native","userSelected":true}},{"url":"text","valueString":"American Indian or Alaska Native"}]},{"url":"http://hl7.org/fhir/us/core/StructureDefinition/us-core-ethnicity","extension":[{"url":"ombCategory","valueCoding":{"system":"urn:oid:2.16.840.1.113883.6.238","code":"2135-2","display":"Hispanic or Latino","userSelected":true}},{"url":"text","valueString":"Hispanic or Latino"}]}],"identifier":[{"type":{"coding":[{"system":"http://terminology.hl7.org/CodeSystem/v2-0203","code":"MR"}]},"system":"https://bonnie-fhir.healthit.gov/","value":"612e6aaf02c62a011f2eaee7"}],"active":true,"name":[{"use":"usual","family":"NUMERPass","given":["PtRefMALMWHOBS"]}],"gender":"male","birthDate":"1975-01-02"},"request":{"method":"PUT","url":"Patient/7e7f4563-a628-40ab-990b-ca0837313759"}},{"fullUrl":"https://madie.cms.gov/Encounter/0ca41207-eb93-44e8-81fd-7b488fd6c372","resource":{"resourceType":"Encounter","id":"0ca41207-eb93-44e8-81fd-7b488fd6c372","meta":{"profile":["http://hl7.org/fhir/us/qicore/StructureDefinition/qicore-encounter"]},"status":"finished","class":{"system":"http://terminology.hl7.org/CodeSystem/v3-ActCode","code":"OBSENC","display":"observation encounter"},"type":[{"coding":[{"system":"http://snomed.info/sct","code":"448951000124107"}]}],"subject":{"reference":"Patient/7e7f4563-a628-40ab-990b-ca0837313759"},"period":{"start":"2026-10-31T05:00:00+00:00","end":"2026-11-01T07:15:00+00:00"},"length":{"value":1,"unit":"days"}},"request":{"method":"PUT","url":"Encounter/0ca41207-eb93-44e8-81fd-7b488fd6c372"}},{"fullUrl":"https://madie.cms.gov/Encounter/0a2b608d-cf54-4ea3-83c5-7f76cab502fd","resource":{"resourceType":"Encounter","id":"0a2b608d-cf54-4ea3-83c5-7f76cab502fd","meta":{"profile":["http://hl7.org/fhir/us/qicore/StructureDefinition/qicore-encounter"]},"status":"finished","class":{"system":"http://terminology.hl7.org/CodeSystem/v3-ActCode","code":"IMP","display":"inpatient encounter"},"type":[{"coding":[{"system":"http://snomed.info/sct","code":"8715000"}]}],"subject":{"reference":"Patient/7e7f4563-a628-40ab-990b-ca0837313759"},"period":{"start":"2026-11-01T08:00:00+00:00","end":"2026-11-26T08:15:00+00:00"},"length":{"value":25,"unit":"days"},"location":[{"location":{"reference":"Location/b2ef3f35-5eab-406d-82c0-21ebc76a7e1c"},"period":{"start":"2026-11-04T09:00:00.000+00:00","end":"2026-11-06T08:15:00.000+00:00"}}]},"request":{"method":"PUT","url":"Encounter/0a2b608d-cf54-4ea3-83c5-7f76cab502fd"}},{"fullUrl":"https://madie.cms.gov/Coverage/292d9e37-b1d0-4cdc-ae14-ccc1459a51b3","resource":{"resourceType":"Coverage","id":"292d9e37-b1d0-4cdc-ae14-ccc1459a51b3","status":"active","beneficiary":{"reference":"Patient/7e7f4563-a628-40ab-990b-ca0837313759"},"period":{"start":"1975-01-02T08:00:00+00:00"},"payor":[{"reference":"Organization/607fdef9-3983-4cef-ab1a-95434d29b463"}]},"request":{"method":"PUT","url":"Coverage/292d9e37-b1d0-4cdc-ae14-ccc1459a51b3"}},{"fullUrl":"https://madie.cms.gov/MedicationAdministration/f78315b3-8467-4aa0-bb92-3aaabe588ed8","resource":{"resourceType":"MedicationAdministration","id":"f78315b3-8467-4aa0-bb92-3aaabe588ed8","meta":{"profile":["http://hl7.org/fhir/us/qicore/StructureDefinition/qicore-mednotadministered"]},"extension":[{"url":"http://hl7.org/fhir/us/qicore/StructureDefinition/qicore-recorded","valueDateTime":"2026-11-02T11:00:00+00:00"}],"status":"not-done","statusReason":[{"coding":[{"system":"http://snomed.info/sct","code":"443390004","display":"Refusal of treatment by patient (situation)"}]}],"medicationCodeableConcept":{"coding":[{"system":"http://www.nlm.nih.gov/research/umls/rxnorm","code":"854228"}]},"subject":{"reference":"Patient/7e7f4563-a628-40ab-990b-ca0837313759"},"effectivePeriod":{"start":"2026-11-01T06:00:00+00:00"}},"request":{"method":"PUT","url":"MedicationAdministration/f78315b3-8467-4aa0-bb92-3aaabe588ed8"}},{"fullUrl":"https://madie.cms.gov/Location/b2ef3f35-5eab-406d-82c0-21ebc76a7e1c","resource":{"resourceType":"Location","id":"b2ef3f35-5eab-406d-82c0-21ebc76a7e1c","meta":{"profile":["http://hl7.org/fhir/us/qicore/StructureDefinition/qicore-location"]},"identifier":[{"use":"usual","system":"http://exampleoflocation.com","value":"B1-S.F2"}],"name":"Medical Surgical East, first floor","type":[{"coding":[{"system":"https://www.cdc.gov/nhsn/cdaportal/terminology/codesystem/hsloc.html","code":"1025-6","display":"Trauma Critical Care","userSelected":true}]}]},"request":{"method":"PUT","url":"Location/b2ef3f35-5eab-406d-82c0-21ebc76a7e1c"}},{"fullUrl":"https://madie.cms.gov/Organization/4adf78b6-6501-40fa-9da2-664164ea2066","resource":{"resourceType":"Organization","id":"607fdef9-3983-4cef-ab1a-95434d29b463","meta":{"profile":["http://hl7.org/fhir/us/qicore/StructureDefinition/qicore-organization"]},"identifier":[{"use":"temp","system":"urn:oid:2.16.840.1.113883.4.4","value":"21-3259825"}],"active":true,"type":[{"coding":[{"system":"http://terminology.hl7.org/CodeSystem/organization-type","code":"pay","display":"Payer"}]}],"name":"Blue Cross Blue Shield of Texas","telecom":[{"system":"phone","value":"(+1) 972-766-6900"}],"address":[{"use":"billing","type":"postal","line":["P.O. Box 660044"],"city":"Dallas","state":"TX","postalCode":"75266-0044","country":"USA"}]},"request":{"method":"PUT","url":"Organization/607fdef9-3983-4cef-ab1a-95434d29b463"}},{"fullUrl":"https://madie.cms.gov/Practitioner/f5400eb2-f6fa-45d5-8874-661aa5a42ce5","resource":{"resourceType":"Practitioner","id":"f5400eb2-f6fa-45d5-8874-661aa5a42ce5","identifier":[{"system":"http://hl7.org/fhir/sid/us-npi","value":"123456"}],"name":[{"family":"Evil","prefix":["Dr"]}]},"request":{"method":"PUT","url":"Practitioner/f5400eb2-f6fa-45d5-8874-661aa5a42ce5"}},{"fullUrl":"https://madie.cms.gov/MeasureReport/fd962c32-fbd0-4175-bddb-6b2a7fb5efa8","resource":{"resourceType":"MeasureReport","id":"fd962c32-fbd0-4175-bddb-6b2a7fb5efa8","meta":{"profile":["http://hl7.org/fhir/us/cqfmeasures/StructureDefinition/test-case-cqfm"]},"contained":[{"resourceType":"Parameters","id":"b564b0c7-6bc6-4a44-920b-be193a668c37-parameters","parameter":[{"name":"subject","valueString":"7e7f4563-a628-40ab-990b-ca0837313759"}]}],"extension":[{"url":"http://hl7.org/fhir/us/cqfmeasures/StructureDefinition/cqfm-inputParameters","valueReference":{"reference":"#b564b0c7-6bc6-4a44-920b-be193a668c37-parameters"}},{"url":"http://hl7.org/fhir/us/cqfmeasures/StructureDefinition/cqfm-testCaseDescription","valueMarkdown":"Patient refuses LMWH adm in Observation Service\n"}],"modifierExtension":[{"url":"http://hl7.org/fhir/us/cqfmeasures/StructureDefinition/cqfm-isTestCase","valueBoolean":true}],"status":"complete","type":"individual","measure":"https://madie.cms.gov/Measure/CMS190VTEProphylaxisICUFHIR","period":{"start":"2026-01-01","end":"2026-12-31"},"group":[{"population":[{"code":{"coding":[{"system":"http://terminology.hl7.org/CodeSystem/measure-population","code":"initial-population","display":"Initial Population"}]},"count":1},{"code":{"coding":[{"system":"http://terminology.hl7.org/CodeSystem/measure-population","code":"denominator","display":"Denominator"}]},"count":1},{"code":{"coding":[{"system":"http://terminology.hl7.org/CodeSystem/measure-population","code":"denominator-exclusion","display":"Denominator Exclusion"}]},"count":0},{"code":{"coding":[{"system":"http://terminology.hl7.org/CodeSystem/measure-population","code":"numerator","display":"Numerator"}]},"count":1},{"code":{"coding":[{"system":"http://terminology.hl7.org/CodeSystem/measure-population","code":"denominator-exception","display":"Denominator Exception"}]},"count":0}]}]},"request":{"method":"PUT","url":"MeasureReport/fd962c32-fbd0-4175-bddb-6b2a7fb5efa8"}}]}