{"resourceType":"Bundle","id":"tests-afb6cd61-89e3-4b1c-b4c9-b883832ddcd5-bundle","type":"transaction","entry":[{"fullUrl":"https://madie.cms.gov/Patient/afb6cd61-89e3-4b1c-b4c9-b883832ddcd5","resource":{"resourceType":"Patient","id":"afb6cd61-89e3-4b1c-b4c9-b883832ddcd5","meta":{"profile":["http://hl7.org/fhir/us/qicore/StructureDefinition/qicore-patient"]},"text":{"status":"generated","div":"<div xmlns=\"http://www.w3.org/1999/xhtml\"><div class=\"hapiHeaderText\">CMOPerfGT1DayAfterAnesEnd <b>DENEXFAIL </b></div><table class=\"hapiPropertyTable\"><tbody><tr><td>Identifier</td><td>89fbfddc5e63c9f4a082d657ebf84aee</td></tr><tr><td>Date of birth</td><td><span>03 March 1974</span></td></tr></tbody></table></div>"},"extension":[{"url":"http://hl7.org/fhir/us/core/StructureDefinition/us-core-race","extension":[{"url":"ombCategory","valueCoding":{"system":"urn:oid:2.16.840.1.113883.6.238","code":"1002-5","display":"American Indian or Alaska Native","userSelected":true}},{"url":"text","valueString":"American Indian or Alaska Native"}]},{"url":"http://hl7.org/fhir/us/core/StructureDefinition/us-core-ethnicity","extension":[{"url":"ombCategory","valueCoding":{"system":"urn:oid:2.16.840.1.113883.6.238","code":"2135-2","display":"Hispanic or Latino","userSelected":true}},{"url":"text","valueString":"Hispanic or Latino"}]}],"identifier":[{"type":{"coding":[{"system":"http://terminology.hl7.org/CodeSystem/v2-0203","code":"MR"}]},"system":"https://bonnie-fhir.healthit.gov/","value":"612e6ec702c62a011f2ef906"}],"active":true,"name":[{"use":"usual","family":"DENEXFail","given":["CMOPerGT1DayAfterAnesEnd"]}],"gender":"female","birthDate":"1975-03-03"},"request":{"method":"PUT","url":"Patient/afb6cd61-89e3-4b1c-b4c9-b883832ddcd5"}},{"fullUrl":"https://madie.cms.gov/Encounter/471e7297-0e6c-48e0-b3bf-fd208e1db99e","resource":{"resourceType":"Encounter","id":"471e7297-0e6c-48e0-b3bf-fd208e1db99e","meta":{"profile":["http://hl7.org/fhir/us/qicore/StructureDefinition/qicore-encounter"]},"status":"finished","class":{"system":"http://terminology.hl7.org/CodeSystem/v3-ActCode","code":"IMP","display":"inpatient encounter"},"type":[{"coding":[{"system":"http://snomed.info/sct","code":"8715000"}]}],"subject":{"reference":"Patient/afb6cd61-89e3-4b1c-b4c9-b883832ddcd5"},"period":{"start":"2026-12-04T08:00:00+00:00","end":"2026-12-30T08:15:00+00:00"},"length":{"value":26.0,"unit":"days"},"location":[{"location":{"reference":"Location/84eff546-270e-4a0c-877f-7bd64c014ec6"},"period":{"start":"2026-12-06T08:00:00.000+00:00","end":"2026-12-12T08:15:00.000+00:00"}}]},"request":{"method":"PUT","url":"Encounter/471e7297-0e6c-48e0-b3bf-fd208e1db99e"}},{"fullUrl":"https://madie.cms.gov/Procedure/f94e0bac-7000-4e5d-be25-2245ad37ae6d","resource":{"resourceType":"Procedure","id":"f94e0bac-7000-4e5d-be25-2245ad37ae6d","meta":{"profile":["http://hl7.org/fhir/us/qicore/StructureDefinition/qicore-procedure"]},"extension":[{"url":"http://hl7.org/fhir/us/qicore/StructureDefinition/qicore-recorded","valueDateTime":"2013-12-08T09:35:00-04:00"}],"status":"completed","code":{"coding":[{"system":"http://snomed.info/sct","code":"133918004"}]},"subject":{"reference":"Patient/afb6cd61-89e3-4b1c-b4c9-b883832ddcd5"},"performedPeriod":{"start":"2026-12-08T11:30:00+00:00"}},"request":{"method":"PUT","url":"Procedure/f94e0bac-7000-4e5d-be25-2245ad37ae6d"}},{"fullUrl":"https://madie.cms.gov/Coverage/a299dd84-2630-42a4-b39b-83faa0b6307d","resource":{"resourceType":"Coverage","id":"a299dd84-2630-42a4-b39b-83faa0b6307d","status":"active","beneficiary":{"reference":"Patient/afb6cd61-89e3-4b1c-b4c9-b883832ddcd5"},"period":{"start":"1975-03-03T08:00:00+00:00"},"payor":[{"reference":"Organization/4da248b0-6e59-49b7-b80e-338aa21d299f"}]},"request":{"method":"PUT","url":"Coverage/a299dd84-2630-42a4-b39b-83faa0b6307d"}},{"fullUrl":"https://madie.cms.gov/Procedure/9d210700-0bdd-4787-a584-307169d44c15","resource":{"resourceType":"Procedure","id":"9d210700-0bdd-4787-a584-307169d44c15","meta":{"profile":["http://hl7.org/fhir/us/qicore/StructureDefinition/qicore-procedure"]},"extension":[{"url":"http://hl7.org/fhir/us/qicore/StructureDefinition/qicore-recorded","valueDateTime":"2013-12-06T09:35:00-04:00"}],"status":"completed","code":{"coding":[{"system":"http://snomed.info/sct","code":"18946005"}]},"subject":{"reference":"Patient/afb6cd61-89e3-4b1c-b4c9-b883832ddcd5"},"performedPeriod":{"start":"2026-12-04T11:00:00+00:00","end":"2026-12-06T11:15:00+00:00"}},"request":{"method":"PUT","url":"Procedure/9d210700-0bdd-4787-a584-307169d44c15"}},{"fullUrl":"https://madie.cms.gov/Location/84eff546-270e-4a0c-877f-7bd64c014ec6","resource":{"resourceType":"Location","id":"84eff546-270e-4a0c-877f-7bd64c014ec6","meta":{"profile":["http://hl7.org/fhir/us/qicore/StructureDefinition/qicore-location"]},"identifier":[{"use":"usual","system":"http://exampleoflocation.com","value":"B1-S.F2"}],"name":"Medical Surgical East, first floor","type":[{"coding":[{"system":"https://www.cdc.gov/nhsn/cdaportal/terminology/codesystem/hsloc.html","code":"1025-6","display":"Trauma Critical Care","userSelected":true}]}]},"request":{"method":"PUT","url":"Location/84eff546-270e-4a0c-877f-7bd64c014ec6"}},{"fullUrl":"https://madie.cms.gov/Organization/0f1056c1-cd33-4c88-bfe4-91f66c60c661","resource":{"resourceType":"Organization","id":"4da248b0-6e59-49b7-b80e-338aa21d299f","meta":{"profile":["http://hl7.org/fhir/us/qicore/StructureDefinition/qicore-organization"]},"identifier":[{"use":"temp","system":"urn:oid:2.16.840.1.113883.4.4","value":"21-3259825"}],"active":true,"type":[{"coding":[{"system":"http://terminology.hl7.org/CodeSystem/organization-type","code":"pay","display":"Payer"}]}],"name":"Blue Cross Blue Shield of Texas","telecom":[{"system":"phone","value":"(+1) 972-766-6900"}],"address":[{"use":"billing","type":"postal","line":["P.O. Box 660044"],"city":"Dallas","state":"TX","postalCode":"75266-0044","country":"USA"}]},"request":{"method":"PUT","url":"Organization/4da248b0-6e59-49b7-b80e-338aa21d299f"}},{"fullUrl":"https://madie.cms.gov/Practitioner/b14881c2-bf93-47f2-8a43-d398de1aa0d1","resource":{"resourceType":"Practitioner","id":"b14881c2-bf93-47f2-8a43-d398de1aa0d1","identifier":[{"system":"http://hl7.org/fhir/sid/us-npi","value":"123456"}],"name":[{"family":"Evil","prefix":["Dr"]}]},"request":{"method":"PUT","url":"Practitioner/b14881c2-bf93-47f2-8a43-d398de1aa0d1"}},{"fullUrl":"https://madie.cms.gov/MeasureReport/ed7d6791-7cdf-4bab-b3da-1d2ddfd0e59b","resource":{"resourceType":"MeasureReport","id":"ed7d6791-7cdf-4bab-b3da-1d2ddfd0e59b","meta":{"profile":["http://hl7.org/fhir/us/cqfmeasures/StructureDefinition/test-case-cqfm"]},"contained":[{"resourceType":"Parameters","id":"c4bad568-c365-48b6-bfd9-0108abc79e33-parameters","parameter":[{"name":"subject","valueString":"afb6cd61-89e3-4b1c-b4c9-b883832ddcd5"}]}],"extension":[{"url":"http://hl7.org/fhir/us/cqfmeasures/StructureDefinition/cqfm-inputParameters","valueReference":{"reference":"#c4bad568-c365-48b6-bfd9-0108abc79e33-parameters"}},{"url":"http://hl7.org/fhir/us/cqfmeasures/StructureDefinition/cqfm-testCaseDescription","valueMarkdown":"comfort measures > 1 day after end of neuraxial anesthesia\n"}],"modifierExtension":[{"url":"http://hl7.org/fhir/us/cqfmeasures/StructureDefinition/cqfm-isTestCase","valueBoolean":true}],"status":"complete","type":"individual","measure":"https://madie.cms.gov/Measure/CMS190VTEProphylaxisICUFHIR","period":{"start":"2026-01-01","end":"2026-12-31"},"group":[{"population":[{"code":{"coding":[{"system":"http://terminology.hl7.org/CodeSystem/measure-population","code":"initial-population","display":"Initial Population"}]},"count":1},{"code":{"coding":[{"system":"http://terminology.hl7.org/CodeSystem/measure-population","code":"denominator","display":"Denominator"}]},"count":1},{"code":{"coding":[{"system":"http://terminology.hl7.org/CodeSystem/measure-population","code":"denominator-exclusion","display":"Denominator Exclusion"}]},"count":0},{"code":{"coding":[{"system":"http://terminology.hl7.org/CodeSystem/measure-population","code":"numerator","display":"Numerator"}]},"count":0},{"code":{"coding":[{"system":"http://terminology.hl7.org/CodeSystem/measure-population","code":"denominator-exception","display":"Denominator Exception"}]},"count":0}]}]},"request":{"method":"PUT","url":"MeasureReport/ed7d6791-7cdf-4bab-b3da-1d2ddfd0e59b"}}]}