{"resourceType":"Bundle","id":"tests-d8271c75-5d30-4a02-9584-1572b0570843-bundle","type":"transaction","entry":[{"fullUrl":"https://madie.cms.gov/Patient/d8271c75-5d30-4a02-9584-1572b0570843","resource":{"resourceType":"Patient","id":"d8271c75-5d30-4a02-9584-1572b0570843","meta":{"profile":["http://hl7.org/fhir/us/qicore/StructureDefinition/qicore-patient"]},"text":{"status":"generated","div":"<div xmlns=\"http://www.w3.org/1999/xhtml\"><div class=\"hapiHeaderText\">UrologicalSurgeryDayOfICUStart <b>DENEXPASS </b></div><table class=\"hapiPropertyTable\"><tbody><tr><td>Identifier</td><td>9214f043f436048cfea186089d4ffb3f1663d62344799d81208efc969b033c47</td></tr><tr><td>Date of birth</td><td><span>03 March 1974</span></td></tr></tbody></table></div>"},"extension":[{"url":"http://hl7.org/fhir/us/core/StructureDefinition/us-core-race","extension":[{"url":"ombCategory","valueCoding":{"system":"urn:oid:2.16.840.1.113883.6.238","code":"1002-5","display":"American Indian or Alaska Native","userSelected":true}},{"url":"text","valueString":"American Indian or Alaska Native"}]},{"url":"http://hl7.org/fhir/us/core/StructureDefinition/us-core-ethnicity","extension":[{"url":"ombCategory","valueCoding":{"system":"urn:oid:2.16.840.1.113883.6.238","code":"2135-2","display":"Hispanic or Latino","userSelected":true}},{"url":"text","valueString":"Hispanic or Latino"}]}],"identifier":[{"type":{"coding":[{"system":"http://terminology.hl7.org/CodeSystem/v2-0203","code":"MR"}]},"system":"https://bonnie-fhir.healthit.gov/","value":"612e6f6202c62a011f2f1a06"}],"active":true,"name":[{"use":"usual","family":"DENEXPass","given":["UrologicalSurgeryDayOfICUStart"]}],"gender":"male","birthDate":"1975-03-03"},"request":{"method":"PUT","url":"Patient/d8271c75-5d30-4a02-9584-1572b0570843"}},{"fullUrl":"https://madie.cms.gov/Encounter/567683d4-6da8-4107-aa8f-b84d93ba4a2d","resource":{"resourceType":"Encounter","id":"567683d4-6da8-4107-aa8f-b84d93ba4a2d","meta":{"profile":["http://hl7.org/fhir/us/qicore/StructureDefinition/qicore-encounter"]},"extension":[{"url":"http://hl7.org/fhir/us/qicore/StructureDefinition/qicore-encounter-procedure","extension":[{"url":"type","valueCodeableConcept":{"coding":[{"system":"http://www.cms.gov/Medicare/Coding/ICD10","code":"0T9400Z"}]}},{"url":"rank","valuePositiveInt":1},{"url":"procedure","valueReference":{"reference":"Procedure/9b46f210-6150-4bf7-9531-325d41a7b041"}}]}],"status":"finished","class":{"system":"http://terminology.hl7.org/CodeSystem/v3-ActCode","code":"IMP","display":"inpatient encounter"},"type":[{"coding":[{"system":"http://snomed.info/sct","code":"8715000"}]}],"subject":{"reference":"Patient/d8271c75-5d30-4a02-9584-1572b0570843"},"period":{"start":"2026-12-04T08:00:00+00:00","end":"2026-12-30T08:15:00+00:00"},"length":{"value":26.0,"unit":"days"},"location":[{"location":{"reference":"Location/67b00e4a-7eee-415a-992a-9e679d71e671"},"period":{"start":"2026-12-06T05:00:00+00:00","end":"2026-12-28T08:15:00.000+00:00"}}]},"request":{"method":"PUT","url":"Encounter/567683d4-6da8-4107-aa8f-b84d93ba4a2d"}},{"fullUrl":"https://madie.cms.gov/Coverage/f2d9d092-7ba4-40e4-8ea1-a88f3bfe9fd2","resource":{"resourceType":"Coverage","id":"f2d9d092-7ba4-40e4-8ea1-a88f3bfe9fd2","status":"active","beneficiary":{"reference":"Patient/d8271c75-5d30-4a02-9584-1572b0570843"},"period":{"start":"1975-03-03T08:00:00+00:00"},"payor":[{"reference":"Organization/3778262e-e084-4bb5-9a47-1a144735f786"}]},"request":{"method":"PUT","url":"Coverage/f2d9d092-7ba4-40e4-8ea1-a88f3bfe9fd2"}},{"fullUrl":"https://madie.cms.gov/Procedure/9b46f210-6150-4bf7-9531-325d41a7b041","resource":{"resourceType":"Procedure","id":"9b46f210-6150-4bf7-9531-325d41a7b041","meta":{"profile":["http://hl7.org/fhir/us/qicore/StructureDefinition/qicore-procedure"]},"extension":[{"url":"http://hl7.org/fhir/us/qicore/StructureDefinition/qicore-recorded","valueDateTime":"2013-12-04T09:35:00-04:00"}],"status":"completed","code":{"coding":[{"system":"http://www.cms.gov/Medicare/Coding/ICD10","code":"0T9400Z"}]},"subject":{"reference":"Patient/d8271c75-5d30-4a02-9584-1572b0570843"},"performedPeriod":{"start":"2026-12-06T07:00:00+00:00","end":"2026-12-06T13:00:00+00:00"}},"request":{"method":"PUT","url":"Procedure/9b46f210-6150-4bf7-9531-325d41a7b041"}},{"fullUrl":"https://madie.cms.gov/Location/67b00e4a-7eee-415a-992a-9e679d71e671","resource":{"resourceType":"Location","id":"67b00e4a-7eee-415a-992a-9e679d71e671","meta":{"profile":["http://hl7.org/fhir/us/qicore/StructureDefinition/qicore-location"]},"identifier":[{"use":"usual","system":"http://exampleoflocation.com","value":"B1-S.F2"}],"name":"Medical Surgical East, first floor","type":[{"coding":[{"system":"https://www.cdc.gov/nhsn/cdaportal/terminology/codesystem/hsloc.html","code":"1025-6","display":"Trauma Critical Care","userSelected":true}]}]},"request":{"method":"PUT","url":"Location/67b00e4a-7eee-415a-992a-9e679d71e671"}},{"fullUrl":"https://madie.cms.gov/Organization/54ae21ee-0f99-4566-9664-328b209df5c8","resource":{"resourceType":"Organization","id":"3778262e-e084-4bb5-9a47-1a144735f786","meta":{"profile":["http://hl7.org/fhir/us/qicore/StructureDefinition/qicore-organization"]},"identifier":[{"use":"temp","system":"urn:oid:2.16.840.1.113883.4.4","value":"21-3259825"}],"active":true,"type":[{"coding":[{"system":"http://terminology.hl7.org/CodeSystem/organization-type","code":"pay","display":"Payer"}]}],"name":"Blue Cross Blue Shield of Texas","telecom":[{"system":"phone","value":"(+1) 972-766-6900"}],"address":[{"use":"billing","type":"postal","line":["P.O. Box 660044"],"city":"Dallas","state":"TX","postalCode":"75266-0044","country":"USA"}]},"request":{"method":"PUT","url":"Organization/3778262e-e084-4bb5-9a47-1a144735f786"}},{"fullUrl":"https://madie.cms.gov/Practitioner/b63e9a0b-0b02-498f-9e43-ed60129f87aa","resource":{"resourceType":"Practitioner","id":"b63e9a0b-0b02-498f-9e43-ed60129f87aa","identifier":[{"system":"http://hl7.org/fhir/sid/us-npi","value":"123456"}],"name":[{"family":"Evil","prefix":["Dr"]}]},"request":{"method":"PUT","url":"Practitioner/b63e9a0b-0b02-498f-9e43-ed60129f87aa"}},{"fullUrl":"https://madie.cms.gov/MeasureReport/652fc59c-beaa-4add-bb8d-3b2cff8147d8","resource":{"resourceType":"MeasureReport","id":"652fc59c-beaa-4add-bb8d-3b2cff8147d8","meta":{"profile":["http://hl7.org/fhir/us/cqfmeasures/StructureDefinition/test-case-cqfm"]},"contained":[{"resourceType":"Parameters","id":"d4a6b144-3d14-4b12-a373-77be5c9c433c-parameters","parameter":[{"name":"subject","valueString":"d8271c75-5d30-4a02-9584-1572b0570843"}]}],"extension":[{"url":"http://hl7.org/fhir/us/cqfmeasures/StructureDefinition/cqfm-inputParameters","valueReference":{"reference":"#d4a6b144-3d14-4b12-a373-77be5c9c433c-parameters"}},{"url":"http://hl7.org/fhir/us/cqfmeasures/StructureDefinition/cqfm-testCaseDescription","valueMarkdown":"UrologicalSurgery on same day of ICUStart\n"}],"modifierExtension":[{"url":"http://hl7.org/fhir/us/cqfmeasures/StructureDefinition/cqfm-isTestCase","valueBoolean":true}],"status":"complete","type":"individual","measure":"https://madie.cms.gov/Measure/CMS190VTEProphylaxisICUFHIR","period":{"start":"2026-01-01","end":"2026-12-31"},"group":[{"population":[{"code":{"coding":[{"system":"http://terminology.hl7.org/CodeSystem/measure-population","code":"initial-population","display":"Initial Population"}]},"count":1},{"code":{"coding":[{"system":"http://terminology.hl7.org/CodeSystem/measure-population","code":"denominator","display":"Denominator"}]},"count":1},{"code":{"coding":[{"system":"http://terminology.hl7.org/CodeSystem/measure-population","code":"denominator-exclusion","display":"Denominator Exclusion"}]},"count":1},{"code":{"coding":[{"system":"http://terminology.hl7.org/CodeSystem/measure-population","code":"numerator","display":"Numerator"}]},"count":0},{"code":{"coding":[{"system":"http://terminology.hl7.org/CodeSystem/measure-population","code":"denominator-exception","display":"Denominator Exception"}]},"count":0}]}]},"request":{"method":"PUT","url":"MeasureReport/652fc59c-beaa-4add-bb8d-3b2cff8147d8"}}]}