{"resourceType":"Bundle","id":"tests-f035a977-30d0-487c-b542-a596e718420c-bundle","type":"transaction","entry":[{"fullUrl":"https://madie.cms.gov/Patient/f035a977-30d0-487c-b542-a596e718420c","resource":{"resourceType":"Patient","id":"f035a977-30d0-487c-b542-a596e718420c","meta":{"profile":["http://hl7.org/fhir/us/qicore/StructureDefinition/qicore-patient"]},"text":{"status":"generated","div":"<div xmlns=\"http://www.w3.org/1999/xhtml\"><div class=\"hapiHeaderText\">INR4DayAfterAnes <b>NUMERPASS </b></div><table class=\"hapiPropertyTable\"><tbody><tr><td>Identifier</td><td>61ceb527a4f89bd1b9709703ac13c101</td></tr><tr><td>Date of birth</td><td><span>03 March 1974</span></td></tr></tbody></table></div>"},"extension":[{"url":"http://hl7.org/fhir/us/core/StructureDefinition/us-core-race","extension":[{"url":"ombCategory","valueCoding":{"system":"urn:oid:2.16.840.1.113883.6.238","code":"1002-5","display":"American Indian or Alaska Native","userSelected":true}},{"url":"text","valueString":"American Indian or Alaska Native"}]},{"url":"http://hl7.org/fhir/us/core/StructureDefinition/us-core-ethnicity","extension":[{"url":"ombCategory","valueCoding":{"system":"urn:oid:2.16.840.1.113883.6.238","code":"2135-2","display":"Hispanic or Latino","userSelected":true}},{"url":"text","valueString":"Hispanic or Latino"}]}],"identifier":[{"type":{"coding":[{"system":"http://terminology.hl7.org/CodeSystem/v2-0203","code":"MR"}]},"system":"https://bonnie-fhir.healthit.gov/","value":"612e6ed002c62a011f2efb28"}],"active":true,"name":[{"use":"usual","family":"NUMERPass","given":["INR4DayAfterAnes"]}],"gender":"female","birthDate":"1975-03-03"},"request":{"method":"PUT","url":"Patient/f035a977-30d0-487c-b542-a596e718420c"}},{"fullUrl":"https://madie.cms.gov/Encounter/bcf3afd4-22fe-48b4-80e2-dbf7c6e07460","resource":{"resourceType":"Encounter","id":"bcf3afd4-22fe-48b4-80e2-dbf7c6e07460","meta":{"profile":["http://hl7.org/fhir/us/qicore/StructureDefinition/qicore-encounter"]},"status":"finished","class":{"system":"http://terminology.hl7.org/CodeSystem/v3-ActCode","code":"IMP","display":"inpatient encounter"},"type":[{"coding":[{"system":"http://snomed.info/sct","code":"8715000"}]}],"subject":{"reference":"Patient/f035a977-30d0-487c-b542-a596e718420c"},"period":{"start":"2026-12-04T08:00:00+00:00","end":"2026-12-30T08:15:00+00:00"},"length":{"value":26.0,"unit":"days"},"location":[{"location":{"reference":"Location/d4286e0a-1151-4ef5-a3ac-67edf01a25fc"},"period":{"start":"2026-12-06T08:00:00+00:00","end":"2026-12-12T08:15:00+00:00"}}]},"request":{"method":"PUT","url":"Encounter/bcf3afd4-22fe-48b4-80e2-dbf7c6e07460"}},{"fullUrl":"https://madie.cms.gov/Coverage/e003bd7c-3c35-4c06-9b11-a8f67df76259","resource":{"resourceType":"Coverage","id":"e003bd7c-3c35-4c06-9b11-a8f67df76259","status":"active","beneficiary":{"reference":"Patient/f035a977-30d0-487c-b542-a596e718420c"},"period":{"start":"1975-03-03T08:00:00+00:00"},"payor":[{"reference":"Organization/3778262e-e084-4bb5-9a47-1a144735f786"}]},"request":{"method":"PUT","url":"Coverage/e003bd7c-3c35-4c06-9b11-a8f67df76259"}},{"fullUrl":"https://madie.cms.gov/Observation/5af19a69-8a4d-4c28-88e9-e515f84e317d","resource":{"resourceType":"Observation","id":"5af19a69-8a4d-4c28-88e9-e515f84e317d","meta":{"profile":["http://hl7.org/fhir/us/core/StructureDefinition/us-core-observation-lab"]},"status":"final","category":[{"coding":[{"system":"http://terminology.hl7.org/CodeSystem/observation-category","code":"laboratory","display":"Laboratory"}]}],"code":{"coding":[{"system":"http://loinc.org","code":"34714-6"}]},"subject":{"reference":"Patient/f035a977-30d0-487c-b542-a596e718420c"},"effectiveDateTime":"2026-12-08T11:30:00+00:00","issued":"2026-12-06T11:30:00+00:00","valueQuantity":{"value":4.0,"unit":"{INR}"}},"request":{"method":"PUT","url":"Observation/5af19a69-8a4d-4c28-88e9-e515f84e317d"}},{"fullUrl":"https://madie.cms.gov/Procedure/162b9d72-e1a0-4899-a267-5b81a756c120","resource":{"resourceType":"Procedure","id":"162b9d72-e1a0-4899-a267-5b81a756c120","meta":{"profile":["http://hl7.org/fhir/us/qicore/StructureDefinition/qicore-procedure"]},"extension":[{"url":"http://hl7.org/fhir/us/qicore/StructureDefinition/qicore-recorded","valueDateTime":"2013-12-08T09:35:00-04:00"}],"status":"completed","code":{"coding":[{"system":"http://snomed.info/sct","code":"18946005"}]},"subject":{"reference":"Patient/f035a977-30d0-487c-b542-a596e718420c"},"performedPeriod":{"start":"2026-12-07T10:00:00+00:00","end":"2026-12-07T10:30:00+00:00"}},"request":{"method":"PUT","url":"Procedure/162b9d72-e1a0-4899-a267-5b81a756c120"}},{"fullUrl":"https://madie.cms.gov/Location/d4286e0a-1151-4ef5-a3ac-67edf01a25fc","resource":{"resourceType":"Location","id":"d4286e0a-1151-4ef5-a3ac-67edf01a25fc","meta":{"profile":["http://hl7.org/fhir/us/qicore/StructureDefinition/qicore-location"]},"identifier":[{"use":"usual","system":"http://exampleoflocation.com","value":"B1-S.F2"}],"name":"Medical Surgical East, first floor","type":[{"coding":[{"system":"https://www.cdc.gov/nhsn/cdaportal/terminology/codesystem/hsloc.html","code":"1025-6","display":"Trauma Critical Care","userSelected":true}]}]},"request":{"method":"PUT","url":"Location/d4286e0a-1151-4ef5-a3ac-67edf01a25fc"}},{"fullUrl":"https://madie.cms.gov/Organization/3a1878c3-ab9a-4c0c-8c8d-3202ad4fe171","resource":{"resourceType":"Organization","id":"3778262e-e084-4bb5-9a47-1a144735f786","meta":{"profile":["http://hl7.org/fhir/us/qicore/StructureDefinition/qicore-organization"]},"identifier":[{"use":"temp","system":"urn:oid:2.16.840.1.113883.4.4","value":"21-3259825"}],"active":true,"type":[{"coding":[{"system":"http://terminology.hl7.org/CodeSystem/organization-type","code":"pay","display":"Payer"}]}],"name":"Blue Cross Blue Shield of Texas","telecom":[{"system":"phone","value":"(+1) 972-766-6900"}],"address":[{"use":"billing","type":"postal","line":["P.O. Box 660044"],"city":"Dallas","state":"TX","postalCode":"75266-0044","country":"USA"}]},"request":{"method":"PUT","url":"Organization/3778262e-e084-4bb5-9a47-1a144735f786"}},{"fullUrl":"https://madie.cms.gov/Practitioner/4eb53694-f5fa-4b38-b8b7-e0604ef2f377","resource":{"resourceType":"Practitioner","id":"4eb53694-f5fa-4b38-b8b7-e0604ef2f377","identifier":[{"system":"http://hl7.org/fhir/sid/us-npi","value":"123456"}],"name":[{"family":"Evil","prefix":["Dr"]}]},"request":{"method":"PUT","url":"Practitioner/4eb53694-f5fa-4b38-b8b7-e0604ef2f377"}},{"fullUrl":"https://madie.cms.gov/MeasureReport/3b14a704-0a68-4603-97f1-4cba847d9050","resource":{"resourceType":"MeasureReport","id":"3b14a704-0a68-4603-97f1-4cba847d9050","meta":{"profile":["http://hl7.org/fhir/us/cqfmeasures/StructureDefinition/test-case-cqfm"]},"contained":[{"resourceType":"Parameters","id":"1cfeb63b-bfbe-4e38-86a6-3e5b5e09aa19-parameters","parameter":[{"name":"subject","valueString":"f035a977-30d0-487c-b542-a596e718420c"}]}],"extension":[{"url":"http://hl7.org/fhir/us/cqfmeasures/StructureDefinition/cqfm-inputParameters","valueReference":{"reference":"#1cfeb63b-bfbe-4e38-86a6-3e5b5e09aa19-parameters"}},{"url":"http://hl7.org/fhir/us/cqfmeasures/StructureDefinition/cqfm-testCaseDescription","valueMarkdown":"INR4DayAfterAnes\n"}],"modifierExtension":[{"url":"http://hl7.org/fhir/us/cqfmeasures/StructureDefinition/cqfm-isTestCase","valueBoolean":true}],"status":"complete","type":"individual","measure":"https://madie.cms.gov/Measure/CMS190VTEProphylaxisICUFHIR","period":{"start":"2026-01-01","end":"2026-12-31"},"group":[{"population":[{"code":{"coding":[{"system":"http://terminology.hl7.org/CodeSystem/measure-population","code":"initial-population","display":"Initial Population"}]},"count":1},{"code":{"coding":[{"system":"http://terminology.hl7.org/CodeSystem/measure-population","code":"denominator","display":"Denominator"}]},"count":1},{"code":{"coding":[{"system":"http://terminology.hl7.org/CodeSystem/measure-population","code":"denominator-exclusion","display":"Denominator Exclusion"}]},"count":0},{"code":{"coding":[{"system":"http://terminology.hl7.org/CodeSystem/measure-population","code":"numerator","display":"Numerator"}]},"count":1},{"code":{"coding":[{"system":"http://terminology.hl7.org/CodeSystem/measure-population","code":"denominator-exception","display":"Denominator Exception"}]},"count":0}]}]},"request":{"method":"PUT","url":"MeasureReport/3b14a704-0a68-4603-97f1-4cba847d9050"}}]}