{"resourceType":"Bundle","id":"tests-f59dc89c-0125-4f26-8442-6d0eb8c3409a-bundle","type":"transaction","entry":[{"fullUrl":"https://madie.cms.gov/Patient/f59dc89c-0125-4f26-8442-6d0eb8c3409a","resource":{"resourceType":"Patient","id":"f59dc89c-0125-4f26-8442-6d0eb8c3409a","meta":{"profile":["http://hl7.org/fhir/us/qicore/StructureDefinition/qicore-patient"]},"text":{"status":"generated","div":"<div xmlns=\"http://www.w3.org/1999/xhtml\"><div class=\"hapiHeaderText\">IntraCranialNotPrin <b>DENEXFAIL </b></div><table class=\"hapiPropertyTable\"><tbody><tr><td>Identifier</td><td>fd8dd0654dd3cfdf3e785f740e343dc5</td></tr><tr><td>Date of birth</td><td><span>03 March 1974</span></td></tr></tbody></table></div>"},"extension":[{"url":"http://hl7.org/fhir/us/core/StructureDefinition/us-core-race","extension":[{"url":"ombCategory","valueCoding":{"system":"urn:oid:2.16.840.1.113883.6.238","code":"1002-5","display":"American Indian or Alaska Native","userSelected":true}},{"url":"text","valueString":"American Indian or Alaska Native"}]},{"url":"http://hl7.org/fhir/us/core/StructureDefinition/us-core-ethnicity","extension":[{"url":"ombCategory","valueCoding":{"system":"urn:oid:2.16.840.1.113883.6.238","code":"2135-2","display":"Hispanic or Latino","userSelected":true}},{"url":"text","valueString":"Hispanic or Latino"}]}],"identifier":[{"type":{"coding":[{"system":"http://terminology.hl7.org/CodeSystem/v2-0203","code":"MR"}]},"system":"https://bonnie-fhir.healthit.gov/","value":"612e6e9202c62a011f2eee31"}],"active":true,"name":[{"use":"usual","family":"DENEXFail","given":["IntraCranialNotPrin"]}],"gender":"female","birthDate":"1975-03-03"},"request":{"method":"PUT","url":"Patient/f59dc89c-0125-4f26-8442-6d0eb8c3409a"}},{"fullUrl":"https://madie.cms.gov/Encounter/99d53701-648b-4508-b398-be706266cbbf","resource":{"resourceType":"Encounter","id":"99d53701-648b-4508-b398-be706266cbbf","meta":{"profile":["http://hl7.org/fhir/us/qicore/StructureDefinition/qicore-encounter"]},"status":"finished","class":{"system":"http://terminology.hl7.org/CodeSystem/v3-ActCode","code":"IMP","display":"inpatient encounter"},"type":[{"coding":[{"system":"http://snomed.info/sct","code":"8715000"}]}],"subject":{"reference":"Patient/f59dc89c-0125-4f26-8442-6d0eb8c3409a"},"period":{"start":"2026-12-04T08:00:00+00:00","end":"2026-12-30T08:15:00+00:00"},"length":{"value":26.0,"unit":"days"},"location":[{"location":{"reference":"Location/0254fc7d-5dee-41f7-9274-30e028dcc1c4"},"period":{"start":"2026-12-06T08:00:00.000+00:00","end":"2026-12-08T08:15:00.000+00:00"}}]},"request":{"method":"PUT","url":"Encounter/99d53701-648b-4508-b398-be706266cbbf"}},{"fullUrl":"https://madie.cms.gov/Coverage/faa96bd5-ed64-45a9-b99b-9dacd2fd2138","resource":{"resourceType":"Coverage","id":"faa96bd5-ed64-45a9-b99b-9dacd2fd2138","status":"active","beneficiary":{"reference":"Patient/f59dc89c-0125-4f26-8442-6d0eb8c3409a"},"period":{"start":"1975-03-03T08:00:00+00:00"},"payor":[{"reference":"Organization/4da248b0-6e59-49b7-b80e-338aa21d299f"}]},"request":{"method":"PUT","url":"Coverage/faa96bd5-ed64-45a9-b99b-9dacd2fd2138"}},{"fullUrl":"https://madie.cms.gov/Procedure/82b2fc63-de7a-45e7-bda4-fbd53451c4f0","resource":{"resourceType":"Procedure","id":"82b2fc63-de7a-45e7-bda4-fbd53451c4f0","meta":{"profile":["http://hl7.org/fhir/us/qicore/StructureDefinition/qicore-procedure"]},"extension":[{"url":"http://hl7.org/fhir/us/qicore/StructureDefinition/qicore-recorded","valueDateTime":"2013-12-06T09:35:00-04:00"}],"status":"completed","code":{"coding":[{"system":"http://www.cms.gov/Medicare/Coding/ICD10","code":"00500ZZ"}]},"subject":{"reference":"Patient/f59dc89c-0125-4f26-8442-6d0eb8c3409a"},"performedPeriod":{"start":"2026-12-06T08:15:00+00:00","end":"2026-12-06T23:15:00+00:00"}},"request":{"method":"PUT","url":"Procedure/82b2fc63-de7a-45e7-bda4-fbd53451c4f0"}},{"fullUrl":"https://madie.cms.gov/Location/0254fc7d-5dee-41f7-9274-30e028dcc1c4","resource":{"resourceType":"Location","id":"0254fc7d-5dee-41f7-9274-30e028dcc1c4","meta":{"profile":["http://hl7.org/fhir/us/qicore/StructureDefinition/qicore-location"]},"identifier":[{"use":"usual","system":"http://exampleoflocation.com","value":"B1-S.F2"}],"name":"Medical Surgical East, first floor","type":[{"coding":[{"system":"https://www.cdc.gov/nhsn/cdaportal/terminology/codesystem/hsloc.html","code":"1025-6","display":"Trauma Critical Care","userSelected":true}]}]},"request":{"method":"PUT","url":"Location/0254fc7d-5dee-41f7-9274-30e028dcc1c4"}},{"fullUrl":"https://madie.cms.gov/Organization/fbb8f00e-c000-4885-a422-b918ef487b27","resource":{"resourceType":"Organization","id":"4da248b0-6e59-49b7-b80e-338aa21d299f","meta":{"profile":["http://hl7.org/fhir/us/qicore/StructureDefinition/qicore-organization"]},"identifier":[{"use":"temp","system":"urn:oid:2.16.840.1.113883.4.4","value":"21-3259825"}],"active":true,"type":[{"coding":[{"system":"http://terminology.hl7.org/CodeSystem/organization-type","code":"pay","display":"Payer"}]}],"name":"Blue Cross Blue Shield of Texas","telecom":[{"system":"phone","value":"(+1) 972-766-6900"}],"address":[{"use":"billing","type":"postal","line":["P.O. Box 660044"],"city":"Dallas","state":"TX","postalCode":"75266-0044","country":"USA"}]},"request":{"method":"PUT","url":"Organization/4da248b0-6e59-49b7-b80e-338aa21d299f"}},{"fullUrl":"https://madie.cms.gov/Practitioner/ea445f8b-7482-42ab-b245-4e92ea89f056","resource":{"resourceType":"Practitioner","id":"ea445f8b-7482-42ab-b245-4e92ea89f056","identifier":[{"system":"http://hl7.org/fhir/sid/us-npi","value":"123456"}],"name":[{"family":"Evil","prefix":["Dr"]}]},"request":{"method":"PUT","url":"Practitioner/ea445f8b-7482-42ab-b245-4e92ea89f056"}},{"fullUrl":"https://madie.cms.gov/MeasureReport/ee7d3ecf-bdc2-459a-9935-d0af570647b4","resource":{"resourceType":"MeasureReport","id":"ee7d3ecf-bdc2-459a-9935-d0af570647b4","meta":{"profile":["http://hl7.org/fhir/us/cqfmeasures/StructureDefinition/test-case-cqfm"]},"contained":[{"resourceType":"Parameters","id":"c611973c-dcd1-4abe-958a-a7c80db1fd31-parameters","parameter":[{"name":"subject","valueString":"f59dc89c-0125-4f26-8442-6d0eb8c3409a"}]}],"extension":[{"url":"http://hl7.org/fhir/us/cqfmeasures/StructureDefinition/cqfm-inputParameters","valueReference":{"reference":"#c611973c-dcd1-4abe-958a-a7c80db1fd31-parameters"}},{"url":"http://hl7.org/fhir/us/cqfmeasures/StructureDefinition/cqfm-testCaseDescription","valueMarkdown":"intracranial neurosurgery starts not principal \n"}],"modifierExtension":[{"url":"http://hl7.org/fhir/us/cqfmeasures/StructureDefinition/cqfm-isTestCase","valueBoolean":true}],"status":"complete","type":"individual","measure":"https://madie.cms.gov/Measure/CMS190VTEProphylaxisICUFHIR","period":{"start":"2026-01-01","end":"2026-12-31"},"group":[{"population":[{"code":{"coding":[{"system":"http://terminology.hl7.org/CodeSystem/measure-population","code":"initial-population","display":"Initial Population"}]},"count":1},{"code":{"coding":[{"system":"http://terminology.hl7.org/CodeSystem/measure-population","code":"denominator","display":"Denominator"}]},"count":1},{"code":{"coding":[{"system":"http://terminology.hl7.org/CodeSystem/measure-population","code":"denominator-exclusion","display":"Denominator Exclusion"}]},"count":0},{"code":{"coding":[{"system":"http://terminology.hl7.org/CodeSystem/measure-population","code":"numerator","display":"Numerator"}]},"count":0},{"code":{"coding":[{"system":"http://terminology.hl7.org/CodeSystem/measure-population","code":"denominator-exception","display":"Denominator Exception"}]},"count":0}]}]},"request":{"method":"PUT","url":"MeasureReport/ee7d3ecf-bdc2-459a-9935-d0af570647b4"}}]}