{"resourceType":"Bundle","id":"tests-0b727e44-0d5a-413b-8114-ab9bb7cce80e-bundle","type":"transaction","entry":[{"fullUrl":"https://madie.cms.gov/Patient/0b727e44-0d5a-413b-8114-ab9bb7cce80e","resource":{"resourceType":"Patient","id":"0b727e44-0d5a-413b-8114-ab9bb7cce80e","meta":{"profile":["http://hl7.org/fhir/us/qicore/StructureDefinition/qicore-patient"]},"text":{"status":"generated","div":"<div xmlns=\"http://www.w3.org/1999/xhtml\"><div class=\"hapiHeaderText\">AVFPDuringICU<b>NUMERPASS </b></div><table class=\"hapiPropertyTable\"><tbody><tr><td>Identifier</td><td>f9dd0d7a6a9f775928ab2c47f31bfdd50dfc6c91e6f0b0e678b3985354333a28</td></tr><tr><td>Date of birth</td><td><span>03 March 1974</span></td></tr></tbody></table></div>"},"extension":[{"url":"http://hl7.org/fhir/us/core/StructureDefinition/us-core-race","extension":[{"url":"ombCategory","valueCoding":{"system":"urn:oid:2.16.840.1.113883.6.238","code":"1002-5","display":"American Indian or Alaska Native","userSelected":true}},{"url":"text","valueString":"American Indian or Alaska Native"}]},{"url":"http://hl7.org/fhir/us/core/StructureDefinition/us-core-ethnicity","extension":[{"url":"ombCategory","valueCoding":{"system":"urn:oid:2.16.840.1.113883.6.238","code":"2135-2","display":"Hispanic or Latino","userSelected":true}},{"url":"text","valueString":"Hispanic or Latino"}]}],"identifier":[{"type":{"coding":[{"system":"http://terminology.hl7.org/CodeSystem/v2-0203","code":"MR"}]},"system":"https://bonnie-fhir.healthit.gov/","value":"612e6f6e02c62a011f2f1d45"}],"active":true,"name":[{"use":"usual","family":"NUMERPass","given":["DAVFPDuringICU"]}],"gender":"female","birthDate":"1975-03-03"},"request":{"method":"PUT","url":"Patient/0b727e44-0d5a-413b-8114-ab9bb7cce80e"}},{"fullUrl":"https://madie.cms.gov/Encounter/34b68417-997a-4a2e-ba16-1a095fa0137f","resource":{"resourceType":"Encounter","id":"34b68417-997a-4a2e-ba16-1a095fa0137f","meta":{"profile":["http://hl7.org/fhir/us/qicore/StructureDefinition/qicore-encounter"]},"status":"finished","class":{"system":"http://terminology.hl7.org/CodeSystem/v3-ActCode","code":"IMP","display":"inpatient encounter"},"type":[{"coding":[{"system":"http://snomed.info/sct","code":"183452005"}]}],"subject":{"reference":"Patient/0b727e44-0d5a-413b-8114-ab9bb7cce80e"},"period":{"start":"2026-03-22T08:00:00+00:00","end":"2026-03-26T08:15:00+00:00"},"length":{"value":4,"unit":"days"},"location":[{"location":{"reference":"Location/47093198-2425-4780-b0be-15f50a4fb8fa"},"period":{"start":"2026-03-22T08:15:00.000+00:00","end":"2026-03-24T08:00:00.000+00:00"}}]},"request":{"method":"PUT","url":"Encounter/34b68417-997a-4a2e-ba16-1a095fa0137f"}},{"fullUrl":"https://madie.cms.gov/Coverage/4c396a82-789b-4fa1-8cda-d2671a5686c5","resource":{"resourceType":"Coverage","id":"4c396a82-789b-4fa1-8cda-d2671a5686c5","status":"active","beneficiary":{"reference":"Patient/0b727e44-0d5a-413b-8114-ab9bb7cce80e"},"period":{"start":"1975-03-03T08:00:00+00:00"},"payor":[{"reference":"Organization/890316dc-a4ad-43b4-ba6f-9fb9e6eca282"}]},"request":{"method":"PUT","url":"Coverage/4c396a82-789b-4fa1-8cda-d2671a5686c5"}},{"fullUrl":"https://madie.cms.gov/Location/47093198-2425-4780-b0be-15f50a4fb8fa","resource":{"resourceType":"Location","id":"47093198-2425-4780-b0be-15f50a4fb8fa","meta":{"profile":["http://hl7.org/fhir/us/qicore/StructureDefinition/qicore-location"]},"identifier":[{"use":"usual","system":"http://exampleoflocation.com","value":"B1-S.F2"}],"name":"Medical Surgical East, first floor","type":[{"coding":[{"system":"https://www.cdc.gov/nhsn/cdaportal/terminology/codesystem/hsloc.html","code":"1025-6","display":"Trauma Critical Care","userSelected":true}]}]},"request":{"method":"PUT","url":"Location/47093198-2425-4780-b0be-15f50a4fb8fa"}},{"fullUrl":"https://madie.cms.gov/Location/87ef55eb-32e2-44d9-a7ca-927de37bd092","resource":{"resourceType":"Location","id":"87ef55eb-32e2-44d9-a7ca-927de37bd092","meta":{"profile":["http://hl7.org/fhir/us/qicore/StructureDefinition/qicore-location"]},"identifier":[{"use":"usual","system":"http://exampleoflocation.com","value":"B1-S.F2"}],"name":"Medical Surgical East, first floor","type":[{"coding":[{"system":"https://www.cdc.gov/nhsn/cdaportal/terminology/codesystem/hsloc.html","code":"1025-6","display":"Trauma Critical Care","userSelected":true}]}]},"request":{"method":"PUT","url":"Location/87ef55eb-32e2-44d9-a7ca-927de37bd092"}},{"fullUrl":"https://madie.cms.gov/Procedure/5b79da30-f3ba-45a9-99bf-643fec4c8826","resource":{"resourceType":"Procedure","id":"5b79da30-f3ba-45a9-99bf-643fec4c8826","meta":{"profile":["http://hl7.org/fhir/us/qicore/StructureDefinition/qicore-procedure"]},"extension":[{"url":"http://hl7.org/fhir/us/qicore/StructureDefinition/qicore-recorded","valueDateTime":"2026-03-26T09:35:00-04:00"}],"status":"completed","code":{"coding":[{"system":"http://snomed.info/sct","code":"424831005","display":"Application of foot pump (procedure)"}]},"subject":{"reference":"Patient/0b727e44-0d5a-413b-8114-ab9bb7cce80e"},"performedPeriod":{"start":"2026-03-22T08:20:00.000+00:00","end":"2026-03-22T08:25:00.000+00:00"}},"request":{"method":"PUT","url":"Procedure/5b79da30-f3ba-45a9-99bf-643fec4c8826"}},{"fullUrl":"https://madie.cms.gov/Organization/a8db5fdb-1d62-4ac4-a490-e53c59bcaaea","resource":{"resourceType":"Organization","id":"890316dc-a4ad-43b4-ba6f-9fb9e6eca282","meta":{"profile":["http://hl7.org/fhir/us/qicore/StructureDefinition/qicore-organization"]},"identifier":[{"use":"temp","system":"urn:oid:2.16.840.1.113883.4.4","value":"21-3259825"}],"active":true,"type":[{"coding":[{"system":"http://terminology.hl7.org/CodeSystem/organization-type","code":"pay","display":"Payer"}]}],"name":"Blue Cross Blue Shield of Texas","telecom":[{"system":"phone","value":"(+1) 972-766-6900"}],"address":[{"use":"billing","type":"postal","line":["P.O. Box 660044"],"city":"Dallas","state":"TX","postalCode":"75266-0044","country":"USA"}]},"request":{"method":"PUT","url":"Organization/890316dc-a4ad-43b4-ba6f-9fb9e6eca282"}},{"fullUrl":"https://madie.cms.gov/Practitioner/48af9bf8-e5b2-4965-b10c-a5e3ea2d796e","resource":{"resourceType":"Practitioner","id":"48af9bf8-e5b2-4965-b10c-a5e3ea2d796e","identifier":[{"system":"http://hl7.org/fhir/sid/us-npi","value":"123456"}],"name":[{"family":"Evil","prefix":["Dr"]}]},"request":{"method":"PUT","url":"Practitioner/48af9bf8-e5b2-4965-b10c-a5e3ea2d796e"}},{"fullUrl":"https://madie.cms.gov/MeasureReport/d089d51b-6454-48d8-b1ff-a924e9945dcc","resource":{"resourceType":"MeasureReport","id":"d089d51b-6454-48d8-b1ff-a924e9945dcc","meta":{"profile":["http://hl7.org/fhir/us/cqfmeasures/StructureDefinition/test-case-cqfm"]},"contained":[{"resourceType":"Parameters","id":"ccae0535-3cb2-491b-9a64-1a73f5074cef-parameters","parameter":[{"name":"subject","valueString":"0b727e44-0d5a-413b-8114-ab9bb7cce80e"}]}],"extension":[{"url":"http://hl7.org/fhir/us/cqfmeasures/StructureDefinition/cqfm-inputParameters","valueReference":{"reference":"#ccae0535-3cb2-491b-9a64-1a73f5074cef-parameters"}},{"url":"http://hl7.org/fhir/us/cqfmeasures/StructureDefinition/cqfm-testCaseDescription","valueMarkdown":"Patient with VTE prophylaxis done by VFP applied "}],"modifierExtension":[{"url":"http://hl7.org/fhir/us/cqfmeasures/StructureDefinition/cqfm-isTestCase","valueBoolean":true}],"status":"complete","type":"individual","measure":"https://madie.cms.gov/Measure/CMS190VTEProphylaxisICUFHIR","period":{"start":"2026-01-01","end":"2026-12-31"},"group":[{"population":[{"code":{"coding":[{"system":"http://terminology.hl7.org/CodeSystem/measure-population","code":"initial-population","display":"Initial Population"}]},"count":1},{"code":{"coding":[{"system":"http://terminology.hl7.org/CodeSystem/measure-population","code":"denominator","display":"Denominator"}]},"count":1},{"code":{"coding":[{"system":"http://terminology.hl7.org/CodeSystem/measure-population","code":"denominator-exclusion","display":"Denominator Exclusion"}]},"count":0},{"code":{"coding":[{"system":"http://terminology.hl7.org/CodeSystem/measure-population","code":"numerator","display":"Numerator"}]},"count":1},{"code":{"coding":[{"system":"http://terminology.hl7.org/CodeSystem/measure-population","code":"denominator-exception","display":"Denominator Exception"}]},"count":0}]}]},"request":{"method":"PUT","url":"MeasureReport/d089d51b-6454-48d8-b1ff-a924e9945dcc"}}]}