{"resourceType":"Bundle","id":"tests-a76285c9-54cb-4389-8596-874dbdb998db-bundle","type":"transaction","entry":[{"fullUrl":"https://madie.cms.gov/Patient/a76285c9-54cb-4389-8596-874dbdb998db","resource":{"resourceType":"Patient","id":"a76285c9-54cb-4389-8596-874dbdb998db","meta":{"profile":["http://hl7.org/fhir/us/qicore/StructureDefinition/qicore-patient"]},"text":{"status":"generated","div":"<div xmlns=\"http://www.w3.org/1999/xhtml\"><div class=\"hapiHeaderText\">MedReasonMALDUDAIPC2DayAfterAnes <b>NUMERFAIL </b></div><table class=\"hapiPropertyTable\"><tbody><tr><td>Identifier</td><td>39c81b9bc72445874f3c2841a7094a3f</td></tr><tr><td>Date of birth</td><td><span>03 March 1974</span></td></tr></tbody></table></div>"},"extension":[{"url":"http://hl7.org/fhir/us/core/StructureDefinition/us-core-race","extension":[{"url":"ombCategory","valueCoding":{"system":"urn:oid:2.16.840.1.113883.6.238","code":"1002-5","display":"American Indian or Alaska Native","userSelected":true}},{"url":"text","valueString":"American Indian or Alaska Native"}]},{"url":"http://hl7.org/fhir/us/core/StructureDefinition/us-core-ethnicity","extension":[{"url":"ombCategory","valueCoding":{"system":"urn:oid:2.16.840.1.113883.6.238","code":"2135-2","display":"Hispanic or Latino","userSelected":true}},{"url":"text","valueString":"Hispanic or Latino"}]}],"identifier":[{"type":{"coding":[{"system":"http://terminology.hl7.org/CodeSystem/v2-0203","code":"MR"}]},"system":"https://bonnie-fhir.healthit.gov/","value":"612e6ee202c62a011f2eff14"}],"active":true,"name":[{"use":"usual","family":"NUMERFail","given":["MedReasonMALDUDAIPC2DayAfterAnes"]}],"gender":"female","birthDate":"1975-03-03"},"request":{"method":"PUT","url":"Patient/a76285c9-54cb-4389-8596-874dbdb998db"}},{"fullUrl":"https://madie.cms.gov/Encounter/5914eaac-5f80-41ed-9cba-2410461413a1","resource":{"resourceType":"Encounter","id":"5914eaac-5f80-41ed-9cba-2410461413a1","meta":{"profile":["http://hl7.org/fhir/us/qicore/StructureDefinition/qicore-encounter"]},"status":"finished","class":{"system":"http://terminology.hl7.org/CodeSystem/v3-ActCode","code":"IMP","display":"inpatient encounter"},"type":[{"coding":[{"system":"http://snomed.info/sct","code":"8715000"}]}],"subject":{"reference":"Patient/a76285c9-54cb-4389-8596-874dbdb998db"},"period":{"start":"2026-12-04T08:00:00+00:00","end":"2026-12-30T08:15:00+00:00"},"length":{"value":26.0,"unit":"days"},"location":[{"location":{"reference":"Location/bcba65b1-e855-4076-bca1-9b05321d3461"},"period":{"start":"2026-12-06T08:00:00.000+00:00","end":"2026-12-12T08:15:00.000+00:00"}}]},"request":{"method":"PUT","url":"Encounter/5914eaac-5f80-41ed-9cba-2410461413a1"}},{"fullUrl":"https://madie.cms.gov/Coverage/8420af56-53d4-4e9e-8fed-800bdd5a1828","resource":{"resourceType":"Coverage","id":"8420af56-53d4-4e9e-8fed-800bdd5a1828","status":"active","beneficiary":{"reference":"Patient/a76285c9-54cb-4389-8596-874dbdb998db"},"period":{"start":"1975-03-03T08:00:00+00:00"},"payor":[{"reference":"Organization/3778262e-e084-4bb5-9a47-1a144735f786"}]},"request":{"method":"PUT","url":"Coverage/8420af56-53d4-4e9e-8fed-800bdd5a1828"}},{"fullUrl":"https://madie.cms.gov/Procedure/c8765273-3eb7-45e3-9ef2-cdd165722f51","resource":{"resourceType":"Procedure","id":"c8765273-3eb7-45e3-9ef2-cdd165722f51","meta":{"profile":["http://hl7.org/fhir/us/qicore/StructureDefinition/qicore-procedurenotdone"]},"extension":[{"url":"http://hl7.org/fhir/us/qicore/StructureDefinition/qicore-recorded","valueDateTime":"2026-11-01T07:00:00+00:00"}],"status":"not-done","statusReason":{"coding":[{"system":"http://snomed.info/sct","code":"183932001","display":"Procedure contraindicated (situation)","userSelected":true}]},"code":{"coding":[{"system":"http://snomed.info/sct","code":"443448006","display":"Application of intermittent pneumatic compression device (procedure)","userSelected":true}]},"subject":{"reference":"Patient/a76285c9-54cb-4389-8596-874dbdb998db"},"_performedDateTime":{"extension":[{"url":"http://hl7.org/fhir/StructureDefinition/data-absent-reason","valueCode":"not-performed"}]}},"request":{"method":"PUT","url":"Procedure/c8765273-3eb7-45e3-9ef2-cdd165722f51"}},{"fullUrl":"https://madie.cms.gov/MedicationAdministration/ad809b64-1f81-46c9-a209-cd385c2085b2","resource":{"resourceType":"MedicationAdministration","id":"ad809b64-1f81-46c9-a209-cd385c2085b2","meta":{"profile":["http://hl7.org/fhir/us/qicore/StructureDefinition/qicore-mednotadministered"]},"extension":[{"url":"http://hl7.org/fhir/us/qicore/StructureDefinition/qicore-recorded","valueDateTime":"2026-12-08T07:00:00+00:00"}],"status":"not-done","statusReason":[{"coding":[{"system":"http://snomed.info/sct","code":"183932001"}]}],"medicationCodeableConcept":{"coding":[{"system":"http://www.nlm.nih.gov/research/umls/rxnorm","code":"1658634"}]},"subject":{"reference":"Patient/a76285c9-54cb-4389-8596-874dbdb998db"},"effectivePeriod":{"start":"2026-12-08T11:30:00+00:00"}},"request":{"method":"PUT","url":"MedicationAdministration/ad809b64-1f81-46c9-a209-cd385c2085b2"}},{"fullUrl":"https://madie.cms.gov/Procedure/78ed4d29-8094-4ba4-b9f8-fc3545c42372","resource":{"resourceType":"Procedure","id":"78ed4d29-8094-4ba4-b9f8-fc3545c42372","status":"completed","code":{"coding":[{"system":"http://www.icd10data.com/icd10pcs","code":"3E030FZ"},{"system":"http://snomed.info/sct","code":"18946005"}]},"subject":{"reference":"Patient/a76285c9-54cb-4389-8596-874dbdb998db"},"performedPeriod":{"start":"2026-12-04T11:00:00+00:00","end":"2026-12-06T11:15:00+00:00"}},"request":{"method":"PUT","url":"Procedure/78ed4d29-8094-4ba4-b9f8-fc3545c42372"}},{"fullUrl":"https://madie.cms.gov/Location/bcba65b1-e855-4076-bca1-9b05321d3461","resource":{"resourceType":"Location","id":"bcba65b1-e855-4076-bca1-9b05321d3461","meta":{"profile":["http://hl7.org/fhir/us/qicore/StructureDefinition/qicore-location"]},"identifier":[{"use":"usual","system":"http://exampleoflocation.com","value":"B1-S.F2"}],"name":"Medical Surgical East, first floor","type":[{"coding":[{"system":"https://www.cdc.gov/nhsn/cdaportal/terminology/codesystem/hsloc.html","code":"1025-6","display":"Trauma Critical Care","userSelected":true}]}]},"request":{"method":"PUT","url":"Location/bcba65b1-e855-4076-bca1-9b05321d3461"}},{"fullUrl":"https://madie.cms.gov/Organization/7638fcc6-a63f-4243-89e8-a92e4b293a31","resource":{"resourceType":"Organization","id":"3778262e-e084-4bb5-9a47-1a144735f786","meta":{"profile":["http://hl7.org/fhir/us/qicore/StructureDefinition/qicore-organization"]},"identifier":[{"use":"temp","system":"urn:oid:2.16.840.1.113883.4.4","value":"21-3259825"}],"active":true,"type":[{"coding":[{"system":"http://terminology.hl7.org/CodeSystem/organization-type","code":"pay","display":"Payer"}]}],"name":"Blue Cross Blue Shield of Texas","telecom":[{"system":"phone","value":"(+1) 972-766-6900"}],"address":[{"use":"billing","type":"postal","line":["P.O. Box 660044"],"city":"Dallas","state":"TX","postalCode":"75266-0044","country":"USA"}]},"request":{"method":"PUT","url":"Organization/3778262e-e084-4bb5-9a47-1a144735f786"}},{"fullUrl":"https://madie.cms.gov/Practitioner/a6b7137c-1343-4b35-8c85-b0de25c44ef6","resource":{"resourceType":"Practitioner","id":"a6b7137c-1343-4b35-8c85-b0de25c44ef6","identifier":[{"system":"http://hl7.org/fhir/sid/us-npi","value":"123456"}],"name":[{"family":"Evil","prefix":["Dr"]}]},"request":{"method":"PUT","url":"Practitioner/a6b7137c-1343-4b35-8c85-b0de25c44ef6"}},{"fullUrl":"https://madie.cms.gov/MeasureReport/7b4d7ba9-8aa4-45c8-b955-0a34e4651dca","resource":{"resourceType":"MeasureReport","id":"7b4d7ba9-8aa4-45c8-b955-0a34e4651dca","meta":{"profile":["http://hl7.org/fhir/us/cqfmeasures/StructureDefinition/test-case-cqfm"]},"contained":[{"resourceType":"Parameters","id":"210a47f7-896f-4b1e-9d18-573f45e63d41-parameters","parameter":[{"name":"subject","valueString":"a76285c9-54cb-4389-8596-874dbdb998db"}]}],"extension":[{"url":"http://hl7.org/fhir/us/cqfmeasures/StructureDefinition/cqfm-inputParameters","valueReference":{"reference":"#210a47f7-896f-4b1e-9d18-573f45e63d41-parameters"}},{"url":"http://hl7.org/fhir/us/cqfmeasures/StructureDefinition/cqfm-testCaseDescription","valueMarkdown":"IPC not applied and unfractionated heparin not administered due to medical reason after neuraxial anesthesia. But Medication is 16 days  after Procedure\n"}],"modifierExtension":[{"url":"http://hl7.org/fhir/us/cqfmeasures/StructureDefinition/cqfm-isTestCase","valueBoolean":true}],"status":"complete","type":"individual","measure":"https://madie.cms.gov/Measure/CMS190VTEProphylaxisICUFHIR","period":{"start":"2026-01-01","end":"2026-12-31"},"group":[{"population":[{"code":{"coding":[{"system":"http://terminology.hl7.org/CodeSystem/measure-population","code":"initial-population","display":"Initial Population"}]},"count":1},{"code":{"coding":[{"system":"http://terminology.hl7.org/CodeSystem/measure-population","code":"denominator","display":"Denominator"}]},"count":1},{"code":{"coding":[{"system":"http://terminology.hl7.org/CodeSystem/measure-population","code":"denominator-exclusion","display":"Denominator Exclusion"}]},"count":0},{"code":{"coding":[{"system":"http://terminology.hl7.org/CodeSystem/measure-population","code":"numerator","display":"Numerator"}]},"count":0},{"code":{"coding":[{"system":"http://terminology.hl7.org/CodeSystem/measure-population","code":"denominator-exception","display":"Denominator Exception"}]},"count":0}]}]},"request":{"method":"PUT","url":"MeasureReport/7b4d7ba9-8aa4-45c8-b955-0a34e4651dca"}}]}