{"resourceType":"Bundle","id":"tests-d280541b-5f7a-4b19-b82b-c2d933006f52-bundle","type":"transaction","entry":[{"fullUrl":"https://madie.cms.gov/Patient/d280541b-5f7a-4b19-b82b-c2d933006f52","resource":{"resourceType":"Patient","id":"d280541b-5f7a-4b19-b82b-c2d933006f52","meta":{"profile":["http://hl7.org/fhir/us/qicore/StructureDefinition/qicore-patient"]},"text":{"status":"generated","div":"<div xmlns=\"http://www.w3.org/1999/xhtml\"><div class=\"hapiHeaderText\">PtRefDOGCS1DayAFAnes <b>NUMERPASS </b></div><table class=\"hapiPropertyTable\"><tbody><tr><td>Identifier</td><td>24fc1ce85ce14557dd4d9eba17df9f17</td></tr><tr><td>Date of birth</td><td><span>02 January 1974</span></td></tr></tbody></table></div>"},"extension":[{"url":"http://hl7.org/fhir/us/core/StructureDefinition/us-core-race","extension":[{"url":"ombCategory","valueCoding":{"system":"urn:oid:2.16.840.1.113883.6.238","code":"1002-5","display":"American Indian or Alaska Native","userSelected":true}},{"url":"text","valueString":"American Indian or Alaska Native"}]},{"url":"http://hl7.org/fhir/us/core/StructureDefinition/us-core-ethnicity","extension":[{"url":"ombCategory","valueCoding":{"system":"urn:oid:2.16.840.1.113883.6.238","code":"2135-2","display":"Hispanic or Latino","userSelected":true}},{"url":"text","valueString":"Hispanic or Latino"}]}],"identifier":[{"type":{"coding":[{"system":"http://terminology.hl7.org/CodeSystem/v2-0203","code":"MR"}]},"system":"https://bonnie-fhir.healthit.gov/","value":"612e6a7002c62a011f2ea15f"}],"active":true,"name":[{"use":"usual","family":"NUMERPass","given":["PtRefDOGCS1DayAFAnes"]}],"gender":"male","birthDate":"1975-01-02"},"request":{"method":"PUT","url":"Patient/d280541b-5f7a-4b19-b82b-c2d933006f52"}},{"fullUrl":"https://madie.cms.gov/Encounter/94271d3d-3fae-4f14-af8d-1113b311ff72","resource":{"resourceType":"Encounter","id":"94271d3d-3fae-4f14-af8d-1113b311ff72","meta":{"profile":["http://hl7.org/fhir/us/qicore/StructureDefinition/qicore-encounter"]},"status":"finished","class":{"system":"http://terminology.hl7.org/CodeSystem/v3-ActCode","code":"IMP","display":"inpatient encounter"},"type":[{"coding":[{"system":"http://snomed.info/sct","code":"8715000"}]}],"subject":{"reference":"Patient/d280541b-5f7a-4b19-b82b-c2d933006f52"},"period":{"start":"2026-11-01T08:00:00+00:00","end":"2026-11-26T08:15:00+00:00"},"length":{"value":25,"unit":"days"},"location":[{"location":{"reference":"Location/e32ea11b-225f-4aff-ba5f-213373500295"},"period":{"start":"2026-11-01T09:00:00.000+00:00","end":"2026-11-02T08:15:00.000+00:00"}}]},"request":{"method":"PUT","url":"Encounter/94271d3d-3fae-4f14-af8d-1113b311ff72"}},{"fullUrl":"https://madie.cms.gov/Coverage/c4167f16-00a5-4496-91f4-5629ea6ed1cc","resource":{"resourceType":"Coverage","id":"c4167f16-00a5-4496-91f4-5629ea6ed1cc","status":"active","beneficiary":{"reference":"Patient/d280541b-5f7a-4b19-b82b-c2d933006f52"},"period":{"start":"1975-01-02T08:00:00+00:00"},"payor":[{"reference":"Organization/f4907415-83c5-4eae-ab0b-cb63a840880d"}]},"request":{"method":"PUT","url":"Coverage/c4167f16-00a5-4496-91f4-5629ea6ed1cc"}},{"fullUrl":"https://madie.cms.gov/Procedure/471c877b-ea6b-4792-a8bb-ef1cae46fa9e","resource":{"resourceType":"Procedure","id":"471c877b-ea6b-4792-a8bb-ef1cae46fa9e","meta":{"profile":["http://hl7.org/fhir/us/qicore/StructureDefinition/qicore-procedure"]},"extension":[{"url":"http://hl7.org/fhir/us/qicore/StructureDefinition/qicore-recorded","valueDateTime":"2013-11-03T09:35:00-04:00"}],"status":"completed","code":{"coding":[{"system":"http://snomed.info/sct","code":"18946005"}]},"subject":{"reference":"Patient/d280541b-5f7a-4b19-b82b-c2d933006f52"},"performedPeriod":{"start":"2026-11-02T09:00:00+00:00","end":"2026-11-02T09:15:00+00:00"}},"request":{"method":"PUT","url":"Procedure/471c877b-ea6b-4792-a8bb-ef1cae46fa9e"}},{"fullUrl":"https://madie.cms.gov/ServiceRequest/0cecf116-e2dc-47ef-9566-6add64972816","resource":{"resourceType":"ServiceRequest","id":"0cecf116-e2dc-47ef-9566-6add64972816","meta":{"profile":["http://hl7.org/fhir/us/qicore/StructureDefinition/qicore-servicenotrequested"]},"extension":[{"url":"http://hl7.org/fhir/us/qicore/StructureDefinition/qicore-doNotPerformReason","valueCodeableConcept":{"coding":[{"system":"http://snomed.info/sct","code":"443390004","display":"Refusal of treatment by patient (situation)"}]}}],"status":"completed","intent":"order","doNotPerform":true,"code":{"coding":[{"system":"http://snomed.info/sct","code":"348681001","display":"Graduated compression elastic hosiery (physical object)","userSelected":true}]},"subject":{"reference":"Patient/d280541b-5f7a-4b19-b82b-c2d933006f52"},"authoredOn":"2026-11-03T11:00:00.000+00:00"},"request":{"method":"PUT","url":"ServiceRequest/0cecf116-e2dc-47ef-9566-6add64972816"}},{"fullUrl":"https://madie.cms.gov/Location/e32ea11b-225f-4aff-ba5f-213373500295","resource":{"resourceType":"Location","id":"e32ea11b-225f-4aff-ba5f-213373500295","meta":{"profile":["http://hl7.org/fhir/us/qicore/StructureDefinition/qicore-location"]},"identifier":[{"use":"usual","system":"http://exampleoflocation.com","value":"B1-S.F2"}],"name":"Medical Surgical East, first floor","type":[{"coding":[{"system":"https://www.cdc.gov/nhsn/cdaportal/terminology/codesystem/hsloc.html","code":"1025-6","display":"Trauma Critical Care","userSelected":true}]}]},"request":{"method":"PUT","url":"Location/e32ea11b-225f-4aff-ba5f-213373500295"}},{"fullUrl":"https://madie.cms.gov/Organization/3e03ff0e-4b0e-493f-b9cf-261e17ea6d29","resource":{"resourceType":"Organization","id":"f4907415-83c5-4eae-ab0b-cb63a840880d","meta":{"profile":["http://hl7.org/fhir/us/qicore/StructureDefinition/qicore-organization"]},"identifier":[{"use":"temp","system":"urn:oid:2.16.840.1.113883.4.4","value":"21-3259825"}],"active":true,"type":[{"coding":[{"system":"http://terminology.hl7.org/CodeSystem/organization-type","code":"pay","display":"Payer"}]}],"name":"Blue Cross Blue Shield of Texas","telecom":[{"system":"phone","value":"(+1) 972-766-6900"}],"address":[{"use":"billing","type":"postal","line":["P.O. Box 660044"],"city":"Dallas","state":"TX","postalCode":"75266-0044","country":"USA"}]},"request":{"method":"PUT","url":"Organization/f4907415-83c5-4eae-ab0b-cb63a840880d"}},{"fullUrl":"https://madie.cms.gov/Practitioner/037baab3-904f-4506-9606-f8d6d82b6fa1","resource":{"resourceType":"Practitioner","id":"037baab3-904f-4506-9606-f8d6d82b6fa1","identifier":[{"system":"http://hl7.org/fhir/sid/us-npi","value":"123456"}],"name":[{"family":"Evil","prefix":["Dr"]}]},"request":{"method":"PUT","url":"Practitioner/037baab3-904f-4506-9606-f8d6d82b6fa1"}},{"fullUrl":"https://madie.cms.gov/MeasureReport/72cae379-982c-4b6e-8cfb-5392d908f7e7","resource":{"resourceType":"MeasureReport","id":"72cae379-982c-4b6e-8cfb-5392d908f7e7","meta":{"profile":["http://hl7.org/fhir/us/cqfmeasures/StructureDefinition/test-case-cqfm"]},"contained":[{"resourceType":"Parameters","id":"78477e4b-d7da-4092-a399-7471eb44ba94-parameters","parameter":[{"name":"subject","valueString":"d280541b-5f7a-4b19-b82b-c2d933006f52"}]}],"extension":[{"url":"http://hl7.org/fhir/us/cqfmeasures/StructureDefinition/cqfm-inputParameters","valueReference":{"reference":"#78477e4b-d7da-4092-a399-7471eb44ba94-parameters"}},{"url":"http://hl7.org/fhir/us/cqfmeasures/StructureDefinition/cqfm-testCaseDescription","valueMarkdown":"meets IPP, meets Denominator, GCS ordered not done i day after Anesthesia\n"}],"modifierExtension":[{"url":"http://hl7.org/fhir/us/cqfmeasures/StructureDefinition/cqfm-isTestCase","valueBoolean":true}],"status":"complete","type":"individual","measure":"https://madie.cms.gov/Measure/CMS190VTEProphylaxisICUFHIR","period":{"start":"2026-01-01","end":"2026-12-31"},"group":[{"population":[{"code":{"coding":[{"system":"http://terminology.hl7.org/CodeSystem/measure-population","code":"initial-population","display":"Initial Population"}]},"count":1},{"code":{"coding":[{"system":"http://terminology.hl7.org/CodeSystem/measure-population","code":"denominator","display":"Denominator"}]},"count":1},{"code":{"coding":[{"system":"http://terminology.hl7.org/CodeSystem/measure-population","code":"denominator-exclusion","display":"Denominator Exclusion"}]},"count":0},{"code":{"coding":[{"system":"http://terminology.hl7.org/CodeSystem/measure-population","code":"numerator","display":"Numerator"}]},"count":1},{"code":{"coding":[{"system":"http://terminology.hl7.org/CodeSystem/measure-population","code":"denominator-exception","display":"Denominator Exception"}]},"count":0}]}]},"request":{"method":"PUT","url":"MeasureReport/72cae379-982c-4b6e-8cfb-5392d908f7e7"}}]}