{"resourceType":"Bundle","id":"tests-f00f3778-6ad1-466d-a3bd-bcbc63d62b55-bundle","type":"transaction","entry":[{"fullUrl":"https://madie.cms.gov/Patient/f00f3778-6ad1-466d-a3bd-bcbc63d62b55","resource":{"resourceType":"Patient","id":"f00f3778-6ad1-466d-a3bd-bcbc63d62b55","meta":{"profile":["http://hl7.org/fhir/us/qicore/StructureDefinition/qicore-patient"]},"text":{"status":"generated","div":"<div xmlns=\"http://www.w3.org/1999/xhtml\"><div class=\"hapiHeaderText\">MedReasonMALMWHDOGCSIPEnc <b>NUMERPASS </b></div><table class=\"hapiPropertyTable\"><tbody><tr><td>Identifier</td><td>57c53fc7391e680566116a818dec99f8</td></tr><tr><td>Date of birth</td><td><span>02 January 1974</span></td></tr></tbody></table></div>"},"extension":[{"url":"http://hl7.org/fhir/us/core/StructureDefinition/us-core-race","extension":[{"url":"ombCategory","valueCoding":{"system":"urn:oid:2.16.840.1.113883.6.238","code":"1002-5","display":"American Indian or Alaska Native","userSelected":true}},{"url":"text","valueString":"American Indian or Alaska Native"}]},{"url":"http://hl7.org/fhir/us/core/StructureDefinition/us-core-ethnicity","extension":[{"url":"ombCategory","valueCoding":{"system":"urn:oid:2.16.840.1.113883.6.238","code":"2135-2","display":"Hispanic or Latino","userSelected":true}},{"url":"text","valueString":"Hispanic or Latino"}]}],"identifier":[{"type":{"coding":[{"system":"http://terminology.hl7.org/CodeSystem/v2-0203","code":"MR"}]},"system":"https://bonnie-fhir.healthit.gov/","value":"612e6a8802c62a011f2ea423"}],"active":true,"name":[{"use":"usual","family":"NUMERPass","given":["MedReasonMALMWHDOGCSIPEnc"]}],"gender":"male","birthDate":"1975-01-02"},"request":{"method":"PUT","url":"Patient/f00f3778-6ad1-466d-a3bd-bcbc63d62b55"}},{"fullUrl":"https://madie.cms.gov/Encounter/446ca2e2-9d36-4028-833d-e2557d67dd4d","resource":{"resourceType":"Encounter","id":"446ca2e2-9d36-4028-833d-e2557d67dd4d","meta":{"profile":["http://hl7.org/fhir/us/qicore/StructureDefinition/qicore-encounter"]},"status":"finished","class":{"system":"http://terminology.hl7.org/CodeSystem/v3-ActCode","code":"IMP","display":"inpatient encounter"},"type":[{"coding":[{"system":"http://snomed.info/sct","code":"8715000"}]}],"subject":{"reference":"Patient/f00f3778-6ad1-466d-a3bd-bcbc63d62b55"},"period":{"start":"2026-11-01T08:00:00+00:00","end":"2026-11-26T08:15:00+00:00"},"length":{"value":25.0,"unit":"days"},"location":[{"location":{"reference":"Location/893d6b5e-9c26-46e1-af12-9e2c00219162"},"period":{"start":"2026-11-01T09:00:00.000+00:00","end":"2026-11-10T08:15:00.000+00:00"}}]},"request":{"method":"PUT","url":"Encounter/446ca2e2-9d36-4028-833d-e2557d67dd4d"}},{"fullUrl":"https://madie.cms.gov/Coverage/cfb267c6-712f-4987-b9b2-5573d71d6a78","resource":{"resourceType":"Coverage","id":"cfb267c6-712f-4987-b9b2-5573d71d6a78","status":"active","beneficiary":{"reference":"Patient/f00f3778-6ad1-466d-a3bd-bcbc63d62b55"},"period":{"start":"1975-01-02T08:00:00+00:00"},"payor":[{"reference":"Organization/5ad6ea38-07e9-4482-9e1b-c09eee595be9"}]},"request":{"method":"PUT","url":"Coverage/cfb267c6-712f-4987-b9b2-5573d71d6a78"}},{"fullUrl":"https://madie.cms.gov/MedicationAdministration/b2c55ae6-4e5c-4350-8416-c1ce2771fbc2","resource":{"resourceType":"MedicationAdministration","id":"b2c55ae6-4e5c-4350-8416-c1ce2771fbc2","meta":{"profile":["http://hl7.org/fhir/us/qicore/StructureDefinition/qicore-mednotadministered"]},"extension":[{"url":"http://hl7.org/fhir/us/qicore/StructureDefinition/qicore-recorded","valueDateTime":"2026-11-02T09:00:00+00:00"}],"status":"not-done","statusReason":[{"coding":[{"system":"http://snomed.info/sct","code":"183932001","display":"Procedure contraindicated (situation)"}]}],"medicationCodeableConcept":{"coding":[{"system":"http://www.nlm.nih.gov/research/umls/rxnorm","code":"854228"}]},"subject":{"reference":"Patient/f00f3778-6ad1-466d-a3bd-bcbc63d62b55"},"effectivePeriod":{"start":"2026-11-02T09:00:00+00:00"}},"request":{"method":"PUT","url":"MedicationAdministration/b2c55ae6-4e5c-4350-8416-c1ce2771fbc2"}},{"fullUrl":"https://madie.cms.gov/ServiceRequest/037ee863-8ef9-48e2-ad6e-c809395b8ec1","resource":{"resourceType":"ServiceRequest","id":"037ee863-8ef9-48e2-ad6e-c809395b8ec1","meta":{"profile":["http://hl7.org/fhir/us/qicore/StructureDefinition/qicore-servicenotrequested"]},"extension":[{"url":"http://hl7.org/fhir/us/qicore/StructureDefinition/qicore-doNotPerformReason","valueCodeableConcept":{"coding":[{"system":"http://snomed.info/sct","code":"183932001","display":"Procedure contraindicated (situation)"}]}}],"status":"completed","intent":"order","doNotPerform":true,"code":{"coding":[{"system":"http://snomed.info/sct","version":"2025-03","code":"348681001","display":"Graduated compression elastic hosiery (physical object)","userSelected":true}]},"subject":{"reference":"Patient/f00f3778-6ad1-466d-a3bd-bcbc63d62b55"},"authoredOn":"2026-11-02T09:00:00+00:00","reasonCode":[{"coding":[{"system":"http://snomed.info/sct","code":"183932001","display":"Procedure contraindicated (situation)","userSelected":true}]}]},"request":{"method":"PUT","url":"ServiceRequest/037ee863-8ef9-48e2-ad6e-c809395b8ec1"}},{"fullUrl":"https://madie.cms.gov/Location/893d6b5e-9c26-46e1-af12-9e2c00219162","resource":{"resourceType":"Location","id":"893d6b5e-9c26-46e1-af12-9e2c00219162","meta":{"profile":["http://hl7.org/fhir/us/qicore/StructureDefinition/qicore-location"]},"identifier":[{"use":"usual","system":"http://exampleoflocation.com","value":"B1-S.F2"}],"name":"Medical Surgical East, first floor","type":[{"coding":[{"system":"https://www.cdc.gov/nhsn/cdaportal/terminology/codesystem/hsloc.html","code":"1025-6","display":"Trauma Critical Care","userSelected":true}]}]},"request":{"method":"PUT","url":"Location/893d6b5e-9c26-46e1-af12-9e2c00219162"}},{"fullUrl":"https://madie.cms.gov/Organization/cc008b31-59a5-4f51-8399-0c96bb54a511","resource":{"resourceType":"Organization","id":"5ad6ea38-07e9-4482-9e1b-c09eee595be9","meta":{"profile":["http://hl7.org/fhir/us/qicore/StructureDefinition/qicore-organization"]},"identifier":[{"use":"temp","system":"urn:oid:2.16.840.1.113883.4.4","value":"21-3259825"}],"active":true,"type":[{"coding":[{"system":"http://terminology.hl7.org/CodeSystem/organization-type","code":"pay","display":"Payer"}]}],"name":"Blue Cross Blue Shield of Texas","telecom":[{"system":"phone","value":"(+1) 972-766-6900"}],"address":[{"use":"billing","type":"postal","line":["P.O. Box 660044"],"city":"Dallas","state":"TX","postalCode":"75266-0044","country":"USA"}]},"request":{"method":"PUT","url":"Organization/5ad6ea38-07e9-4482-9e1b-c09eee595be9"}},{"fullUrl":"https://madie.cms.gov/Practitioner/d08fc3ca-3ecf-4dda-ae71-81da0d485509","resource":{"resourceType":"Practitioner","id":"d08fc3ca-3ecf-4dda-ae71-81da0d485509","identifier":[{"system":"http://hl7.org/fhir/sid/us-npi","value":"123456"}],"name":[{"family":"Evil","prefix":["Dr"]}]},"request":{"method":"PUT","url":"Practitioner/d08fc3ca-3ecf-4dda-ae71-81da0d485509"}},{"fullUrl":"https://madie.cms.gov/MeasureReport/e7f479f5-964a-42c4-98f2-d3d73e2d8be3","resource":{"resourceType":"MeasureReport","id":"e7f479f5-964a-42c4-98f2-d3d73e2d8be3","meta":{"profile":["http://hl7.org/fhir/us/cqfmeasures/StructureDefinition/test-case-cqfm"]},"contained":[{"resourceType":"Parameters","id":"1757726e-89f6-4638-9469-17dee05e70aa-parameters","parameter":[{"name":"subject","valueString":"f00f3778-6ad1-466d-a3bd-bcbc63d62b55"}]}],"extension":[{"url":"http://hl7.org/fhir/us/cqfmeasures/StructureDefinition/cqfm-inputParameters","valueReference":{"reference":"#1757726e-89f6-4638-9469-17dee05e70aa-parameters"}},{"url":"http://hl7.org/fhir/us/cqfmeasures/StructureDefinition/cqfm-testCaseDescription","valueMarkdown":"LMWH not adm and GCS not ordered due to medical reason during encounter on the day of ICU start day\n"}],"modifierExtension":[{"url":"http://hl7.org/fhir/us/cqfmeasures/StructureDefinition/cqfm-isTestCase","valueBoolean":true}],"status":"complete","type":"individual","measure":"https://madie.cms.gov/Measure/CMS190VTEProphylaxisICUFHIR","period":{"start":"2026-01-01","end":"2026-12-31"},"group":[{"population":[{"code":{"coding":[{"system":"http://terminology.hl7.org/CodeSystem/measure-population","code":"initial-population","display":"Initial Population"}]},"count":1},{"code":{"coding":[{"system":"http://terminology.hl7.org/CodeSystem/measure-population","code":"denominator","display":"Denominator"}]},"count":1},{"code":{"coding":[{"system":"http://terminology.hl7.org/CodeSystem/measure-population","code":"denominator-exclusion","display":"Denominator Exclusion"}]},"count":0},{"code":{"coding":[{"system":"http://terminology.hl7.org/CodeSystem/measure-population","code":"numerator","display":"Numerator"}]},"count":1},{"code":{"coding":[{"system":"http://terminology.hl7.org/CodeSystem/measure-population","code":"denominator-exception","display":"Denominator Exception"}]},"count":0}]}]},"request":{"method":"PUT","url":"MeasureReport/e7f479f5-964a-42c4-98f2-d3d73e2d8be3"}}]}