{"resourceType":"Bundle","id":"tests-f7ffeb68-1928-4860-8b3e-767f128b23d3-bundle","type":"transaction","entry":[{"fullUrl":"https://madie.cms.gov/Patient/f7ffeb68-1928-4860-8b3e-767f128b23d3","resource":{"resourceType":"Patient","id":"f7ffeb68-1928-4860-8b3e-767f128b23d3","meta":{"profile":["http://hl7.org/fhir/us/qicore/StructureDefinition/qicore-patient"]},"text":{"status":"generated","div":"<div xmlns=\"http://www.w3.org/1999/xhtml\"><div class=\"hapiHeaderText\">ThrombinIOnICUStart <b>NUMERPASS </b></div><table class=\"hapiPropertyTable\"><tbody><tr><td>Identifier</td><td>06eca7aa47ca0c502a3acb1ae6090a56</td></tr><tr><td>Date of birth</td><td><span>03 March 1974</span></td></tr></tbody></table></div>"},"extension":[{"url":"http://hl7.org/fhir/us/core/StructureDefinition/us-core-race","extension":[{"url":"ombCategory","valueCoding":{"system":"urn:oid:2.16.840.1.113883.6.238","code":"1002-5","display":"American Indian or Alaska Native","userSelected":true}},{"url":"text","valueString":"American Indian or Alaska Native"}]},{"url":"http://hl7.org/fhir/us/core/StructureDefinition/us-core-ethnicity","extension":[{"url":"ombCategory","valueCoding":{"system":"urn:oid:2.16.840.1.113883.6.238","code":"2135-2","display":"Hispanic or Latino","userSelected":true}},{"url":"text","valueString":"Hispanic or Latino"}]}],"identifier":[{"type":{"coding":[{"system":"http://terminology.hl7.org/CodeSystem/v2-0203","code":"MR"}]},"system":"https://bonnie-fhir.healthit.gov/","value":"612e6f5302c62a011f2f166a"}],"active":true,"name":[{"use":"usual","family":"NUMERPass","given":["ThrombinIOnICUStart"]}],"gender":"female","birthDate":"1975-03-03"},"request":{"method":"PUT","url":"Patient/f7ffeb68-1928-4860-8b3e-767f128b23d3"}},{"fullUrl":"https://madie.cms.gov/Encounter/4824fd93-2dfd-4ad4-bedf-428a8c0fb0ca","resource":{"resourceType":"Encounter","id":"4824fd93-2dfd-4ad4-bedf-428a8c0fb0ca","meta":{"profile":["http://hl7.org/fhir/us/qicore/StructureDefinition/qicore-encounter"]},"status":"finished","class":{"system":"http://terminology.hl7.org/CodeSystem/v3-ActCode","code":"IMP","display":"inpatient encounter"},"type":[{"coding":[{"system":"http://snomed.info/sct","code":"8715000"}]}],"subject":{"reference":"Patient/f7ffeb68-1928-4860-8b3e-767f128b23d3"},"period":{"start":"2026-12-04T08:00:00+00:00","end":"2026-12-30T08:15:00+00:00"},"length":{"value":26.0,"unit":"days"},"location":[{"location":{"reference":"Location/fb4d152c-028f-456b-b3cf-6157126bd5f8"},"period":{"start":"2026-12-06T09:00:00.000+00:00","end":"2026-12-12T08:15:00.000+00:00"}}]},"request":{"method":"PUT","url":"Encounter/4824fd93-2dfd-4ad4-bedf-428a8c0fb0ca"}},{"fullUrl":"https://madie.cms.gov/Coverage/1e71be51-2875-4ff1-b28e-f5155b4fc0d5","resource":{"resourceType":"Coverage","id":"1e71be51-2875-4ff1-b28e-f5155b4fc0d5","status":"active","beneficiary":{"reference":"Patient/f7ffeb68-1928-4860-8b3e-767f128b23d3"},"period":{"start":"1975-03-03T08:00:00+00:00"},"payor":[{"reference":"Organization/db141f66-a1cc-407b-9e95-adac27adee14"}]},"request":{"method":"PUT","url":"Coverage/1e71be51-2875-4ff1-b28e-f5155b4fc0d5"}},{"fullUrl":"https://madie.cms.gov/MedicationAdministration/914b9b6e-5d9f-404a-9813-a010ee3fcc36","resource":{"resourceType":"MedicationAdministration","id":"914b9b6e-5d9f-404a-9813-a010ee3fcc36","meta":{"profile":["http://hl7.org/fhir/us/qicore/StructureDefinition/qicore-medicationadministration"]},"status":"completed","medicationCodeableConcept":{"coding":[{"system":"http://www.nlm.nih.gov/research/umls/rxnorm","code":"308351"}]},"subject":{"reference":"Patient/f7ffeb68-1928-4860-8b3e-767f128b23d3"},"effectivePeriod":{"start":"2026-12-06T08:00:00+00:00","end":"2026-12-06T08:45:00+00:00"}},"request":{"method":"PUT","url":"MedicationAdministration/914b9b6e-5d9f-404a-9813-a010ee3fcc36"}},{"fullUrl":"https://madie.cms.gov/Procedure/49ce1d3b-ebd7-44ed-8161-df0453cdb6b8","resource":{"resourceType":"Procedure","id":"49ce1d3b-ebd7-44ed-8161-df0453cdb6b8","status":"completed","code":{"coding":[{"system":"http://www.icd10data.com/icd10pcs","code":"3E030FZ"},{"system":"http://snomed.info/sct","code":"18946005"}]},"subject":{"reference":"Patient/f7ffeb68-1928-4860-8b3e-767f128b23d3"},"performedPeriod":{"start":"2026-12-04T11:00:00+00:00","end":"2026-12-06T11:15:00+00:00"}},"request":{"method":"PUT","url":"Procedure/49ce1d3b-ebd7-44ed-8161-df0453cdb6b8"}},{"fullUrl":"https://madie.cms.gov/Location/fb4d152c-028f-456b-b3cf-6157126bd5f8","resource":{"resourceType":"Location","id":"fb4d152c-028f-456b-b3cf-6157126bd5f8","meta":{"profile":["http://hl7.org/fhir/us/qicore/StructureDefinition/qicore-location"]},"identifier":[{"use":"usual","system":"http://exampleoflocation.com","value":"B1-S.F2"}],"name":"Medical Surgical East, first floor","type":[{"coding":[{"system":"https://www.cdc.gov/nhsn/cdaportal/terminology/codesystem/hsloc.html","code":"1025-6","display":"Trauma Critical Care","userSelected":true}]}]},"request":{"method":"PUT","url":"Location/fb4d152c-028f-456b-b3cf-6157126bd5f8"}},{"fullUrl":"https://madie.cms.gov/Organization/9a011a47-c10e-4f3c-b382-595a15c77625","resource":{"resourceType":"Organization","id":"db141f66-a1cc-407b-9e95-adac27adee14","meta":{"profile":["http://hl7.org/fhir/us/qicore/StructureDefinition/qicore-organization"]},"identifier":[{"use":"temp","system":"urn:oid:2.16.840.1.113883.4.4","value":"21-3259825"}],"active":true,"type":[{"coding":[{"system":"http://terminology.hl7.org/CodeSystem/organization-type","code":"pay","display":"Payer"}]}],"name":"Blue Cross Blue Shield of Texas","telecom":[{"system":"phone","value":"(+1) 972-766-6900"}],"address":[{"use":"billing","type":"postal","line":["P.O. Box 660044"],"city":"Dallas","state":"TX","postalCode":"75266-0044","country":"USA"}]},"request":{"method":"PUT","url":"Organization/db141f66-a1cc-407b-9e95-adac27adee14"}},{"fullUrl":"https://madie.cms.gov/Practitioner/a7f98d43-68ec-486a-90b9-243904eb33cb","resource":{"resourceType":"Practitioner","id":"a7f98d43-68ec-486a-90b9-243904eb33cb","identifier":[{"system":"http://hl7.org/fhir/sid/us-npi","value":"123456"}],"name":[{"family":"Evil","prefix":["Dr"]}]},"request":{"method":"PUT","url":"Practitioner/a7f98d43-68ec-486a-90b9-243904eb33cb"}},{"fullUrl":"https://madie.cms.gov/MeasureReport/bec29073-1c78-4597-84e6-45748f985f6e","resource":{"resourceType":"MeasureReport","id":"bec29073-1c78-4597-84e6-45748f985f6e","meta":{"profile":["http://hl7.org/fhir/us/cqfmeasures/StructureDefinition/test-case-cqfm"]},"contained":[{"resourceType":"Parameters","id":"e1255460-1dc1-42bc-9fe2-cc931c77f10e-parameters","parameter":[{"name":"subject","valueString":"f7ffeb68-1928-4860-8b3e-767f128b23d3"}]}],"extension":[{"url":"http://hl7.org/fhir/us/cqfmeasures/StructureDefinition/cqfm-inputParameters","valueReference":{"reference":"#e1255460-1dc1-42bc-9fe2-cc931c77f10e-parameters"}},{"url":"http://hl7.org/fhir/us/cqfmeasures/StructureDefinition/cqfm-testCaseDescription","valueMarkdown":"meets IPP, meets Denominator, medication administered:Thrombin, Thrombin  concurrent with start of ICU Admission \n"}],"modifierExtension":[{"url":"http://hl7.org/fhir/us/cqfmeasures/StructureDefinition/cqfm-isTestCase","valueBoolean":true}],"status":"complete","type":"individual","measure":"https://madie.cms.gov/Measure/CMS190VTEProphylaxisICUFHIR","period":{"start":"2026-01-01","end":"2026-12-31"},"group":[{"population":[{"code":{"coding":[{"system":"http://terminology.hl7.org/CodeSystem/measure-population","code":"initial-population","display":"Initial Population"}]},"count":1},{"code":{"coding":[{"system":"http://terminology.hl7.org/CodeSystem/measure-population","code":"denominator","display":"Denominator"}]},"count":1},{"code":{"coding":[{"system":"http://terminology.hl7.org/CodeSystem/measure-population","code":"denominator-exclusion","display":"Denominator Exclusion"}]},"count":0},{"code":{"coding":[{"system":"http://terminology.hl7.org/CodeSystem/measure-population","code":"numerator","display":"Numerator"}]},"count":1},{"code":{"coding":[{"system":"http://terminology.hl7.org/CodeSystem/measure-population","code":"denominator-exception","display":"Denominator Exception"}]},"count":0}]}]},"request":{"method":"PUT","url":"MeasureReport/bec29073-1c78-4597-84e6-45748f985f6e"}}]}