{"resourceType":"Bundle","id":"tests-42ff0799-cc97-4a96-bbb7-1600e1701485-bundle","type":"transaction","entry":[{"fullUrl":"https://madie.cms.gov/Patient/42ff0799-cc97-4a96-bbb7-1600e1701485","resource":{"resourceType":"Patient","id":"42ff0799-cc97-4a96-bbb7-1600e1701485","meta":{"profile":["http://hl7.org/fhir/us/qicore/StructureDefinition/qicore-patient"]},"text":{"status":"generated","div":"<div xmlns=\"http://www.w3.org/1999/xhtml\"><div class=\"hapiHeaderText\">PtRefMOLMWHDayAfterICU<b>NUMERPASS </b></div><table class=\"hapiPropertyTable\"><tbody><tr><td>Identifier</td><td>bec2580a47ed4bf7691b191e0654b2de</td></tr><tr><td>Date of birth</td><td><span>02 January 1974</span></td></tr></tbody></table></div>"},"extension":[{"url":"http://hl7.org/fhir/us/core/StructureDefinition/us-core-race","extension":[{"url":"ombCategory","valueCoding":{"system":"urn:oid:2.16.840.1.113883.6.238","code":"1002-5","display":"American Indian or Alaska Native","userSelected":true}},{"url":"text","valueString":"American Indian or Alaska Native"}]},{"url":"http://hl7.org/fhir/us/core/StructureDefinition/us-core-ethnicity","extension":[{"url":"ombCategory","valueCoding":{"system":"urn:oid:2.16.840.1.113883.6.238","code":"2135-2","display":"Hispanic or Latino","userSelected":true}},{"url":"text","valueString":"Hispanic or Latino"}]}],"identifier":[{"type":{"coding":[{"system":"http://terminology.hl7.org/CodeSystem/v2-0203","code":"MR"}]},"system":"https://bonnie-fhir.healthit.gov/","value":"612e6b2e02c62a011f2ecc92"}],"active":true,"name":[{"use":"usual","family":"NUMERPass","given":["PtRefMOLMWHDayAfterICU"]}],"gender":"male","birthDate":"1975-01-02"},"request":{"method":"PUT","url":"Patient/42ff0799-cc97-4a96-bbb7-1600e1701485"}},{"fullUrl":"https://madie.cms.gov/Encounter/a03031bc-6193-43d4-b814-710bd6e06386","resource":{"resourceType":"Encounter","id":"a03031bc-6193-43d4-b814-710bd6e06386","meta":{"profile":["http://hl7.org/fhir/us/qicore/StructureDefinition/qicore-encounter"]},"status":"finished","class":{"system":"http://terminology.hl7.org/CodeSystem/v3-ActCode","code":"IMP","display":"inpatient encounter"},"type":[{"coding":[{"system":"http://snomed.info/sct","code":"8715000"}]}],"subject":{"reference":"Patient/42ff0799-cc97-4a96-bbb7-1600e1701485"},"period":{"start":"2026-11-01T08:00:00+00:00","end":"2026-11-26T08:15:00+00:00"},"length":{"value":25,"unit":"days"},"location":[{"location":{"reference":"Location/10535dad-c444-4cf4-b3d9-9f3240e0f529"},"period":{"start":"2026-11-04T09:00:00+00:00","end":"2026-11-06T08:15:00+00:00"}}]},"request":{"method":"PUT","url":"Encounter/a03031bc-6193-43d4-b814-710bd6e06386"}},{"fullUrl":"https://madie.cms.gov/Coverage/bbe1f145-d762-487a-8d79-ef39c22e8390","resource":{"resourceType":"Coverage","id":"bbe1f145-d762-487a-8d79-ef39c22e8390","status":"active","beneficiary":{"reference":"Patient/42ff0799-cc97-4a96-bbb7-1600e1701485"},"period":{"start":"1975-01-02T08:00:00+00:00"},"payor":[{"reference":"Organization/3e899f33-84eb-4634-a770-a5a0bd7a80e7"}]},"request":{"method":"PUT","url":"Coverage/bbe1f145-d762-487a-8d79-ef39c22e8390"}},{"fullUrl":"https://madie.cms.gov/MedicationRequest/c7837142-0390-4c00-ba14-c4ebebb9de5f","resource":{"resourceType":"MedicationRequest","id":"c7837142-0390-4c00-ba14-c4ebebb9de5f","meta":{"profile":["http://hl7.org/fhir/us/qicore/StructureDefinition/qicore-mednotrequested"]},"status":"completed","intent":"order","category":[{"coding":[{"system":"http://terminology.hl7.org/CodeSystem/medicationrequest-category","code":"community"}]}],"doNotPerform":true,"medicationCodeableConcept":{"coding":[{"system":"http://www.nlm.nih.gov/research/umls/rxnorm","code":"854255"}]},"subject":{"reference":"Patient/42ff0799-cc97-4a96-bbb7-1600e1701485"},"authoredOn":"2026-11-05T07:00:00+00:00","requester":{"reference":"Practitioner/123456"},"reasonCode":[{"coding":[{"system":"http://snomed.info/sct","code":"443390004","display":"Refusal of treatment by patient (situation)","userSelected":true}]}]},"request":{"method":"PUT","url":"MedicationRequest/c7837142-0390-4c00-ba14-c4ebebb9de5f"}},{"fullUrl":"https://madie.cms.gov/Location/10535dad-c444-4cf4-b3d9-9f3240e0f529","resource":{"resourceType":"Location","id":"10535dad-c444-4cf4-b3d9-9f3240e0f529","meta":{"profile":["http://hl7.org/fhir/us/qicore/StructureDefinition/qicore-location"]},"identifier":[{"use":"usual","system":"http://exampleoflocation.com","value":"B1-S.F2"}],"name":"Medical Surgical East, first floor","type":[{"coding":[{"system":"https://www.cdc.gov/nhsn/cdaportal/terminology/codesystem/hsloc.html","code":"1025-6","display":"Trauma Critical Care","userSelected":true}]}]},"request":{"method":"PUT","url":"Location/10535dad-c444-4cf4-b3d9-9f3240e0f529"}},{"fullUrl":"https://madie.cms.gov/Organization/f02588bf-0d6a-434f-bef4-e35052ff89ff","resource":{"resourceType":"Organization","id":"3e899f33-84eb-4634-a770-a5a0bd7a80e7","meta":{"profile":["http://hl7.org/fhir/us/qicore/StructureDefinition/qicore-organization"]},"identifier":[{"use":"temp","system":"urn:oid:2.16.840.1.113883.4.4","value":"21-3259825"}],"active":true,"type":[{"coding":[{"system":"http://terminology.hl7.org/CodeSystem/organization-type","code":"pay","display":"Payer"}]}],"name":"Blue Cross Blue Shield of Texas","telecom":[{"system":"phone","value":"(+1) 972-766-6900"}],"address":[{"use":"billing","type":"postal","line":["P.O. Box 660044"],"city":"Dallas","state":"TX","postalCode":"75266-0044","country":"USA"}]},"request":{"method":"PUT","url":"Organization/3e899f33-84eb-4634-a770-a5a0bd7a80e7"}},{"fullUrl":"https://madie.cms.gov/Practitioner/41563cbf-3e3b-407d-9285-5cc8ff6ffe46","resource":{"resourceType":"Practitioner","id":"41563cbf-3e3b-407d-9285-5cc8ff6ffe46","identifier":[{"system":"http://hl7.org/fhir/sid/us-npi","value":"123456"}],"name":[{"family":"Evil","prefix":["Dr"]}]},"request":{"method":"PUT","url":"Practitioner/41563cbf-3e3b-407d-9285-5cc8ff6ffe46"}},{"fullUrl":"https://madie.cms.gov/MeasureReport/ac19df56-ca81-4d81-84d1-35561e8bb094","resource":{"resourceType":"MeasureReport","id":"ac19df56-ca81-4d81-84d1-35561e8bb094","meta":{"profile":["http://hl7.org/fhir/us/cqfmeasures/StructureDefinition/test-case-cqfm"]},"contained":[{"resourceType":"Parameters","id":"cf9fa5ef-a205-46a1-9cf1-e2773ac4cde5-parameters","parameter":[{"name":"subject","valueString":"42ff0799-cc97-4a96-bbb7-1600e1701485"}]}],"extension":[{"url":"http://hl7.org/fhir/us/cqfmeasures/StructureDefinition/cqfm-inputParameters","valueReference":{"reference":"#cf9fa5ef-a205-46a1-9cf1-e2773ac4cde5-parameters"}},{"url":"http://hl7.org/fhir/us/cqfmeasures/StructureDefinition/cqfm-testCaseDescription","valueMarkdown":"Patient refusal for LMWH documented on the day after ICU"}],"modifierExtension":[{"url":"http://hl7.org/fhir/us/cqfmeasures/StructureDefinition/cqfm-isTestCase","valueBoolean":true}],"status":"complete","type":"individual","measure":"https://madie.cms.gov/Measure/CMS190VTEProphylaxisICUFHIR","period":{"start":"2026-01-01","end":"2026-12-31"},"group":[{"population":[{"code":{"coding":[{"system":"http://terminology.hl7.org/CodeSystem/measure-population","code":"initial-population","display":"Initial Population"}]},"count":1},{"code":{"coding":[{"system":"http://terminology.hl7.org/CodeSystem/measure-population","code":"denominator","display":"Denominator"}]},"count":1},{"code":{"coding":[{"system":"http://terminology.hl7.org/CodeSystem/measure-population","code":"denominator-exclusion","display":"Denominator Exclusion"}]},"count":0},{"code":{"coding":[{"system":"http://terminology.hl7.org/CodeSystem/measure-population","code":"numerator","display":"Numerator"}]},"count":1},{"code":{"coding":[{"system":"http://terminology.hl7.org/CodeSystem/measure-population","code":"denominator-exception","display":"Denominator Exception"}]},"count":0}]}]},"request":{"method":"PUT","url":"MeasureReport/ac19df56-ca81-4d81-84d1-35561e8bb094"}}]}