{"resourceType":"Bundle","id":"tests-a0695e1d-fb04-4305-8cf6-904a8a237ebd-bundle","type":"transaction","entry":[{"fullUrl":"https://madie.cms.gov/Patient/a0695e1d-fb04-4305-8cf6-904a8a237ebd","resource":{"resourceType":"Patient","id":"a0695e1d-fb04-4305-8cf6-904a8a237ebd","meta":{"profile":["http://hl7.org/fhir/us/qicore/StructureDefinition/qicore-patient"]},"text":{"status":"generated","div":"<div xmlns=\"http://www.w3.org/1999/xhtml\"><div class=\"hapiHeaderText\">ICUEnds1MinAfterEncEnd <b>DENOMFAIL </b></div><table class=\"hapiPropertyTable\"><tbody><tr><td>Identifier</td><td>009b2b3795c87569355f211b9e8d5ef5</td></tr><tr><td>Date of birth</td><td><span>03 March 1974</span></td></tr></tbody></table></div>"},"extension":[{"url":"http://hl7.org/fhir/us/core/StructureDefinition/us-core-race","extension":[{"url":"ombCategory","valueCoding":{"system":"urn:oid:2.16.840.1.113883.6.238","code":"1002-5","display":"American Indian or Alaska Native","userSelected":true}},{"url":"text","valueString":"American Indian or Alaska Native"}]},{"url":"http://hl7.org/fhir/us/core/StructureDefinition/us-core-ethnicity","extension":[{"url":"ombCategory","valueCoding":{"system":"urn:oid:2.16.840.1.113883.6.238","code":"2186-5","display":"Not Hispanic or Latino","userSelected":true}},{"url":"text","valueString":"Not Hispanic or Latino"}]}],"identifier":[{"type":{"coding":[{"system":"http://terminology.hl7.org/CodeSystem/v2-0203","code":"MR"}]},"system":"https://bonnie-fhir.healthit.gov/","value":"612e6f1b02c62a011f2f0ba0"}],"active":true,"name":[{"use":"usual","family":"DENOMFail","given":["ICUEnds1MinAfterEncEnd"]}],"gender":"female","birthDate":"1975-03-03"},"request":{"method":"PUT","url":"Patient/a0695e1d-fb04-4305-8cf6-904a8a237ebd"}},{"fullUrl":"https://madie.cms.gov/Encounter/eb530032-d0b2-4b1f-9c71-04f39af21b32","resource":{"resourceType":"Encounter","id":"eb530032-d0b2-4b1f-9c71-04f39af21b32","meta":{"profile":["http://hl7.org/fhir/us/qicore/StructureDefinition/qicore-encounter"]},"status":"finished","class":{"system":"http://terminology.hl7.org/CodeSystem/v3-ActCode","code":"IMP","display":"inpatient encounter"},"type":[{"coding":[{"system":"http://snomed.info/sct","code":"8715000"}]}],"subject":{"reference":"Patient/a0695e1d-fb04-4305-8cf6-904a8a237ebd"},"period":{"start":"2026-12-01T01:05:00+00:00","end":"2026-12-31T22:59:00+00:00"},"length":{"value":30.0,"unit":"days"},"location":[{"location":{"reference":"Location/intensive-care-unit-108a"},"period":{"start":"2026-12-30T23:59:00+00:00","end":"2026-12-31T23:00:00+00:00"}}]},"request":{"method":"PUT","url":"Encounter/eb530032-d0b2-4b1f-9c71-04f39af21b32"}},{"fullUrl":"https://madie.cms.gov/Location/c6815910-ef1b-4769-b606-2ccee5ed2369","resource":{"resourceType":"Location","id":"c6815910-ef1b-4769-b606-2ccee5ed2369","meta":{"profile":["http://hl7.org/fhir/us/qicore/StructureDefinition/qicore-location"]},"identifier":[{"use":"usual","system":"http://exampleoflocation.com","value":"B1-S.F2"}],"name":"Medical Surgical East, first floor","type":[{"coding":[{"system":"https://www.cdc.gov/nhsn/cdaportal/terminology/codesystem/hsloc.html","code":"1025-6","display":"Trauma Critical Care","userSelected":true}]}]},"request":{"method":"PUT","url":"Location/c6815910-ef1b-4769-b606-2ccee5ed2369"}},{"fullUrl":"https://madie.cms.gov/Coverage/b83f91c8-c4fa-43b9-93e1-0a02dea9abce","resource":{"resourceType":"Coverage","id":"b83f91c8-c4fa-43b9-93e1-0a02dea9abce","status":"active","beneficiary":{"reference":"Patient/a0695e1d-fb04-4305-8cf6-904a8a237ebd"},"period":{"start":"1975-03-03T08:00:00+00:00"},"payor":[{"reference":"Organization/3778262e-e084-4bb5-9a47-1a144735f786"}]},"request":{"method":"PUT","url":"Coverage/b83f91c8-c4fa-43b9-93e1-0a02dea9abce"}},{"fullUrl":"https://madie.cms.gov/Organization/8ea39606-1b2a-466d-a504-072ac9ee7718","resource":{"resourceType":"Organization","id":"3778262e-e084-4bb5-9a47-1a144735f786","meta":{"profile":["http://hl7.org/fhir/us/qicore/StructureDefinition/qicore-organization"]},"identifier":[{"use":"temp","system":"urn:oid:2.16.840.1.113883.4.4","value":"21-3259825"}],"active":true,"type":[{"coding":[{"system":"http://terminology.hl7.org/CodeSystem/organization-type","code":"pay","display":"Payer"}]}],"name":"Blue Cross Blue Shield of Texas","telecom":[{"system":"phone","value":"(+1) 972-766-6900"}],"address":[{"use":"billing","type":"postal","line":["P.O. Box 660044"],"city":"Dallas","state":"TX","postalCode":"75266-0044","country":"USA"}]},"request":{"method":"PUT","url":"Organization/3778262e-e084-4bb5-9a47-1a144735f786"}},{"fullUrl":"https://madie.cms.gov/Practitioner/39236752-d570-42cd-af46-f81cd269c832","resource":{"resourceType":"Practitioner","id":"39236752-d570-42cd-af46-f81cd269c832","identifier":[{"system":"http://hl7.org/fhir/sid/us-npi","value":"123456"}],"name":[{"family":"Evil","prefix":["Dr"]}]},"request":{"method":"PUT","url":"Practitioner/39236752-d570-42cd-af46-f81cd269c832"}},{"fullUrl":"https://madie.cms.gov/MeasureReport/6f4c8b5e-b759-4c61-88b2-56a60129382d","resource":{"resourceType":"MeasureReport","id":"6f4c8b5e-b759-4c61-88b2-56a60129382d","meta":{"profile":["http://hl7.org/fhir/us/cqfmeasures/StructureDefinition/test-case-cqfm"]},"contained":[{"resourceType":"Parameters","id":"c6eb1add-2103-4c70-a846-3e5ee609baad-parameters","parameter":[{"name":"subject","valueString":"a0695e1d-fb04-4305-8cf6-904a8a237ebd"}]}],"extension":[{"url":"http://hl7.org/fhir/us/cqfmeasures/StructureDefinition/cqfm-inputParameters","valueReference":{"reference":"#c6eb1add-2103-4c70-a846-3e5ee609baad-parameters"}},{"url":"http://hl7.org/fhir/us/cqfmeasures/StructureDefinition/cqfm-testCaseDescription","valueMarkdown":"ICU ends 1 min after discharge\n"}],"modifierExtension":[{"url":"http://hl7.org/fhir/us/cqfmeasures/StructureDefinition/cqfm-isTestCase","valueBoolean":true}],"status":"complete","type":"individual","measure":"https://madie.cms.gov/Measure/CMS190VTEProphylaxisICUFHIR","period":{"start":"2026-01-01","end":"2026-12-31"},"group":[{"population":[{"code":{"coding":[{"system":"http://terminology.hl7.org/CodeSystem/measure-population","code":"initial-population","display":"Initial Population"}]},"count":1},{"code":{"coding":[{"system":"http://terminology.hl7.org/CodeSystem/measure-population","code":"denominator","display":"Denominator"}]},"count":0},{"code":{"coding":[{"system":"http://terminology.hl7.org/CodeSystem/measure-population","code":"denominator-exclusion","display":"Denominator Exclusion"}]},"count":0},{"code":{"coding":[{"system":"http://terminology.hl7.org/CodeSystem/measure-population","code":"numerator","display":"Numerator"}]},"count":0},{"code":{"coding":[{"system":"http://terminology.hl7.org/CodeSystem/measure-population","code":"denominator-exception","display":"Denominator Exception"}]},"count":0}]}]},"request":{"method":"PUT","url":"MeasureReport/6f4c8b5e-b759-4c61-88b2-56a60129382d"}}]}