{"resourceType":"Bundle","id":"tests-99fbf673-e18e-43db-bccf-6edc67fcb13f-bundle","type":"transaction","entry":[{"fullUrl":"https://madie.cms.gov/Patient/99fbf673-e18e-43db-bccf-6edc67fcb13f","resource":{"resourceType":"Patient","id":"99fbf673-e18e-43db-bccf-6edc67fcb13f","meta":{"profile":["http://hl7.org/fhir/us/qicore/StructureDefinition/qicore-patient"]},"text":{"status":"generated","div":"<div xmlns=\"http://www.w3.org/1999/xhtml\"><div class=\"hapiHeaderText\">MAWarfarinDayOfICUMedAdmBFICUStart <b>NUMERPASS </b></div><table class=\"hapiPropertyTable\"><tbody><tr><td>Identifier</td><td>4a57e8e4a87323501c4bde2e71e8e471</td></tr><tr><td>Date of birth</td><td><span>03 March 1974</span></td></tr></tbody></table></div>"},"extension":[{"url":"http://hl7.org/fhir/us/core/StructureDefinition/us-core-race","extension":[{"url":"ombCategory","valueCoding":{"system":"urn:oid:2.16.840.1.113883.6.238","code":"1002-5","display":"American Indian or Alaska Native","userSelected":true}},{"url":"text","valueString":"American Indian or Alaska Native"}]},{"url":"http://hl7.org/fhir/us/core/StructureDefinition/us-core-ethnicity","extension":[{"url":"ombCategory","valueCoding":{"system":"urn:oid:2.16.840.1.113883.6.238","code":"2135-2","display":"Hispanic or Latino","userSelected":true}},{"url":"text","valueString":"Hispanic or Latino"}]}],"identifier":[{"type":{"coding":[{"system":"http://terminology.hl7.org/CodeSystem/v2-0203","code":"MR"}]},"system":"https://bonnie-fhir.healthit.gov/","value":"612e6eb702c62a011f2ef567"}],"active":true,"name":[{"use":"usual","family":"NUMERPass","given":["MAWarfarinDayOfICUMedAdmBFICUStart"]}],"gender":"female","birthDate":"1975-03-03"},"request":{"method":"PUT","url":"Patient/99fbf673-e18e-43db-bccf-6edc67fcb13f"}},{"fullUrl":"https://madie.cms.gov/Encounter/5140528a-177b-455c-803d-8f70d78cb7b2","resource":{"resourceType":"Encounter","id":"5140528a-177b-455c-803d-8f70d78cb7b2","meta":{"profile":["http://hl7.org/fhir/us/qicore/StructureDefinition/qicore-encounter"]},"status":"finished","class":{"system":"http://terminology.hl7.org/CodeSystem/v3-ActCode","code":"IMP","display":"inpatient encounter"},"type":[{"coding":[{"system":"http://snomed.info/sct","code":"8715000"}]}],"subject":{"reference":"Patient/99fbf673-e18e-43db-bccf-6edc67fcb13f"},"period":{"start":"2026-12-01T06:00:00+00:00","end":"2026-12-31T23:59:00+00:00"},"length":{"value":30.0,"unit":"days"},"location":[{"location":{"reference":"Location/91340922-8702-4c61-a685-8a7caf20829f"},"period":{"start":"2026-12-02T09:00:00.000+00:00","end":"2026-12-10T08:15:00.000+00:00"}}]},"request":{"method":"PUT","url":"Encounter/5140528a-177b-455c-803d-8f70d78cb7b2"}},{"fullUrl":"https://madie.cms.gov/Coverage/55647726-0fc1-46bd-a877-b6a2f03e9273","resource":{"resourceType":"Coverage","id":"55647726-0fc1-46bd-a877-b6a2f03e9273","status":"active","beneficiary":{"reference":"Patient/99fbf673-e18e-43db-bccf-6edc67fcb13f"},"period":{"start":"1975-03-03T08:00:00+00:00"},"payor":[{"reference":"Organization/3e899f33-84eb-4634-a770-a5a0bd7a80e7"}]},"request":{"method":"PUT","url":"Coverage/55647726-0fc1-46bd-a877-b6a2f03e9273"}},{"fullUrl":"https://madie.cms.gov/MedicationAdministration/2b6a078a-0dfc-4496-8ec5-51c642aa98ae","resource":{"resourceType":"MedicationAdministration","id":"2b6a078a-0dfc-4496-8ec5-51c642aa98ae","meta":{"profile":["http://hl7.org/fhir/us/qicore/StructureDefinition/qicore-medicationadministration"]},"status":"completed","medicationCodeableConcept":{"coding":[{"system":"http://www.nlm.nih.gov/research/umls/rxnorm","code":"855288"}]},"subject":{"reference":"Patient/99fbf673-e18e-43db-bccf-6edc67fcb13f"},"effectivePeriod":{"start":"2026-12-02T06:59:00+00:00"}},"request":{"method":"PUT","url":"MedicationAdministration/2b6a078a-0dfc-4496-8ec5-51c642aa98ae"}},{"fullUrl":"https://madie.cms.gov/Location/91340922-8702-4c61-a685-8a7caf20829f","resource":{"resourceType":"Location","id":"91340922-8702-4c61-a685-8a7caf20829f","meta":{"profile":["http://hl7.org/fhir/us/qicore/StructureDefinition/qicore-location"]},"identifier":[{"use":"usual","system":"http://exampleoflocation.com","value":"B1-S.F2"}],"name":"Medical Surgical East, first floor","type":[{"coding":[{"system":"https://www.cdc.gov/nhsn/cdaportal/terminology/codesystem/hsloc.html","code":"1025-6","display":"Trauma Critical Care","userSelected":true}]}]},"request":{"method":"PUT","url":"Location/91340922-8702-4c61-a685-8a7caf20829f"}},{"fullUrl":"https://madie.cms.gov/Organization/ce1068d5-64f2-4b3e-b6c4-5466bfcd4d42","resource":{"resourceType":"Organization","id":"3e899f33-84eb-4634-a770-a5a0bd7a80e7","meta":{"profile":["http://hl7.org/fhir/us/qicore/StructureDefinition/qicore-organization"]},"identifier":[{"use":"temp","system":"urn:oid:2.16.840.1.113883.4.4","value":"21-3259825"}],"active":true,"type":[{"coding":[{"system":"http://terminology.hl7.org/CodeSystem/organization-type","code":"pay","display":"Payer"}]}],"name":"Blue Cross Blue Shield of Texas","telecom":[{"system":"phone","value":"(+1) 972-766-6900"}],"address":[{"use":"billing","type":"postal","line":["P.O. Box 660044"],"city":"Dallas","state":"TX","postalCode":"75266-0044","country":"USA"}]},"request":{"method":"PUT","url":"Organization/3e899f33-84eb-4634-a770-a5a0bd7a80e7"}},{"fullUrl":"https://madie.cms.gov/Practitioner/e8f3f598-703b-4769-9fb5-a97804a6994f","resource":{"resourceType":"Practitioner","id":"e8f3f598-703b-4769-9fb5-a97804a6994f","identifier":[{"system":"http://hl7.org/fhir/sid/us-npi","value":"123456"}],"name":[{"family":"Evil","prefix":["Dr"]}]},"request":{"method":"PUT","url":"Practitioner/e8f3f598-703b-4769-9fb5-a97804a6994f"}},{"fullUrl":"https://madie.cms.gov/MeasureReport/3fa55ac2-8e82-424a-9277-e5acbf0c71f1","resource":{"resourceType":"MeasureReport","id":"3fa55ac2-8e82-424a-9277-e5acbf0c71f1","meta":{"profile":["http://hl7.org/fhir/us/cqfmeasures/StructureDefinition/test-case-cqfm"]},"contained":[{"resourceType":"Parameters","id":"36095f58-a2b2-4784-bf84-cdfd6c657c75-parameters","parameter":[{"name":"subject","valueString":"99fbf673-e18e-43db-bccf-6edc67fcb13f"}]}],"extension":[{"url":"http://hl7.org/fhir/us/cqfmeasures/StructureDefinition/cqfm-inputParameters","valueReference":{"reference":"#36095f58-a2b2-4784-bf84-cdfd6c657c75-parameters"}},{"url":"http://hl7.org/fhir/us/cqfmeasures/StructureDefinition/cqfm-testCaseDescription","valueMarkdown":"Warfarin was given  before ICU Start time but on the same day of ICU adm date"}],"modifierExtension":[{"url":"http://hl7.org/fhir/us/cqfmeasures/StructureDefinition/cqfm-isTestCase","valueBoolean":true}],"status":"complete","type":"individual","measure":"https://madie.cms.gov/Measure/CMS190VTEProphylaxisICUFHIR","period":{"start":"2026-01-01","end":"2026-12-31"},"group":[{"population":[{"code":{"coding":[{"system":"http://terminology.hl7.org/CodeSystem/measure-population","code":"initial-population","display":"Initial Population"}]},"count":1},{"code":{"coding":[{"system":"http://terminology.hl7.org/CodeSystem/measure-population","code":"denominator","display":"Denominator"}]},"count":1},{"code":{"coding":[{"system":"http://terminology.hl7.org/CodeSystem/measure-population","code":"denominator-exclusion","display":"Denominator Exclusion"}]},"count":0},{"code":{"coding":[{"system":"http://terminology.hl7.org/CodeSystem/measure-population","code":"numerator","display":"Numerator"}]},"count":1},{"code":{"coding":[{"system":"http://terminology.hl7.org/CodeSystem/measure-population","code":"denominator-exception","display":"Denominator Exception"}]},"count":0}]}]},"request":{"method":"PUT","url":"MeasureReport/3fa55ac2-8e82-424a-9277-e5acbf0c71f1"}}]}