{"resourceType":"Bundle","id":"tests-04f44995-82bc-4579-b721-df49ac132735-bundle","type":"transaction","entry":[{"fullUrl":"https://madie.cms.gov/Patient/04f44995-82bc-4579-b721-df49ac132735","resource":{"resourceType":"Patient","id":"04f44995-82bc-4579-b721-df49ac132735","meta":{"profile":["http://hl7.org/fhir/us/qicore/StructureDefinition/qicore-patient"]},"text":{"status":"generated","div":"<div xmlns=\"http://www.w3.org/1999/xhtml\"><div class=\"hapiHeaderText\">ICUEnd1MinB4Enc <b>DENOMFAIL </b></div><table class=\"hapiPropertyTable\"><tbody><tr><td>Identifier</td><td>009b2b3795c87569355f211b9e8d5ef5</td></tr><tr><td>Date of birth</td><td><span>03 March 1974</span></td></tr></tbody></table></div>"},"extension":[{"url":"http://hl7.org/fhir/us/core/StructureDefinition/us-core-race","extension":[{"url":"ombCategory","valueCoding":{"system":"urn:oid:2.16.840.1.113883.6.238","code":"1002-5","display":"American Indian or Alaska Native","userSelected":true}},{"url":"text","valueString":"American Indian or Alaska Native"}]},{"url":"http://hl7.org/fhir/us/core/StructureDefinition/us-core-ethnicity","extension":[{"url":"ombCategory","valueCoding":{"system":"urn:oid:2.16.840.1.113883.6.238","code":"2186-5","display":"Not Hispanic or Latino","userSelected":true}},{"url":"text","valueString":"Not Hispanic or Latino"}]}],"identifier":[{"type":{"coding":[{"system":"http://terminology.hl7.org/CodeSystem/v2-0203","code":"MR"}]},"system":"https://bonnie-fhir.healthit.gov/","value":"612e6f1b02c62a011f2f0ba0"}],"active":true,"name":[{"use":"usual","family":"DENOMFail","given":["ICUEnd1MinB4Enc"]}],"gender":"female","birthDate":"1975-03-03"},"request":{"method":"PUT","url":"Patient/04f44995-82bc-4579-b721-df49ac132735"}},{"fullUrl":"https://madie.cms.gov/Encounter/1513ef89-710b-44b4-a985-fd753ef16e6a","resource":{"resourceType":"Encounter","id":"1513ef89-710b-44b4-a985-fd753ef16e6a","meta":{"profile":["http://hl7.org/fhir/us/qicore/StructureDefinition/qicore-encounter"]},"status":"finished","class":{"system":"http://terminology.hl7.org/CodeSystem/v3-ActCode","code":"IMP","display":"inpatient encounter"},"type":[{"coding":[{"system":"http://snomed.info/sct","code":"8715000"}]}],"subject":{"reference":"Patient/04f44995-82bc-4579-b721-df49ac132735"},"period":{"start":"2026-12-01T01:05:00+00:00","end":"2026-12-31T23:59:00+00:00"},"length":{"value":30.0,"unit":"days"},"location":[{"location":{"reference":"Location/intensive-care-unit-108a"},"period":{"start":"2026-11-30T08:00:00.000+00:00","end":"2026-12-01T01:04:00.000+00:00"}}]},"request":{"method":"PUT","url":"Encounter/1513ef89-710b-44b4-a985-fd753ef16e6a"}},{"fullUrl":"https://madie.cms.gov/Location/0531c87e-7b1c-4fa8-98f1-b299cabfd971","resource":{"resourceType":"Location","id":"0531c87e-7b1c-4fa8-98f1-b299cabfd971","meta":{"profile":["http://hl7.org/fhir/us/qicore/StructureDefinition/qicore-location"]},"identifier":[{"use":"usual","system":"http://exampleoflocation.com","value":"B1-S.F2"}],"name":"Medical Surgical East, first floor","type":[{"coding":[{"system":"https://www.cdc.gov/nhsn/cdaportal/terminology/codesystem/hsloc.html","code":"1025-6","display":"Trauma Critical Care","userSelected":true}]}]},"request":{"method":"PUT","url":"Location/0531c87e-7b1c-4fa8-98f1-b299cabfd971"}},{"fullUrl":"https://madie.cms.gov/Coverage/1458b229-25e5-4536-8026-11688a8586ff","resource":{"resourceType":"Coverage","id":"1458b229-25e5-4536-8026-11688a8586ff","status":"active","beneficiary":{"reference":"Patient/04f44995-82bc-4579-b721-df49ac132735"},"period":{"start":"1975-03-03T08:00:00+00:00"},"payor":[{"reference":"Organization/4da248b0-6e59-49b7-b80e-338aa21d299f"}]},"request":{"method":"PUT","url":"Coverage/1458b229-25e5-4536-8026-11688a8586ff"}},{"fullUrl":"https://madie.cms.gov/Organization/62e91f7a-0c2b-4e39-b8a5-2d7bdc033648","resource":{"resourceType":"Organization","id":"4da248b0-6e59-49b7-b80e-338aa21d299f","meta":{"profile":["http://hl7.org/fhir/us/qicore/StructureDefinition/qicore-organization"]},"identifier":[{"use":"temp","system":"urn:oid:2.16.840.1.113883.4.4","value":"21-3259825"}],"active":true,"type":[{"coding":[{"system":"http://terminology.hl7.org/CodeSystem/organization-type","code":"pay","display":"Payer"}]}],"name":"Blue Cross Blue Shield of Texas","telecom":[{"system":"phone","value":"(+1) 972-766-6900"}],"address":[{"use":"billing","type":"postal","line":["P.O. Box 660044"],"city":"Dallas","state":"TX","postalCode":"75266-0044","country":"USA"}]},"request":{"method":"PUT","url":"Organization/4da248b0-6e59-49b7-b80e-338aa21d299f"}},{"fullUrl":"https://madie.cms.gov/Practitioner/5eeef194-4f94-4d30-b7da-4b6e769cf279","resource":{"resourceType":"Practitioner","id":"5eeef194-4f94-4d30-b7da-4b6e769cf279","identifier":[{"system":"http://hl7.org/fhir/sid/us-npi","value":"123456"}],"name":[{"family":"Evil","prefix":["Dr"]}]},"request":{"method":"PUT","url":"Practitioner/5eeef194-4f94-4d30-b7da-4b6e769cf279"}},{"fullUrl":"https://madie.cms.gov/MeasureReport/b3d3fd40-e326-4f45-8adf-97d8d1dde701","resource":{"resourceType":"MeasureReport","id":"b3d3fd40-e326-4f45-8adf-97d8d1dde701","meta":{"profile":["http://hl7.org/fhir/us/cqfmeasures/StructureDefinition/test-case-cqfm"]},"contained":[{"resourceType":"Parameters","id":"4fb83238-efb2-4066-9fa8-9847c0061a82-parameters","parameter":[{"name":"subject","valueString":"04f44995-82bc-4579-b721-df49ac132735"}]}],"extension":[{"url":"http://hl7.org/fhir/us/cqfmeasures/StructureDefinition/cqfm-inputParameters","valueReference":{"reference":"#4fb83238-efb2-4066-9fa8-9847c0061a82-parameters"}},{"url":"http://hl7.org/fhir/us/cqfmeasures/StructureDefinition/cqfm-testCaseDescription","valueMarkdown":"ICU.stop 1 min prior to Inp.start\n"}],"modifierExtension":[{"url":"http://hl7.org/fhir/us/cqfmeasures/StructureDefinition/cqfm-isTestCase","valueBoolean":true}],"status":"complete","type":"individual","measure":"https://madie.cms.gov/Measure/CMS190VTEProphylaxisICUFHIR","period":{"start":"2026-01-01","end":"2026-12-31"},"group":[{"population":[{"code":{"coding":[{"system":"http://terminology.hl7.org/CodeSystem/measure-population","code":"initial-population","display":"Initial Population"}]},"count":1},{"code":{"coding":[{"system":"http://terminology.hl7.org/CodeSystem/measure-population","code":"denominator","display":"Denominator"}]},"count":0},{"code":{"coding":[{"system":"http://terminology.hl7.org/CodeSystem/measure-population","code":"denominator-exclusion","display":"Denominator Exclusion"}]},"count":0},{"code":{"coding":[{"system":"http://terminology.hl7.org/CodeSystem/measure-population","code":"numerator","display":"Numerator"}]},"count":0},{"code":{"coding":[{"system":"http://terminology.hl7.org/CodeSystem/measure-population","code":"denominator-exception","display":"Denominator Exception"}]},"count":0}]}]},"request":{"method":"PUT","url":"MeasureReport/b3d3fd40-e326-4f45-8adf-97d8d1dde701"}}]}