{"resourceType":"Bundle","id":"tests-57e2d87e-3b5e-4433-ab6d-6dca03878253-bundle","type":"transaction","entry":[{"fullUrl":"https://madie.cms.gov/Patient/57e2d87e-3b5e-4433-ab6d-6dca03878253","resource":{"resourceType":"Patient","id":"57e2d87e-3b5e-4433-ab6d-6dca03878253","meta":{"profile":["http://hl7.org/fhir/us/qicore/StructureDefinition/qicore-patient"]},"text":{"status":"generated","div":"<div xmlns=\"http://www.w3.org/1999/xhtml\"><div class=\"hapiHeaderText\">RiskAssesOnICUStartAfterAnes <b>NUMERPASS </b></div><table class=\"hapiPropertyTable\"><tbody><tr><td>Identifier</td><td>94254b89a0f145332771ce19c2500535</td></tr><tr><td>Date of birth</td><td><span>03 March 1974</span></td></tr></tbody></table></div>"},"extension":[{"url":"http://hl7.org/fhir/us/core/StructureDefinition/us-core-race","extension":[{"url":"ombCategory","valueCoding":{"system":"urn:oid:2.16.840.1.113883.6.238","code":"1002-5","display":"American Indian or Alaska Native","userSelected":true}},{"url":"text","valueString":"American Indian or Alaska Native"}]},{"url":"http://hl7.org/fhir/us/core/StructureDefinition/us-core-ethnicity","extension":[{"url":"ombCategory","valueCoding":{"system":"urn:oid:2.16.840.1.113883.6.238","code":"2135-2","display":"Hispanic or Latino","userSelected":true}},{"url":"text","valueString":"Hispanic or Latino"}]}],"identifier":[{"type":{"coding":[{"system":"http://terminology.hl7.org/CodeSystem/v2-0203","code":"MR"}]},"system":"https://bonnie-fhir.healthit.gov/","value":"612e6f5502c62a011f2f174b"}],"active":true,"name":[{"use":"usual","family":"NUMERPass","given":["RiskAssesOnICUStartAfterAnes"]}],"gender":"female","birthDate":"1975-03-03"},"request":{"method":"PUT","url":"Patient/57e2d87e-3b5e-4433-ab6d-6dca03878253"}},{"fullUrl":"https://madie.cms.gov/Encounter/715452f0-194d-4ef7-97e1-52c1f5a4b5f0","resource":{"resourceType":"Encounter","id":"715452f0-194d-4ef7-97e1-52c1f5a4b5f0","meta":{"profile":["http://hl7.org/fhir/us/qicore/StructureDefinition/qicore-encounter"]},"status":"finished","class":{"system":"http://terminology.hl7.org/CodeSystem/v3-ActCode","code":"IMP","display":"inpatient encounter"},"type":[{"coding":[{"system":"http://snomed.info/sct","code":"8715000"}]}],"subject":{"reference":"Patient/57e2d87e-3b5e-4433-ab6d-6dca03878253"},"period":{"start":"2026-12-04T08:00:00+00:00","end":"2026-12-30T08:15:00+00:00"},"length":{"value":26.0,"unit":"days"},"location":[{"location":{"reference":"Location/96c2c2fd-467e-48b4-b11c-3390b85aa47b"},"period":{"start":"2026-12-06T08:00:00.000+00:00","end":"2026-12-08T08:15:00.000+00:00"}}]},"request":{"method":"PUT","url":"Encounter/715452f0-194d-4ef7-97e1-52c1f5a4b5f0"}},{"fullUrl":"https://madie.cms.gov/Observation/1012b1cd-3419-41cf-8794-727a577ae7af","resource":{"resourceType":"Observation","id":"1012b1cd-3419-41cf-8794-727a577ae7af","meta":{"profile":["http://hl7.org/fhir/us/qicore/StructureDefinition/qicore-observation"]},"status":"final","category":[{"coding":[{"system":"http://terminology.hl7.org/CodeSystem/observation-category","code":"exam","display":"exam"}]}],"code":{"coding":[{"system":"http://loinc.org","code":"72136-5"}]},"subject":{"reference":"Patient/57e2d87e-3b5e-4433-ab6d-6dca03878253"},"effectiveDateTime":"2026-12-06T08:00:00+00:00","valueCodeableConcept":{"coding":[{"system":"http://snomed.info/sct","code":"260362008","display":"Low Risk"}]}},"request":{"method":"PUT","url":"Observation/1012b1cd-3419-41cf-8794-727a577ae7af"}},{"fullUrl":"https://madie.cms.gov/Coverage/dfe384fb-d57f-40a0-b2b9-51cf63bd0560","resource":{"resourceType":"Coverage","id":"dfe384fb-d57f-40a0-b2b9-51cf63bd0560","status":"active","beneficiary":{"reference":"Patient/57e2d87e-3b5e-4433-ab6d-6dca03878253"},"period":{"start":"1975-03-03T08:00:00+00:00"},"payor":[{"reference":"Organization/607fdef9-3983-4cef-ab1a-95434d29b463"}]},"request":{"method":"PUT","url":"Coverage/dfe384fb-d57f-40a0-b2b9-51cf63bd0560"}},{"fullUrl":"https://madie.cms.gov/Procedure/85195272-3108-4213-b71e-1fcfa5e36092","resource":{"resourceType":"Procedure","id":"85195272-3108-4213-b71e-1fcfa5e36092","meta":{"profile":["http://hl7.org/fhir/us/qicore/StructureDefinition/qicore-procedure"]},"extension":[{"url":"http://hl7.org/fhir/us/qicore/StructureDefinition/qicore-recorded","valueDateTime":"2013-12-06T09:35:00-04:00"}],"status":"completed","code":{"coding":[{"system":"http://www.icd10data.com/icd10pcs","code":"3E030FZ"},{"system":"http://snomed.info/sct","code":"18946005"}]},"subject":{"reference":"Patient/57e2d87e-3b5e-4433-ab6d-6dca03878253"},"performedPeriod":{"start":"2026-12-06T05:00:00+00:00","end":"2026-12-06T05:15:00+00:00"}},"request":{"method":"PUT","url":"Procedure/85195272-3108-4213-b71e-1fcfa5e36092"}},{"fullUrl":"https://madie.cms.gov/Location/96c2c2fd-467e-48b4-b11c-3390b85aa47b","resource":{"resourceType":"Location","id":"96c2c2fd-467e-48b4-b11c-3390b85aa47b","meta":{"profile":["http://hl7.org/fhir/us/qicore/StructureDefinition/qicore-location"]},"identifier":[{"use":"usual","system":"http://exampleoflocation.com","value":"B1-S.F2"}],"name":"Medical Surgical East, first floor","type":[{"coding":[{"system":"https://www.cdc.gov/nhsn/cdaportal/terminology/codesystem/hsloc.html","code":"1025-6","display":"Trauma Critical Care","userSelected":true}]}]},"request":{"method":"PUT","url":"Location/96c2c2fd-467e-48b4-b11c-3390b85aa47b"}},{"fullUrl":"https://madie.cms.gov/Organization/831b1c27-09ac-4627-982e-7f1376fcbe62","resource":{"resourceType":"Organization","id":"607fdef9-3983-4cef-ab1a-95434d29b463","meta":{"profile":["http://hl7.org/fhir/us/qicore/StructureDefinition/qicore-organization"]},"identifier":[{"use":"temp","system":"urn:oid:2.16.840.1.113883.4.4","value":"21-3259825"}],"active":true,"type":[{"coding":[{"system":"http://terminology.hl7.org/CodeSystem/organization-type","code":"pay","display":"Payer"}]}],"name":"Blue Cross Blue Shield of Texas","telecom":[{"system":"phone","value":"(+1) 972-766-6900"}],"address":[{"use":"billing","type":"postal","line":["P.O. Box 660044"],"city":"Dallas","state":"TX","postalCode":"75266-0044","country":"USA"}]},"request":{"method":"PUT","url":"Organization/607fdef9-3983-4cef-ab1a-95434d29b463"}},{"fullUrl":"https://madie.cms.gov/Practitioner/61098b99-021d-44cd-b1e5-f7cb151b39c6","resource":{"resourceType":"Practitioner","id":"61098b99-021d-44cd-b1e5-f7cb151b39c6","identifier":[{"system":"http://hl7.org/fhir/sid/us-npi","value":"123456"}],"name":[{"family":"Evil","prefix":["Dr"]}]},"request":{"method":"PUT","url":"Practitioner/61098b99-021d-44cd-b1e5-f7cb151b39c6"}},{"fullUrl":"https://madie.cms.gov/MeasureReport/c5342b94-d5ee-4161-9fbd-8d24921d7f29","resource":{"resourceType":"MeasureReport","id":"c5342b94-d5ee-4161-9fbd-8d24921d7f29","meta":{"profile":["http://hl7.org/fhir/us/cqfmeasures/StructureDefinition/test-case-cqfm"]},"contained":[{"resourceType":"Parameters","id":"0396dde1-83d8-4f49-9b5d-c317d694aa38-parameters","parameter":[{"name":"subject","valueString":"57e2d87e-3b5e-4433-ab6d-6dca03878253"}]}],"extension":[{"url":"http://hl7.org/fhir/us/cqfmeasures/StructureDefinition/cqfm-inputParameters","valueReference":{"reference":"#0396dde1-83d8-4f49-9b5d-c317d694aa38-parameters"}},{"url":"http://hl7.org/fhir/us/cqfmeasures/StructureDefinition/cqfm-testCaseDescription","valueMarkdown":"vte risk assessment with low risk result concurrent with start of ICU admission and after neuraxial anesthesia\n"}],"modifierExtension":[{"url":"http://hl7.org/fhir/us/cqfmeasures/StructureDefinition/cqfm-isTestCase","valueBoolean":true}],"status":"complete","type":"individual","measure":"https://madie.cms.gov/Measure/CMS190VTEProphylaxisICUFHIR","period":{"start":"2026-01-01","end":"2026-12-31"},"group":[{"population":[{"code":{"coding":[{"system":"http://terminology.hl7.org/CodeSystem/measure-population","code":"initial-population","display":"Initial Population"}]},"count":1},{"code":{"coding":[{"system":"http://terminology.hl7.org/CodeSystem/measure-population","code":"denominator","display":"Denominator"}]},"count":1},{"code":{"coding":[{"system":"http://terminology.hl7.org/CodeSystem/measure-population","code":"denominator-exclusion","display":"Denominator Exclusion"}]},"count":0},{"code":{"coding":[{"system":"http://terminology.hl7.org/CodeSystem/measure-population","code":"numerator","display":"Numerator"}]},"count":1},{"code":{"coding":[{"system":"http://terminology.hl7.org/CodeSystem/measure-population","code":"denominator-exception","display":"Denominator Exception"}]},"count":0}]}]},"request":{"method":"PUT","url":"MeasureReport/c5342b94-d5ee-4161-9fbd-8d24921d7f29"}}]}