{"resourceType":"Bundle","id":"tests-4fc421c7-e490-4d4e-a326-53d08635efb9-bundle","type":"transaction","entry":[{"fullUrl":"https://madie.cms.gov/Patient/4fc421c7-e490-4d4e-a326-53d08635efb9","resource":{"resourceType":"Patient","id":"4fc421c7-e490-4d4e-a326-53d08635efb9","meta":{"profile":["http://hl7.org/fhir/us/qicore/StructureDefinition/qicore-patient"]},"text":{"status":"generated","div":"<div xmlns=\"http://www.w3.org/1999/xhtml\"><div class=\"hapiHeaderText\">MedReasonMARixDAVFPDuringOBS <b>NUMERPASS </b></div><table class=\"hapiPropertyTable\"><tbody><tr><td>Identifier</td><td>d5661b6a7ac7a6b9f13847d23af8475a</td></tr><tr><td>Date of birth</td><td><span>02 January 1974</span></td></tr></tbody></table></div>"},"extension":[{"url":"http://hl7.org/fhir/us/core/StructureDefinition/us-core-race","extension":[{"url":"ombCategory","valueCoding":{"system":"urn:oid:2.16.840.1.113883.6.238","code":"1002-5","display":"American Indian or Alaska Native","userSelected":true}},{"url":"text","valueString":"American Indian or Alaska Native"}]},{"url":"http://hl7.org/fhir/us/core/StructureDefinition/us-core-ethnicity","extension":[{"url":"ombCategory","valueCoding":{"system":"urn:oid:2.16.840.1.113883.6.238","code":"2135-2","display":"Hispanic or Latino","userSelected":true}},{"url":"text","valueString":"Hispanic or Latino"}]}],"identifier":[{"type":{"coding":[{"system":"http://terminology.hl7.org/CodeSystem/v2-0203","code":"MR"}]},"system":"https://bonnie-fhir.healthit.gov/","value":"612e6b8102c62a011f2ee0a5"}],"active":true,"name":[{"use":"usual","family":"NUMERPass","given":["MedReasonMARixDAVFPDuringOBS"]}],"gender":"male","birthDate":"1975-01-02"},"request":{"method":"PUT","url":"Patient/4fc421c7-e490-4d4e-a326-53d08635efb9"}},{"fullUrl":"https://madie.cms.gov/Encounter/3bafdd4f-260f-4993-a513-8330a60866a1","resource":{"resourceType":"Encounter","id":"3bafdd4f-260f-4993-a513-8330a60866a1","meta":{"profile":["http://hl7.org/fhir/us/qicore/StructureDefinition/qicore-encounter"]},"status":"finished","class":{"system":"http://terminology.hl7.org/CodeSystem/v3-ActCode","code":"OBSENC","display":"observation encounter"},"type":[{"coding":[{"system":"http://snomed.info/sct","code":"448951000124107"}]}],"subject":{"reference":"Patient/4fc421c7-e490-4d4e-a326-53d08635efb9"},"period":{"start":"2026-10-31T05:00:00+00:00","end":"2026-11-01T08:00:00+00:00"},"length":{"value":1.0,"unit":"days"}},"request":{"method":"PUT","url":"Encounter/3bafdd4f-260f-4993-a513-8330a60866a1"}},{"fullUrl":"https://madie.cms.gov/Encounter/e9746a7b-b814-48c8-92c7-95e6a732f5f8","resource":{"resourceType":"Encounter","id":"e9746a7b-b814-48c8-92c7-95e6a732f5f8","meta":{"profile":["http://hl7.org/fhir/us/qicore/StructureDefinition/qicore-encounter"]},"status":"finished","class":{"system":"http://terminology.hl7.org/CodeSystem/v3-ActCode","code":"IMP","display":"inpatient encounter"},"type":[{"coding":[{"system":"http://snomed.info/sct","code":"8715000"}]}],"subject":{"reference":"Patient/4fc421c7-e490-4d4e-a326-53d08635efb9"},"period":{"start":"2026-11-01T08:00:00+00:00","end":"2026-11-26T08:15:00+00:00"},"length":{"value":25.0,"unit":"days"},"location":[{"location":{"reference":"Location/11d73a5d-cc80-41d1-8a43-92341aabb863"},"period":{"start":"2026-11-01T09:00:00.000+00:00","end":"2026-11-10T08:15:00.000+00:00"}}]},"request":{"method":"PUT","url":"Encounter/e9746a7b-b814-48c8-92c7-95e6a732f5f8"}},{"fullUrl":"https://madie.cms.gov/Coverage/5013cab5-104c-4c78-8cc9-2082a526a70c","resource":{"resourceType":"Coverage","id":"5013cab5-104c-4c78-8cc9-2082a526a70c","status":"active","beneficiary":{"reference":"Patient/4fc421c7-e490-4d4e-a326-53d08635efb9"},"period":{"start":"1975-01-02T08:00:00+00:00"},"payor":[{"reference":"Organization/3778262e-e084-4bb5-9a47-1a144735f786"}]},"request":{"method":"PUT","url":"Coverage/5013cab5-104c-4c78-8cc9-2082a526a70c"}},{"fullUrl":"https://madie.cms.gov/Procedure/08c4ef4a-ac00-4b70-a986-5dd9e33e98ce","resource":{"resourceType":"Procedure","id":"08c4ef4a-ac00-4b70-a986-5dd9e33e98ce","meta":{"profile":["http://hl7.org/fhir/us/qicore/StructureDefinition/qicore-procedurenotdone"]},"extension":[{"url":"http://hl7.org/fhir/us/qicore/StructureDefinition/qicore-recorded","valueDateTime":"2026-10-31T07:35:00-04:00"}],"status":"not-done","statusReason":{"coding":[{"system":"http://snomed.info/sct","code":"183932001","display":"Procedure contraindicated (situation)","userSelected":true}]},"code":{"coding":[{"system":"http://snomed.info/sct","code":"424831005","display":"Application of foot pump (procedure)","userSelected":true}]},"subject":{"reference":"Patient/4fc421c7-e490-4d4e-a326-53d08635efb9"},"_performedDateTime":{"extension":[{"url":"http://hl7.org/fhir/StructureDefinition/data-absent-reason","valueCode":"not-performed"}]}},"request":{"method":"PUT","url":"Procedure/08c4ef4a-ac00-4b70-a986-5dd9e33e98ce"}},{"fullUrl":"https://madie.cms.gov/MedicationAdministration/259af7eb-36f9-4785-8b5a-c0b041236b02","resource":{"resourceType":"MedicationAdministration","id":"259af7eb-36f9-4785-8b5a-c0b041236b02","meta":{"profile":["http://hl7.org/fhir/us/qicore/StructureDefinition/qicore-mednotadministered"]},"extension":[{"url":"http://hl7.org/fhir/us/qicore/StructureDefinition/qicore-recorded","valueDateTime":"2026-10-31T07:00:00+00:00"}],"status":"not-done","statusReason":[{"coding":[{"system":"http://snomed.info/sct","code":"183932001","display":"Procedure contraindicated (situation)","userSelected":true}]}],"medicationCodeableConcept":{"coding":[{"system":"http://www.nlm.nih.gov/research/umls/rxnorm","code":"2588062","display":"rivaroxaban 1 MG/ML Oral Suspension"}]},"subject":{"reference":"Patient/4fc421c7-e490-4d4e-a326-53d08635efb9"},"effectivePeriod":{"start":"2026-10-31T07:00:00+00:00"}},"request":{"method":"PUT","url":"MedicationAdministration/259af7eb-36f9-4785-8b5a-c0b041236b02"}},{"fullUrl":"https://madie.cms.gov/Location/11d73a5d-cc80-41d1-8a43-92341aabb863","resource":{"resourceType":"Location","id":"11d73a5d-cc80-41d1-8a43-92341aabb863","meta":{"profile":["http://hl7.org/fhir/us/qicore/StructureDefinition/qicore-location"]},"identifier":[{"use":"usual","system":"http://exampleoflocation.com","value":"B1-S.F2"}],"name":"Medical Surgical East, first floor","type":[{"coding":[{"system":"https://www.cdc.gov/nhsn/cdaportal/terminology/codesystem/hsloc.html","code":"1025-6","display":"Trauma Critical Care","userSelected":true}]}]},"request":{"method":"PUT","url":"Location/11d73a5d-cc80-41d1-8a43-92341aabb863"}},{"fullUrl":"https://madie.cms.gov/Organization/99fad059-57d2-417d-8a2c-9c2e5403f28f","resource":{"resourceType":"Organization","id":"3778262e-e084-4bb5-9a47-1a144735f786","meta":{"profile":["http://hl7.org/fhir/us/qicore/StructureDefinition/qicore-organization"]},"identifier":[{"use":"temp","system":"urn:oid:2.16.840.1.113883.4.4","value":"21-3259825"}],"active":true,"type":[{"coding":[{"system":"http://terminology.hl7.org/CodeSystem/organization-type","code":"pay","display":"Payer"}]}],"name":"Blue Cross Blue Shield of Texas","telecom":[{"system":"phone","value":"(+1) 972-766-6900"}],"address":[{"use":"billing","type":"postal","line":["P.O. Box 660044"],"city":"Dallas","state":"TX","postalCode":"75266-0044","country":"USA"}]},"request":{"method":"PUT","url":"Organization/3778262e-e084-4bb5-9a47-1a144735f786"}},{"fullUrl":"https://madie.cms.gov/Practitioner/446f5100-f3d7-4c25-a028-7d9727d9faeb","resource":{"resourceType":"Practitioner","id":"446f5100-f3d7-4c25-a028-7d9727d9faeb","identifier":[{"system":"http://hl7.org/fhir/sid/us-npi","value":"123456"}],"name":[{"family":"Evil","prefix":["Dr"]}]},"request":{"method":"PUT","url":"Practitioner/446f5100-f3d7-4c25-a028-7d9727d9faeb"}},{"fullUrl":"https://madie.cms.gov/MeasureReport/c232ecfd-7391-4145-8d53-99a4cf66ba07","resource":{"resourceType":"MeasureReport","id":"c232ecfd-7391-4145-8d53-99a4cf66ba07","meta":{"profile":["http://hl7.org/fhir/us/cqfmeasures/StructureDefinition/test-case-cqfm"]},"contained":[{"resourceType":"Parameters","id":"3d73adaa-dbe3-43d9-b640-6c18c47b850c-parameters","parameter":[{"name":"subject","valueString":"4fc421c7-e490-4d4e-a326-53d08635efb9"}]}],"extension":[{"url":"http://hl7.org/fhir/us/cqfmeasures/StructureDefinition/cqfm-inputParameters","valueReference":{"reference":"#3d73adaa-dbe3-43d9-b640-6c18c47b850c-parameters"}},{"url":"http://hl7.org/fhir/us/cqfmeasures/StructureDefinition/cqfm-testCaseDescription","valueMarkdown":"meets IPP, meets Denominator, VFP appled not done MedRsn and Riv not done MedRsn - during Observation service"}],"modifierExtension":[{"url":"http://hl7.org/fhir/us/cqfmeasures/StructureDefinition/cqfm-isTestCase","valueBoolean":true}],"status":"complete","type":"individual","measure":"https://madie.cms.gov/Measure/CMS190VTEProphylaxisICUFHIR","period":{"start":"2026-01-01","end":"2026-12-31"},"group":[{"population":[{"code":{"coding":[{"system":"http://terminology.hl7.org/CodeSystem/measure-population","code":"initial-population","display":"Initial Population"}]},"count":1},{"code":{"coding":[{"system":"http://terminology.hl7.org/CodeSystem/measure-population","code":"denominator","display":"Denominator"}]},"count":1},{"code":{"coding":[{"system":"http://terminology.hl7.org/CodeSystem/measure-population","code":"denominator-exclusion","display":"Denominator Exclusion"}]},"count":0},{"code":{"coding":[{"system":"http://terminology.hl7.org/CodeSystem/measure-population","code":"numerator","display":"Numerator"}]},"count":1},{"code":{"coding":[{"system":"http://terminology.hl7.org/CodeSystem/measure-population","code":"denominator-exception","display":"Denominator Exception"}]},"count":0}]}]},"request":{"method":"PUT","url":"MeasureReport/c232ecfd-7391-4145-8d53-99a4cf66ba07"}}]}