{"resourceType":"Bundle","id":"tests-b8e41837-b85a-46d3-b92c-77c24952c52a-bundle","type":"transaction","entry":[{"fullUrl":"https://madie.cms.gov/Patient/b8e41837-b85a-46d3-b92c-77c24952c52a","resource":{"resourceType":"Patient","id":"b8e41837-b85a-46d3-b92c-77c24952c52a","meta":{"profile":["http://hl7.org/fhir/us/qicore/StructureDefinition/qicore-patient"]},"text":{"status":"generated","div":"<div xmlns=\"http://www.w3.org/1999/xhtml\"><div class=\"hapiHeaderText\">HipReplSurgeryEndsLT1DayAfterICUStart <b>DENEXPASS </b></div><table class=\"hapiPropertyTable\"><tbody><tr><td>Identifier</td><td>c86bf4d45e0ace80da93806dc6ebb45b</td></tr><tr><td>Date of birth</td><td><span>03 December 1965</span></td></tr></tbody></table></div>"},"extension":[{"url":"http://hl7.org/fhir/us/core/StructureDefinition/us-core-race","extension":[{"url":"ombCategory","valueCoding":{"system":"urn:oid:2.16.840.1.113883.6.238","code":"1002-5","display":"American Indian or Alaska Native","userSelected":true}},{"url":"text","valueString":"American Indian or Alaska Native"}]},{"url":"http://hl7.org/fhir/us/core/StructureDefinition/us-core-ethnicity","extension":[{"url":"ombCategory","valueCoding":{"system":"urn:oid:2.16.840.1.113883.6.238","code":"2135-2","display":"Hispanic or Latino","userSelected":true}},{"url":"text","valueString":"Hispanic or Latino"}]}],"identifier":[{"type":{"coding":[{"system":"http://terminology.hl7.org/CodeSystem/v2-0203","code":"MR"}]},"system":"https://bonnie-fhir.healthit.gov/","value":"612e6f7502c62a011f2f1ee2"}],"active":true,"name":[{"use":"usual","family":"DENEXPass","given":["HipReplSurgeryEndsLT1DayAfterICUStart"]}],"gender":"female","birthDate":"1966-12-03"},"request":{"method":"PUT","url":"Patient/b8e41837-b85a-46d3-b92c-77c24952c52a"}},{"fullUrl":"https://madie.cms.gov/Encounter/99cef270-2bac-4b22-9c43-31ea9de9f996","resource":{"resourceType":"Encounter","id":"99cef270-2bac-4b22-9c43-31ea9de9f996","meta":{"profile":["http://hl7.org/fhir/us/qicore/StructureDefinition/qicore-encounter"]},"extension":[{"url":"http://hl7.org/fhir/us/qicore/StructureDefinition/qicore-encounter-procedure","extension":[{"url":"type","valueCodeableConcept":{"coding":[{"system":"http://www.cms.gov/Medicare/Coding/ICD10","code":"0SP909Z"}]}},{"url":"rank","valuePositiveInt":1},{"url":"procedure","valueReference":{"reference":"Procedure/bb4ac78a-66e7-49ce-86a5-d506e56a856d"}}]}],"status":"finished","class":{"system":"http://terminology.hl7.org/CodeSystem/v3-ActCode","code":"IMP","display":"inpatient encounter"},"type":[{"coding":[{"system":"http://snomed.info/sct","code":"8715000"}]}],"subject":{"reference":"Patient/b8e41837-b85a-46d3-b92c-77c24952c52a"},"period":{"start":"2026-12-04T08:00:00+00:00","end":"2026-12-30T08:15:00+00:00"},"length":{"value":26.0,"unit":"days"},"location":[{"location":{"reference":"Location/e26f05dc-1ec1-49de-b590-ffe354d9cde3"},"period":{"start":"2026-12-06T08:00:00.000+00:00","end":"2026-12-08T08:15:00.000+00:00"}}]},"request":{"method":"PUT","url":"Encounter/99cef270-2bac-4b22-9c43-31ea9de9f996"}},{"fullUrl":"https://madie.cms.gov/Coverage/d9c38339-42ad-4bb3-acc0-f6609dc19d76","resource":{"resourceType":"Coverage","id":"d9c38339-42ad-4bb3-acc0-f6609dc19d76","status":"active","beneficiary":{"reference":"Patient/b8e41837-b85a-46d3-b92c-77c24952c52a"},"period":{"start":"1975-03-03T08:00:00+00:00"},"payor":[{"reference":"Organization/3e899f33-84eb-4634-a770-a5a0bd7a80e7"}]},"request":{"method":"PUT","url":"Coverage/d9c38339-42ad-4bb3-acc0-f6609dc19d76"}},{"fullUrl":"https://madie.cms.gov/Procedure/bb4ac78a-66e7-49ce-86a5-d506e56a856d","resource":{"resourceType":"Procedure","id":"bb4ac78a-66e7-49ce-86a5-d506e56a856d","meta":{"profile":["http://hl7.org/fhir/us/qicore/StructureDefinition/qicore-procedure"]},"extension":[{"url":"http://hl7.org/fhir/us/qicore/StructureDefinition/qicore-recorded","valueDateTime":"2013-12-07T09:35:00-04:00"}],"status":"completed","code":{"coding":[{"system":"http://www.cms.gov/Medicare/Coding/ICD10","code":"0SP909Z"}]},"subject":{"reference":"Patient/b8e41837-b85a-46d3-b92c-77c24952c52a"},"performedPeriod":{"start":"2026-12-06T06:00:00+00:00","end":"2026-12-06T09:15:00+00:00"}},"request":{"method":"PUT","url":"Procedure/bb4ac78a-66e7-49ce-86a5-d506e56a856d"}},{"fullUrl":"https://madie.cms.gov/Location/e26f05dc-1ec1-49de-b590-ffe354d9cde3","resource":{"resourceType":"Location","id":"e26f05dc-1ec1-49de-b590-ffe354d9cde3","meta":{"profile":["http://hl7.org/fhir/us/qicore/StructureDefinition/qicore-location"]},"identifier":[{"use":"usual","system":"http://exampleoflocation.com","value":"B1-S.F2"}],"name":"Medical Surgical East, first floor","type":[{"coding":[{"system":"https://www.cdc.gov/nhsn/cdaportal/terminology/codesystem/hsloc.html","code":"1025-6","display":"Trauma Critical Care","userSelected":true}]}]},"request":{"method":"PUT","url":"Location/e26f05dc-1ec1-49de-b590-ffe354d9cde3"}},{"fullUrl":"https://madie.cms.gov/Organization/d5deecba-5b56-4626-bb25-220fab1c3309","resource":{"resourceType":"Organization","id":"3e899f33-84eb-4634-a770-a5a0bd7a80e7","meta":{"profile":["http://hl7.org/fhir/us/qicore/StructureDefinition/qicore-organization"]},"identifier":[{"use":"temp","system":"urn:oid:2.16.840.1.113883.4.4","value":"21-3259825"}],"active":true,"type":[{"coding":[{"system":"http://terminology.hl7.org/CodeSystem/organization-type","code":"pay","display":"Payer"}]}],"name":"Blue Cross Blue Shield of Texas","telecom":[{"system":"phone","value":"(+1) 972-766-6900"}],"address":[{"use":"billing","type":"postal","line":["P.O. Box 660044"],"city":"Dallas","state":"TX","postalCode":"75266-0044","country":"USA"}]},"request":{"method":"PUT","url":"Organization/3e899f33-84eb-4634-a770-a5a0bd7a80e7"}},{"fullUrl":"https://madie.cms.gov/Practitioner/31dc7f5c-a867-48b5-986a-a56d09f1f73d","resource":{"resourceType":"Practitioner","id":"31dc7f5c-a867-48b5-986a-a56d09f1f73d","identifier":[{"system":"http://hl7.org/fhir/sid/us-npi","value":"123456"}],"name":[{"family":"Evil","prefix":["Dr"]}]},"request":{"method":"PUT","url":"Practitioner/31dc7f5c-a867-48b5-986a-a56d09f1f73d"}},{"fullUrl":"https://madie.cms.gov/MeasureReport/ca70e0e7-042f-407f-a790-389df905a1c9","resource":{"resourceType":"MeasureReport","id":"ca70e0e7-042f-407f-a790-389df905a1c9","meta":{"profile":["http://hl7.org/fhir/us/cqfmeasures/StructureDefinition/test-case-cqfm"]},"contained":[{"resourceType":"Parameters","id":"8bddf53c-0457-4e1d-a023-dff142f9547b-parameters","parameter":[{"name":"subject","valueString":"b8e41837-b85a-46d3-b92c-77c24952c52a"}]}],"extension":[{"url":"http://hl7.org/fhir/us/cqfmeasures/StructureDefinition/cqfm-inputParameters","valueReference":{"reference":"#8bddf53c-0457-4e1d-a023-dff142f9547b-parameters"}},{"url":"http://hl7.org/fhir/us/cqfmeasures/StructureDefinition/cqfm-testCaseDescription","valueMarkdown":"HipReplSurgeryEnds<1DayAfterICUStart\n"}],"modifierExtension":[{"url":"http://hl7.org/fhir/us/cqfmeasures/StructureDefinition/cqfm-isTestCase","valueBoolean":true}],"status":"complete","type":"individual","measure":"https://madie.cms.gov/Measure/CMS190VTEProphylaxisICUFHIR","period":{"start":"2026-01-01","end":"2026-12-31"},"group":[{"population":[{"code":{"coding":[{"system":"http://terminology.hl7.org/CodeSystem/measure-population","code":"initial-population","display":"Initial Population"}]},"count":1},{"code":{"coding":[{"system":"http://terminology.hl7.org/CodeSystem/measure-population","code":"denominator","display":"Denominator"}]},"count":1},{"code":{"coding":[{"system":"http://terminology.hl7.org/CodeSystem/measure-population","code":"denominator-exclusion","display":"Denominator Exclusion"}]},"count":1},{"code":{"coding":[{"system":"http://terminology.hl7.org/CodeSystem/measure-population","code":"numerator","display":"Numerator"}]},"count":0},{"code":{"coding":[{"system":"http://terminology.hl7.org/CodeSystem/measure-population","code":"denominator-exception","display":"Denominator Exception"}]},"count":0}]}]},"request":{"method":"PUT","url":"MeasureReport/ca70e0e7-042f-407f-a790-389df905a1c9"}}]}