{"resourceType":"Bundle","id":"tests-eea9698a-bf0d-4128-afc2-a646062acbef-bundle","type":"transaction","entry":[{"fullUrl":"https://madie.cms.gov/Patient/eea9698a-bf0d-4128-afc2-a646062acbef","resource":{"resourceType":"Patient","id":"eea9698a-bf0d-4128-afc2-a646062acbef","meta":{"profile":["http://hl7.org/fhir/us/qicore/StructureDefinition/qicore-patient"]},"text":{"status":"generated","div":"<div xmlns=\"http://www.w3.org/1999/xhtml\"><div class=\"hapiHeaderText\">ComfortMeasures1MinB4ICU <b>DENEXPASS </b></div><table class=\"hapiPropertyTable\"><tbody><tr><td>Identifier</td><td>1d0273693925f8e335ce9eb65ed102e1</td></tr><tr><td>Date of birth</td><td><span>03 March 1974</span></td></tr></tbody></table></div>"},"extension":[{"url":"http://hl7.org/fhir/us/core/StructureDefinition/us-core-race","extension":[{"url":"ombCategory","valueCoding":{"system":"urn:oid:2.16.840.1.113883.6.238","code":"1002-5","display":"American Indian or Alaska Native","userSelected":true}},{"url":"text","valueString":"American Indian or Alaska Native"}]},{"url":"http://hl7.org/fhir/us/core/StructureDefinition/us-core-ethnicity","extension":[{"url":"ombCategory","valueCoding":{"system":"urn:oid:2.16.840.1.113883.6.238","code":"2135-2","display":"Hispanic or Latino","userSelected":true}},{"url":"text","valueString":"Hispanic or Latino"}]}],"identifier":[{"type":{"coding":[{"system":"http://terminology.hl7.org/CodeSystem/v2-0203","code":"MR"}]},"system":"https://bonnie-fhir.healthit.gov/","value":"612e6eb302c62a011f2ef479"}],"active":true,"name":[{"use":"usual","family":"DENEXPass","given":["ComfortMeasures1MinB4ICU"]}],"gender":"female","birthDate":"1975-03-03"},"request":{"method":"PUT","url":"Patient/eea9698a-bf0d-4128-afc2-a646062acbef"}},{"fullUrl":"https://madie.cms.gov/Encounter/1a689f35-c243-483c-81a0-fb78d3076e86","resource":{"resourceType":"Encounter","id":"1a689f35-c243-483c-81a0-fb78d3076e86","meta":{"profile":["http://hl7.org/fhir/us/qicore/StructureDefinition/qicore-encounter"]},"status":"finished","class":{"system":"http://terminology.hl7.org/CodeSystem/v3-ActCode","code":"IMP","display":"inpatient encounter"},"type":[{"coding":[{"system":"http://snomed.info/sct","code":"8715000"}]}],"subject":{"reference":"Patient/eea9698a-bf0d-4128-afc2-a646062acbef"},"period":{"start":"2026-12-04T08:00:00.000+00:00","end":"2026-12-30T08:15:00.000+00:00"},"length":{"value":26.0,"unit":"days"},"location":[{"location":{"reference":"Location/fe282ac2-c181-4eb1-bfda-fb24adbf38db"},"period":{"start":"2026-12-04T08:00:00.000+00:00","end":"2026-12-08T08:15:00.000+00:00"}}]},"request":{"method":"PUT","url":"Encounter/1a689f35-c243-483c-81a0-fb78d3076e86"}},{"fullUrl":"https://madie.cms.gov/ServiceRequest/bdc9d89c-29be-499d-bdf7-785337d2799c","resource":{"resourceType":"ServiceRequest","id":"bdc9d89c-29be-499d-bdf7-785337d2799c","meta":{"profile":["http://hl7.org/fhir/us/qicore/StructureDefinition/qicore-servicerequest"]},"status":"completed","intent":"order","code":{"coding":[{"system":"http://snomed.info/sct","code":"133918004"}]},"subject":{"reference":"Patient/eea9698a-bf0d-4128-afc2-a646062acbef"},"authoredOn":"2026-12-04T08:00:00+00:00"},"request":{"method":"PUT","url":"ServiceRequest/bdc9d89c-29be-499d-bdf7-785337d2799c"}},{"fullUrl":"https://madie.cms.gov/Coverage/102bfe13-71d3-4439-9c5c-8c56790bcf1f","resource":{"resourceType":"Coverage","id":"102bfe13-71d3-4439-9c5c-8c56790bcf1f","status":"active","beneficiary":{"reference":"Patient/eea9698a-bf0d-4128-afc2-a646062acbef"},"period":{"start":"1975-03-03T08:00:00+00:00"},"payor":[{"reference":"Organization/3e899f33-84eb-4634-a770-a5a0bd7a80e7"}]},"request":{"method":"PUT","url":"Coverage/102bfe13-71d3-4439-9c5c-8c56790bcf1f"}},{"fullUrl":"https://madie.cms.gov/Location/fe282ac2-c181-4eb1-bfda-fb24adbf38db","resource":{"resourceType":"Location","id":"fe282ac2-c181-4eb1-bfda-fb24adbf38db","meta":{"profile":["http://hl7.org/fhir/us/qicore/StructureDefinition/qicore-location"]},"identifier":[{"use":"usual","system":"http://exampleoflocation.com","value":"B1-S.F2"}],"name":"Medical Surgical East, first floor","type":[{"coding":[{"system":"https://www.cdc.gov/nhsn/cdaportal/terminology/codesystem/hsloc.html","code":"1025-6","display":"Trauma Critical Care","userSelected":true}]}]},"request":{"method":"PUT","url":"Location/fe282ac2-c181-4eb1-bfda-fb24adbf38db"}},{"fullUrl":"https://madie.cms.gov/Organization/af41ec75-c88a-4261-b489-aa16a41908fc","resource":{"resourceType":"Organization","id":"3e899f33-84eb-4634-a770-a5a0bd7a80e7","meta":{"profile":["http://hl7.org/fhir/us/qicore/StructureDefinition/qicore-organization"]},"identifier":[{"use":"temp","system":"urn:oid:2.16.840.1.113883.4.4","value":"21-3259825"}],"active":true,"type":[{"coding":[{"system":"http://terminology.hl7.org/CodeSystem/organization-type","code":"pay","display":"Payer"}]}],"name":"Blue Cross Blue Shield of Texas","telecom":[{"system":"phone","value":"(+1) 972-766-6900"}],"address":[{"use":"billing","type":"postal","line":["P.O. Box 660044"],"city":"Dallas","state":"TX","postalCode":"75266-0044","country":"USA"}]},"request":{"method":"PUT","url":"Organization/3e899f33-84eb-4634-a770-a5a0bd7a80e7"}},{"fullUrl":"https://madie.cms.gov/Practitioner/2db682b3-682c-42e3-a089-f6133f409a58","resource":{"resourceType":"Practitioner","id":"2db682b3-682c-42e3-a089-f6133f409a58","identifier":[{"system":"http://hl7.org/fhir/sid/us-npi","value":"123456"}],"name":[{"family":"Evil","prefix":["Dr"]}]},"request":{"method":"PUT","url":"Practitioner/2db682b3-682c-42e3-a089-f6133f409a58"}},{"fullUrl":"https://madie.cms.gov/MeasureReport/83423ddc-b705-4c56-8b89-4ce086f8b294","resource":{"resourceType":"MeasureReport","id":"83423ddc-b705-4c56-8b89-4ce086f8b294","meta":{"profile":["http://hl7.org/fhir/us/cqfmeasures/StructureDefinition/test-case-cqfm"]},"contained":[{"resourceType":"Parameters","id":"8e87b6ea-2abb-4d5e-91c6-c0a6d38df8d4-parameters","parameter":[{"name":"subject","valueString":"eea9698a-bf0d-4128-afc2-a646062acbef"}]}],"extension":[{"url":"http://hl7.org/fhir/us/cqfmeasures/StructureDefinition/cqfm-inputParameters","valueReference":{"reference":"#8e87b6ea-2abb-4d5e-91c6-c0a6d38df8d4-parameters"}},{"url":"http://hl7.org/fhir/us/cqfmeasures/StructureDefinition/cqfm-testCaseDescription","valueMarkdown":"comfort measures order starts during IP encounter, 1 minute before ICU admission\n"}],"modifierExtension":[{"url":"http://hl7.org/fhir/us/cqfmeasures/StructureDefinition/cqfm-isTestCase","valueBoolean":true}],"status":"complete","type":"individual","measure":"https://madie.cms.gov/Measure/CMS190VTEProphylaxisICUFHIR","period":{"start":"2026-01-01","end":"2026-12-31"},"group":[{"population":[{"code":{"coding":[{"system":"http://terminology.hl7.org/CodeSystem/measure-population","code":"initial-population","display":"Initial Population"}]},"count":1},{"code":{"coding":[{"system":"http://terminology.hl7.org/CodeSystem/measure-population","code":"denominator","display":"Denominator"}]},"count":1},{"code":{"coding":[{"system":"http://terminology.hl7.org/CodeSystem/measure-population","code":"denominator-exclusion","display":"Denominator Exclusion"}]},"count":1},{"code":{"coding":[{"system":"http://terminology.hl7.org/CodeSystem/measure-population","code":"numerator","display":"Numerator"}]},"count":0},{"code":{"coding":[{"system":"http://terminology.hl7.org/CodeSystem/measure-population","code":"denominator-exception","display":"Denominator Exception"}]},"count":0}]}]},"request":{"method":"PUT","url":"MeasureReport/83423ddc-b705-4c56-8b89-4ce086f8b294"}}]}