{"resourceType":"Bundle","id":"tests-e0aacb7e-5624-492a-b744-dd75659d8400-bundle","type":"transaction","entry":[{"fullUrl":"https://madie.cms.gov/Patient/e0aacb7e-5624-492a-b744-dd75659d8400","resource":{"resourceType":"Patient","id":"e0aacb7e-5624-492a-b744-dd75659d8400","meta":{"profile":["http://hl7.org/fhir/us/qicore/StructureDefinition/qicore-patient"]},"text":{"status":"generated","div":"<div xmlns=\"http://www.w3.org/1999/xhtml\"><div class=\"hapiHeaderText\">EncDxObstetrics <b>IPFAIL </b></div><table class=\"hapiPropertyTable\"><tbody><tr><td>Identifier</td><td>73dfd43c47660281c0a5408728e85897</td></tr><tr><td>Date of birth</td><td><span>03 March 1974</span></td></tr></tbody></table></div>"},"extension":[{"url":"http://hl7.org/fhir/us/core/StructureDefinition/us-core-race","extension":[{"url":"ombCategory","valueCoding":{"system":"urn:oid:2.16.840.1.113883.6.238","code":"1002-5","display":"American Indian or Alaska Native","userSelected":true}},{"url":"text","valueString":"American Indian or Alaska Native"}]},{"url":"http://hl7.org/fhir/us/core/StructureDefinition/us-core-ethnicity","extension":[{"url":"ombCategory","valueCoding":{"system":"urn:oid:2.16.840.1.113883.6.238","code":"2186-5","display":"Not Hispanic or Latino","userSelected":true}},{"url":"text","valueString":"Not Hispanic or Latino"}]}],"identifier":[{"type":{"coding":[{"system":"http://terminology.hl7.org/CodeSystem/v2-0203","code":"MR"}]},"system":"https://bonnie-fhir.healthit.gov/","value":"612e6f1402c62a011f2f0ad8"}],"active":true,"name":[{"use":"usual","family":"IPFail","given":["EncDxObstetrics"]}],"gender":"female","birthDate":"1975-03-03"},"request":{"method":"PUT","url":"Patient/e0aacb7e-5624-492a-b744-dd75659d8400"}},{"fullUrl":"https://madie.cms.gov/Encounter/37b26f44-8319-4dca-a676-a251b3d93125","resource":{"resourceType":"Encounter","id":"37b26f44-8319-4dca-a676-a251b3d93125","meta":{"profile":["http://hl7.org/fhir/us/qicore/StructureDefinition/qicore-encounter"]},"status":"finished","class":{"system":"http://terminology.hl7.org/CodeSystem/v3-ActCode","code":"IMP","display":"inpatient encounter"},"type":[{"coding":[{"system":"http://snomed.info/sct","code":"8715000"}]}],"subject":{"reference":"Patient/e0aacb7e-5624-492a-b744-dd75659d8400"},"period":{"start":"2026-12-04T08:00:00+00:00","end":"2026-12-30T08:15:00+00:00"},"length":{"value":26.0,"unit":"days"},"diagnosis":[{"condition":{"reference":"Condition/aa695eb8-28e4-410a-9f2d-0f3b8acc7be7"}}],"location":[{"location":{"reference":"Location/199b6084-9510-4d50-9671-677b4eff85a0"},"period":{"start":"2026-12-06T08:00:00.000+00:00","end":"2026-12-08T08:15:00.000+00:00"}}]},"request":{"method":"PUT","url":"Encounter/37b26f44-8319-4dca-a676-a251b3d93125"}},{"fullUrl":"https://madie.cms.gov/Coverage/68e0620f-e91e-4310-b2ae-bcfc21ab1f47","resource":{"resourceType":"Coverage","id":"68e0620f-e91e-4310-b2ae-bcfc21ab1f47","status":"active","beneficiary":{"reference":"Patient/e0aacb7e-5624-492a-b744-dd75659d8400"},"period":{"start":"1975-03-03T08:00:00+00:00"},"payor":[{"reference":"Organization/db141f66-a1cc-407b-9e95-adac27adee14"}]},"request":{"method":"PUT","url":"Coverage/68e0620f-e91e-4310-b2ae-bcfc21ab1f47"}},{"fullUrl":"https://madie.cms.gov/Condition/aa695eb8-28e4-410a-9f2d-0f3b8acc7be7","resource":{"resourceType":"Condition","id":"aa695eb8-28e4-410a-9f2d-0f3b8acc7be7","meta":{"profile":["http://hl7.org/fhir/us/qicore/StructureDefinition/qicore-condition"]},"category":[{"coding":[{"system":"http://terminology.hl7.org/CodeSystem/condition-category","code":"encounter-diagnosis","display":"Encounter Diagnosis"}]}],"code":{"coding":[{"system":"http://snomed.info/sct","code":"13943000","display":"Failed attempted abortion complicated by embolism (disorder)","userSelected":true}]},"subject":{"reference":"Patient/e0aacb7e-5624-492a-b744-dd75659d8400"},"recordedDate":"2026-09-09T08:00:00.000+00:00"},"request":{"method":"PUT","url":"Condition/aa695eb8-28e4-410a-9f2d-0f3b8acc7be7"}},{"fullUrl":"https://madie.cms.gov/Location/199b6084-9510-4d50-9671-677b4eff85a0","resource":{"resourceType":"Location","id":"199b6084-9510-4d50-9671-677b4eff85a0","meta":{"profile":["http://hl7.org/fhir/us/qicore/StructureDefinition/qicore-location"]},"identifier":[{"use":"usual","system":"http://exampleoflocation.com","value":"B1-S.F2"}],"name":"Medical Surgical East, first floor","type":[{"coding":[{"system":"https://www.cdc.gov/nhsn/cdaportal/terminology/codesystem/hsloc.html","code":"1025-6","display":"Trauma Critical Care","userSelected":true}]}]},"request":{"method":"PUT","url":"Location/199b6084-9510-4d50-9671-677b4eff85a0"}},{"fullUrl":"https://madie.cms.gov/Organization/51860677-c161-4d8a-afe3-7db953fc7f1f","resource":{"resourceType":"Organization","id":"db141f66-a1cc-407b-9e95-adac27adee14","meta":{"profile":["http://hl7.org/fhir/us/qicore/StructureDefinition/qicore-organization"]},"identifier":[{"use":"temp","system":"urn:oid:2.16.840.1.113883.4.4","value":"21-3259825"}],"active":true,"type":[{"coding":[{"system":"http://terminology.hl7.org/CodeSystem/organization-type","code":"pay","display":"Payer"}]}],"name":"Blue Cross Blue Shield of Texas","telecom":[{"system":"phone","value":"(+1) 972-766-6900"}],"address":[{"use":"billing","type":"postal","line":["P.O. Box 660044"],"city":"Dallas","state":"TX","postalCode":"75266-0044","country":"USA"}]},"request":{"method":"PUT","url":"Organization/db141f66-a1cc-407b-9e95-adac27adee14"}},{"fullUrl":"https://madie.cms.gov/Practitioner/992cb602-afc8-47e6-a89b-224c5d9a10fa","resource":{"resourceType":"Practitioner","id":"992cb602-afc8-47e6-a89b-224c5d9a10fa","identifier":[{"system":"http://hl7.org/fhir/sid/us-npi","value":"123456"}],"name":[{"family":"Evil","prefix":["Dr"]}]},"request":{"method":"PUT","url":"Practitioner/992cb602-afc8-47e6-a89b-224c5d9a10fa"}},{"fullUrl":"https://madie.cms.gov/MeasureReport/c02fd249-68f2-41b9-adcf-e55d97c7495e","resource":{"resourceType":"MeasureReport","id":"c02fd249-68f2-41b9-adcf-e55d97c7495e","meta":{"profile":["http://hl7.org/fhir/us/cqfmeasures/StructureDefinition/test-case-cqfm"]},"contained":[{"resourceType":"Parameters","id":"70ce928e-78fc-4cf7-8771-c072b654960b-parameters","parameter":[{"name":"subject","valueString":"e0aacb7e-5624-492a-b744-dd75659d8400"}]}],"extension":[{"url":"http://hl7.org/fhir/us/cqfmeasures/StructureDefinition/cqfm-inputParameters","valueReference":{"reference":"#70ce928e-78fc-4cf7-8771-c072b654960b-parameters"}},{"url":"http://hl7.org/fhir/us/cqfmeasures/StructureDefinition/cqfm-testCaseDescription","valueMarkdown":"Encounter  Inpt Dx of Obstetrics VTE\n"}],"modifierExtension":[{"url":"http://hl7.org/fhir/us/cqfmeasures/StructureDefinition/cqfm-isTestCase","valueBoolean":true}],"status":"complete","type":"individual","measure":"https://madie.cms.gov/Measure/CMS190VTEProphylaxisICUFHIR","period":{"start":"2026-01-01","end":"2026-12-31"},"group":[{"population":[{"code":{"coding":[{"system":"http://terminology.hl7.org/CodeSystem/measure-population","code":"initial-population","display":"Initial Population"}]},"count":0},{"code":{"coding":[{"system":"http://terminology.hl7.org/CodeSystem/measure-population","code":"denominator","display":"Denominator"}]},"count":0},{"code":{"coding":[{"system":"http://terminology.hl7.org/CodeSystem/measure-population","code":"denominator-exclusion","display":"Denominator Exclusion"}]},"count":0},{"code":{"coding":[{"system":"http://terminology.hl7.org/CodeSystem/measure-population","code":"numerator","display":"Numerator"}]},"count":0},{"code":{"coding":[{"system":"http://terminology.hl7.org/CodeSystem/measure-population","code":"denominator-exception","display":"Denominator Exception"}]},"count":0}]}]},"request":{"method":"PUT","url":"MeasureReport/c02fd249-68f2-41b9-adcf-e55d97c7495e"}}]}