{"resourceType":"Bundle","id":"tests-f859dd94-f201-4517-a368-32b98dd486c9-bundle","type":"transaction","entry":[{"fullUrl":"https://madie.cms.gov/Patient/f859dd94-f201-4517-a368-32b98dd486c9","resource":{"resourceType":"Patient","id":"f859dd94-f201-4517-a368-32b98dd486c9","meta":{"profile":["http://hl7.org/fhir/us/qicore/StructureDefinition/qicore-patient"]},"text":{"status":"generated","div":"<div xmlns=\"http://www.w3.org/1999/xhtml\"><div class=\"hapiHeaderText\">MedRsnMAWarfDAIPCDrgEDGT1hrSameDayAdm <b>NUMERPASS </b></div><table class=\"hapiPropertyTable\"><tbody><tr><td>Identifier</td><td>d5661b6a7ac7a6b9f13847d23af8475a</td></tr><tr><td>Date of birth</td><td><span>02 January 1974</span></td></tr></tbody></table></div>"},"extension":[{"url":"http://hl7.org/fhir/us/core/StructureDefinition/us-core-race","extension":[{"url":"ombCategory","valueCoding":{"system":"urn:oid:2.16.840.1.113883.6.238","code":"1002-5","display":"American Indian or Alaska Native","userSelected":true}},{"url":"text","valueString":"American Indian or Alaska Native"}]},{"url":"http://hl7.org/fhir/us/core/StructureDefinition/us-core-ethnicity","extension":[{"url":"ombCategory","valueCoding":{"system":"urn:oid:2.16.840.1.113883.6.238","code":"2135-2","display":"Hispanic or Latino","userSelected":true}},{"url":"text","valueString":"Hispanic or Latino"}]}],"identifier":[{"type":{"coding":[{"system":"http://terminology.hl7.org/CodeSystem/v2-0203","code":"MR"}]},"system":"https://bonnie-fhir.healthit.gov/","value":"612e6b8402c62a011f2ee1d9"}],"active":true,"name":[{"use":"usual","family":"NUMERPass","given":["MedRsnMAWarfDAIPCDrgEDGT1hrSameDayAdm"]}],"gender":"male","birthDate":"1975-01-02"},"request":{"method":"PUT","url":"Patient/f859dd94-f201-4517-a368-32b98dd486c9"}},{"fullUrl":"https://madie.cms.gov/Encounter/7114d939-9288-441e-af87-10de8fd75276","resource":{"resourceType":"Encounter","id":"7114d939-9288-441e-af87-10de8fd75276","meta":{"profile":["http://hl7.org/fhir/us/qicore/StructureDefinition/qicore-encounter"]},"status":"finished","class":{"system":"http://terminology.hl7.org/CodeSystem/v3-ActCode","code":"EMER","display":"emergency"},"type":[{"coding":[{"system":"http://snomed.info/sct","code":"4525004"}]}],"subject":{"reference":"Patient/f859dd94-f201-4517-a368-32b98dd486c9"},"period":{"start":"2026-10-31T04:00:00.000+00:00","end":"2026-11-01T07:15:00.000+00:00"},"length":{"value":1.0,"unit":"days"}},"request":{"method":"PUT","url":"Encounter/7114d939-9288-441e-af87-10de8fd75276"}},{"fullUrl":"https://madie.cms.gov/Encounter/81ec7c1d-d0fd-4225-962d-e128ed411287","resource":{"resourceType":"Encounter","id":"81ec7c1d-d0fd-4225-962d-e128ed411287","meta":{"profile":["http://hl7.org/fhir/us/qicore/StructureDefinition/qicore-encounter"]},"status":"finished","class":{"system":"http://terminology.hl7.org/CodeSystem/v3-ActCode","code":"IMP","display":"inpatient encounter"},"type":[{"coding":[{"system":"http://snomed.info/sct","code":"8715000"}]}],"subject":{"reference":"Patient/f859dd94-f201-4517-a368-32b98dd486c9"},"period":{"start":"2026-11-01T10:00:00.000+00:00","end":"2026-11-04T05:00:00.000+00:00"},"length":{"value":25.0,"unit":"days"},"location":[{"location":{"reference":"Location/56d93b75-be51-43ca-bba8-135d32ea6e6b"},"period":{"start":"2026-11-01T10:30:00.000+00:00","end":"2026-11-02T08:15:00.000+00:00"}}]},"request":{"method":"PUT","url":"Encounter/81ec7c1d-d0fd-4225-962d-e128ed411287"}},{"fullUrl":"https://madie.cms.gov/Coverage/c8f098a0-e4f9-4e36-9c86-8906092f990e","resource":{"resourceType":"Coverage","id":"c8f098a0-e4f9-4e36-9c86-8906092f990e","status":"active","beneficiary":{"reference":"Patient/f859dd94-f201-4517-a368-32b98dd486c9"},"period":{"start":"1975-01-02T08:00:00+00:00"},"payor":[{"reference":"Organization/f7da4368-fb6d-4d73-a75b-f78024cbb18d"}]},"request":{"method":"PUT","url":"Coverage/c8f098a0-e4f9-4e36-9c86-8906092f990e"}},{"fullUrl":"https://madie.cms.gov/Location/56d93b75-be51-43ca-bba8-135d32ea6e6b","resource":{"resourceType":"Location","id":"56d93b75-be51-43ca-bba8-135d32ea6e6b","meta":{"profile":["http://hl7.org/fhir/us/qicore/StructureDefinition/qicore-location"]},"identifier":[{"use":"usual","system":"http://exampleoflocation.com","value":"B1-S.F2"}],"name":"Medical Surgical East, first floor","type":[{"coding":[{"system":"https://www.cdc.gov/nhsn/cdaportal/terminology/codesystem/hsloc.html","code":"1025-6","display":"Trauma Critical Care","userSelected":true}]}]},"request":{"method":"PUT","url":"Location/56d93b75-be51-43ca-bba8-135d32ea6e6b"}},{"fullUrl":"https://madie.cms.gov/Procedure/95afe4cb-fb52-4967-bc1e-83f1ec35569f","resource":{"resourceType":"Procedure","id":"95afe4cb-fb52-4967-bc1e-83f1ec35569f","meta":{"profile":["http://hl7.org/fhir/us/qicore/StructureDefinition/qicore-procedurenotdone"]},"extension":[{"url":"http://hl7.org/fhir/us/qicore/StructureDefinition/qicore-recorded","valueDateTime":"2026-11-01T06:35:00-04:00"}],"status":"not-done","statusReason":{"coding":[{"system":"http://snomed.info/sct","code":"183932001","display":"Procedure contraindicated (situation)","userSelected":true}]},"code":{"coding":[{"system":"http://snomed.info/sct","code":"443448006","display":"Application of intermittent pneumatic compression device (procedure)","userSelected":true}]},"subject":{"reference":"Patient/f859dd94-f201-4517-a368-32b98dd486c9"},"_performedDateTime":{"extension":[{"url":"http://hl7.org/fhir/StructureDefinition/data-absent-reason","valueCode":"not-performed"}]}},"request":{"method":"PUT","url":"Procedure/95afe4cb-fb52-4967-bc1e-83f1ec35569f"}},{"fullUrl":"https://madie.cms.gov/MedicationAdministration/30a4f800-7b1f-40f3-a04e-8c7530c98725","resource":{"resourceType":"MedicationAdministration","id":"30a4f800-7b1f-40f3-a04e-8c7530c98725","meta":{"profile":["http://hl7.org/fhir/us/qicore/StructureDefinition/qicore-mednotadministered"]},"extension":[{"url":"http://hl7.org/fhir/us/qicore/StructureDefinition/qicore-recorded","valueDateTime":"2026-11-01T06:00:00+00:00"}],"status":"not-done","statusReason":[{"coding":[{"system":"http://snomed.info/sct","code":"183932001","display":"Procedure contraindicated (situation)","userSelected":true}]}],"medicationCodeableConcept":{"coding":[{"system":"http://www.nlm.nih.gov/research/umls/rxnorm","code":"855288"}]},"subject":{"reference":"Patient/f859dd94-f201-4517-a368-32b98dd486c9"},"effectivePeriod":{"start":"2026-11-01T07:00:00+00:00"}},"request":{"method":"PUT","url":"MedicationAdministration/30a4f800-7b1f-40f3-a04e-8c7530c98725"}},{"fullUrl":"https://madie.cms.gov/Organization/00075252-983d-4833-a1b6-51976c9a3344","resource":{"resourceType":"Organization","id":"f7da4368-fb6d-4d73-a75b-f78024cbb18d","meta":{"profile":["http://hl7.org/fhir/us/qicore/StructureDefinition/qicore-organization"]},"identifier":[{"use":"temp","system":"urn:oid:2.16.840.1.113883.4.4","value":"21-3259825"}],"active":true,"type":[{"coding":[{"system":"http://terminology.hl7.org/CodeSystem/organization-type","code":"pay","display":"Payer"}]}],"name":"Blue Cross Blue Shield of Texas","telecom":[{"system":"phone","value":"(+1) 972-766-6900"}],"address":[{"use":"billing","type":"postal","line":["P.O. Box 660044"],"city":"Dallas","state":"TX","postalCode":"75266-0044","country":"USA"}]},"request":{"method":"PUT","url":"Organization/f7da4368-fb6d-4d73-a75b-f78024cbb18d"}},{"fullUrl":"https://madie.cms.gov/Practitioner/4bc960a1-119f-4856-93c2-4cdbab24ca50","resource":{"resourceType":"Practitioner","id":"4bc960a1-119f-4856-93c2-4cdbab24ca50","identifier":[{"system":"http://hl7.org/fhir/sid/us-npi","value":"123456"}],"name":[{"family":"Evil","prefix":["Dr"]}]},"request":{"method":"PUT","url":"Practitioner/4bc960a1-119f-4856-93c2-4cdbab24ca50"}},{"fullUrl":"https://madie.cms.gov/MeasureReport/87e640e7-613c-43aa-a6c1-71a861b06410","resource":{"resourceType":"MeasureReport","id":"87e640e7-613c-43aa-a6c1-71a861b06410","meta":{"profile":["http://hl7.org/fhir/us/cqfmeasures/StructureDefinition/test-case-cqfm"]},"contained":[{"resourceType":"Parameters","id":"7b34baeb-4a69-410b-9855-936e50ac7aff-parameters","parameter":[{"name":"subject","valueString":"f859dd94-f201-4517-a368-32b98dd486c9"}]}],"extension":[{"url":"http://hl7.org/fhir/us/cqfmeasures/StructureDefinition/cqfm-inputParameters","valueReference":{"reference":"#7b34baeb-4a69-410b-9855-936e50ac7aff-parameters"}},{"url":"http://hl7.org/fhir/us/cqfmeasures/StructureDefinition/cqfm-testCaseDescription","valueMarkdown":"meets IPP, meets Denominator, IPC applied not done MedRsn and Warfarin admin not done PatRfsl - during ED but ED > 1 hr before adm time, but it is on the same day as Adm date\n\"\n"}],"modifierExtension":[{"url":"http://hl7.org/fhir/us/cqfmeasures/StructureDefinition/cqfm-isTestCase","valueBoolean":true}],"status":"complete","type":"individual","measure":"https://madie.cms.gov/Measure/CMS190VTEProphylaxisICUFHIR","period":{"start":"2026-01-01","end":"2026-12-31"},"group":[{"population":[{"code":{"coding":[{"system":"http://terminology.hl7.org/CodeSystem/measure-population","code":"initial-population","display":"Initial Population"}]},"count":1},{"code":{"coding":[{"system":"http://terminology.hl7.org/CodeSystem/measure-population","code":"denominator","display":"Denominator"}]},"count":1},{"code":{"coding":[{"system":"http://terminology.hl7.org/CodeSystem/measure-population","code":"denominator-exclusion","display":"Denominator Exclusion"}]},"count":0},{"code":{"coding":[{"system":"http://terminology.hl7.org/CodeSystem/measure-population","code":"numerator","display":"Numerator"}]},"count":1},{"code":{"coding":[{"system":"http://terminology.hl7.org/CodeSystem/measure-population","code":"denominator-exception","display":"Denominator Exception"}]},"count":0}]}]},"request":{"method":"PUT","url":"MeasureReport/87e640e7-613c-43aa-a6c1-71a861b06410"}}]}