{"resourceType":"Bundle","id":"tests-769b9fe2-bc63-4e59-8b42-703c98fe22b7-bundle","type":"transaction","entry":[{"fullUrl":"https://madie.cms.gov/Patient/769b9fe2-bc63-4e59-8b42-703c98fe22b7","resource":{"resourceType":"Patient","id":"769b9fe2-bc63-4e59-8b42-703c98fe22b7","meta":{"profile":["http://hl7.org/fhir/us/qicore/StructureDefinition/qicore-patient"]},"text":{"status":"generated","div":"<div xmlns=\"http://www.w3.org/1999/xhtml\"><div class=\"hapiHeaderText\">1LOSLT1DayICU2ndICULOSGT1Day <b>DENOMPASS </b></div><table class=\"hapiPropertyTable\"><tbody><tr><td>Identifier</td><td>6d76be9baa47bc8df50fa14784b8bb58</td></tr><tr><td>Date of birth</td><td><span>03 March 1974</span></td></tr></tbody></table></div>"},"extension":[{"url":"http://hl7.org/fhir/us/core/StructureDefinition/us-core-race","extension":[{"url":"ombCategory","valueCoding":{"system":"urn:oid:2.16.840.1.113883.6.238","code":"1002-5","display":"American Indian or Alaska Native","userSelected":true}},{"url":"text","valueString":"American Indian or Alaska Native"}]},{"url":"http://hl7.org/fhir/us/core/StructureDefinition/us-core-ethnicity","extension":[{"url":"ombCategory","valueCoding":{"system":"urn:oid:2.16.840.1.113883.6.238","code":"2135-2","display":"Hispanic or Latino","userSelected":true}},{"url":"text","valueString":"Hispanic or Latino"}]}],"identifier":[{"type":{"coding":[{"system":"http://terminology.hl7.org/CodeSystem/v2-0203","code":"MR"}]},"system":"https://bonnie-fhir.healthit.gov/","value":"612e6ead02c62a011f2ef3a8"}],"active":true,"name":[{"use":"usual","family":"DENOMPass","given":["1LOSLT1DayICU2ndICULOSGT1Day"]}],"gender":"female","birthDate":"1975-03-03"},"request":{"method":"PUT","url":"Patient/769b9fe2-bc63-4e59-8b42-703c98fe22b7"}},{"fullUrl":"https://madie.cms.gov/Encounter/a5f9953b-0ae1-4a52-848c-78107785d29d","resource":{"resourceType":"Encounter","id":"a5f9953b-0ae1-4a52-848c-78107785d29d","meta":{"profile":["http://hl7.org/fhir/us/qicore/StructureDefinition/qicore-encounter"]},"status":"finished","class":{"system":"http://terminology.hl7.org/CodeSystem/v3-ActCode","code":"IMP","display":"inpatient encounter"},"type":[{"coding":[{"system":"http://snomed.info/sct","code":"8715000","display":"Hospital admission, elective (procedure)"}]}],"subject":{"reference":"Patient/769b9fe2-bc63-4e59-8b42-703c98fe22b7"},"period":{"start":"2026-12-04T08:00:00+00:00","end":"2026-12-30T08:15:00+00:00"},"length":{"value":26.0,"unit":"days"},"location":[{"location":{"reference":"Location/8447f9be-5e1c-49c5-adff-2fa7540e62e7"},"period":{"start":"2026-12-06T08:00:00.000+00:00","end":"2026-12-06T18:15:00.000+00:00"}},{"location":{"reference":"Location/ce53737e-dacd-4c5a-ba6c-2d4c59bacb60"},"period":{"start":"2026-12-23T08:00:00.000+00:00","end":"2026-12-27T08:15:00.000+00:00"}}]},"request":{"method":"PUT","url":"Encounter/a5f9953b-0ae1-4a52-848c-78107785d29d"}},{"fullUrl":"https://madie.cms.gov/MedicationAdministration/e94746b9-67e4-4bc6-960d-f95f2e602331","resource":{"resourceType":"MedicationAdministration","id":"e94746b9-67e4-4bc6-960d-f95f2e602331","meta":{"profile":["http://hl7.org/fhir/us/qicore/StructureDefinition/qicore-medicationadministration"]},"status":"completed","medicationCodeableConcept":{"coding":[{"system":"http://www.nlm.nih.gov/research/umls/rxnorm","code":"861356"}]},"subject":{"reference":"Patient/769b9fe2-bc63-4e59-8b42-703c98fe22b7"},"effectiveDateTime":"2026-12-31T08:05:00+00:00"},"request":{"method":"PUT","url":"MedicationAdministration/e94746b9-67e4-4bc6-960d-f95f2e602331"}},{"fullUrl":"https://madie.cms.gov/Coverage/c7bc98af-8d8b-435d-af09-5f90c7c79c97","resource":{"resourceType":"Coverage","id":"c7bc98af-8d8b-435d-af09-5f90c7c79c97","status":"active","beneficiary":{"reference":"Patient/769b9fe2-bc63-4e59-8b42-703c98fe22b7"},"period":{"start":"1975-03-03T08:00:00+00:00"},"payor":[{"reference":"Organization/f4907415-83c5-4eae-ab0b-cb63a840880d"}]},"request":{"method":"PUT","url":"Coverage/c7bc98af-8d8b-435d-af09-5f90c7c79c97"}},{"fullUrl":"https://madie.cms.gov/Location/8447f9be-5e1c-49c5-adff-2fa7540e62e7","resource":{"resourceType":"Location","id":"8447f9be-5e1c-49c5-adff-2fa7540e62e7","meta":{"profile":["http://hl7.org/fhir/us/qicore/StructureDefinition/qicore-location"]},"identifier":[{"use":"usual","system":"http://exampleoflocation.com","value":"B1-S.F2"}],"name":"Medical Surgical East, first floor","type":[{"coding":[{"system":"https://www.cdc.gov/nhsn/cdaportal/terminology/codesystem/hsloc.html","version":"2020","code":"1025-6","display":"Trauma Critical Care","userSelected":true}]}]},"request":{"method":"PUT","url":"Location/8447f9be-5e1c-49c5-adff-2fa7540e62e7"}},{"fullUrl":"https://madie.cms.gov/Location/ce53737e-dacd-4c5a-ba6c-2d4c59bacb60","resource":{"resourceType":"Location","id":"ce53737e-dacd-4c5a-ba6c-2d4c59bacb60","meta":{"profile":["http://hl7.org/fhir/us/qicore/StructureDefinition/qicore-location"]},"identifier":[{"use":"usual","system":"http://exampleoflocation.com","value":"A1-S.F2"}],"name":"Medical Surgical West, first floor","type":[{"coding":[{"system":"https://www.cdc.gov/nhsn/cdaportal/terminology/codesystem/hsloc.html","version":"2020","code":"1025-6","display":"Trauma Critical Care","userSelected":true}]}]},"request":{"method":"PUT","url":"Location/ce53737e-dacd-4c5a-ba6c-2d4c59bacb60"}},{"fullUrl":"https://madie.cms.gov/Organization/a2d2ad7d-d0f2-4a05-a857-faa015d0a4e5","resource":{"resourceType":"Organization","id":"f4907415-83c5-4eae-ab0b-cb63a840880d","meta":{"profile":["http://hl7.org/fhir/us/qicore/StructureDefinition/qicore-organization"]},"identifier":[{"use":"temp","system":"urn:oid:2.16.840.1.113883.4.4","value":"21-3259825"}],"active":true,"type":[{"coding":[{"system":"http://terminology.hl7.org/CodeSystem/organization-type","code":"pay","display":"Payer"}]}],"name":"Blue Cross Blue Shield of Texas","telecom":[{"system":"phone","value":"(+1) 972-766-6900"}],"address":[{"use":"billing","type":"postal","line":["P.O. Box 660044"],"city":"Dallas","state":"TX","postalCode":"75266-0044","country":"USA"}]},"request":{"method":"PUT","url":"Organization/f4907415-83c5-4eae-ab0b-cb63a840880d"}},{"fullUrl":"https://madie.cms.gov/MeasureReport/6ddac2f3-2da1-4b6a-9ed4-ad259b7bdd17","resource":{"resourceType":"MeasureReport","id":"6ddac2f3-2da1-4b6a-9ed4-ad259b7bdd17","meta":{"profile":["http://hl7.org/fhir/us/cqfmeasures/StructureDefinition/test-case-cqfm"]},"contained":[{"resourceType":"Parameters","id":"6fa6b3ed-d07e-4a25-84aa-3935c43cf890-parameters","parameter":[{"name":"subject","valueString":"769b9fe2-bc63-4e59-8b42-703c98fe22b7"}]}],"extension":[{"url":"http://hl7.org/fhir/us/cqfmeasures/StructureDefinition/cqfm-inputParameters","valueReference":{"reference":"#6fa6b3ed-d07e-4a25-84aa-3935c43cf890-parameters"}},{"url":"http://hl7.org/fhir/us/cqfmeasures/StructureDefinition/cqfm-testCaseDescription","valueMarkdown":"denominator exception for the first  ICU LOS < 1 day and 2nd is > 1 day\n"}],"modifierExtension":[{"url":"http://hl7.org/fhir/us/cqfmeasures/StructureDefinition/cqfm-isTestCase","valueBoolean":true}],"status":"complete","type":"individual","measure":"https://madie.cms.gov/Measure/CMS190VTEProphylaxisICUFHIR","period":{"start":"2026-01-01","end":"2026-12-31"},"group":[{"population":[{"code":{"coding":[{"system":"http://terminology.hl7.org/CodeSystem/measure-population","code":"initial-population","display":"Initial Population"}]},"count":1},{"code":{"coding":[{"system":"http://terminology.hl7.org/CodeSystem/measure-population","code":"denominator","display":"Denominator"}]},"count":1},{"code":{"coding":[{"system":"http://terminology.hl7.org/CodeSystem/measure-population","code":"denominator-exclusion","display":"Denominator Exclusion"}]},"count":0},{"code":{"coding":[{"system":"http://terminology.hl7.org/CodeSystem/measure-population","code":"numerator","display":"Numerator"}]},"count":0},{"code":{"coding":[{"system":"http://terminology.hl7.org/CodeSystem/measure-population","code":"denominator-exception","display":"Denominator Exception"}]},"count":1}]}]},"request":{"method":"PUT","url":"MeasureReport/6ddac2f3-2da1-4b6a-9ed4-ad259b7bdd17"}}]}