{"resourceType":"Bundle","id":"tests-1242acd7-1a2b-4588-8d23-ea4f3dc1e0d5-bundle","type":"transaction","entry":[{"fullUrl":"https://madie.cms.gov/Patient/1242acd7-1a2b-4588-8d23-ea4f3dc1e0d5","resource":{"resourceType":"Patient","id":"1242acd7-1a2b-4588-8d23-ea4f3dc1e0d5","meta":{"profile":["http://hl7.org/fhir/us/qicore/StructureDefinition/qicore-patient"]},"text":{"status":"generated","div":"<div xmlns=\"http://www.w3.org/1999/xhtml\"><div class=\"hapiHeaderText\">UrologicalSurgeryNotPrin <b>DENEXFAIL </b></div><table class=\"hapiPropertyTable\"><tbody><tr><td>Identifier</td><td>134283073c75bbb3c7689c5516f3a169</td></tr><tr><td>Date of birth</td><td><span>03 March 1974</span></td></tr></tbody></table></div>"},"extension":[{"url":"http://hl7.org/fhir/us/core/StructureDefinition/us-core-race","extension":[{"url":"ombCategory","valueCoding":{"system":"urn:oid:2.16.840.1.113883.6.238","code":"1002-5","display":"American Indian or Alaska Native","userSelected":true}},{"url":"text","valueString":"American Indian or Alaska Native"}]},{"url":"http://hl7.org/fhir/us/core/StructureDefinition/us-core-ethnicity","extension":[{"url":"ombCategory","valueCoding":{"system":"urn:oid:2.16.840.1.113883.6.238","code":"2135-2","display":"Hispanic or Latino","userSelected":true}},{"url":"text","valueString":"Hispanic or Latino"}]}],"identifier":[{"type":{"coding":[{"system":"http://terminology.hl7.org/CodeSystem/v2-0203","code":"MR"}]},"system":"https://bonnie-fhir.healthit.gov/","value":"612e6e9602c62a011f2eef45"}],"active":true,"name":[{"use":"usual","family":"DENEXFail","given":["UrologicalSurgeryNotPrin"]}],"gender":"female","birthDate":"1975-03-03"},"request":{"method":"PUT","url":"Patient/1242acd7-1a2b-4588-8d23-ea4f3dc1e0d5"}},{"fullUrl":"https://madie.cms.gov/Encounter/1e1620f0-f34d-4b10-8430-9c0004c82dea","resource":{"resourceType":"Encounter","id":"1e1620f0-f34d-4b10-8430-9c0004c82dea","meta":{"profile":["http://hl7.org/fhir/us/qicore/StructureDefinition/qicore-encounter"]},"status":"finished","class":{"system":"http://terminology.hl7.org/CodeSystem/v3-ActCode","code":"IMP","display":"inpatient encounter"},"type":[{"coding":[{"system":"http://snomed.info/sct","code":"8715000"}]}],"subject":{"reference":"Patient/1242acd7-1a2b-4588-8d23-ea4f3dc1e0d5"},"period":{"start":"2026-12-04T08:00:00+00:00","end":"2026-12-30T08:15:00+00:00"},"length":{"value":26.0,"unit":"days"},"location":[{"location":{"reference":"Location/e8429f42-ea23-4a16-97fa-3841720692e7"},"period":{"start":"2026-12-06T08:00:00.000+00:00","end":"2026-12-08T08:15:00.000+00:00"}}]},"request":{"method":"PUT","url":"Encounter/1e1620f0-f34d-4b10-8430-9c0004c82dea"}},{"fullUrl":"https://madie.cms.gov/Coverage/2a37830a-e3dd-43d3-b27b-fbb4511f366b","resource":{"resourceType":"Coverage","id":"2a37830a-e3dd-43d3-b27b-fbb4511f366b","status":"active","beneficiary":{"reference":"Patient/1242acd7-1a2b-4588-8d23-ea4f3dc1e0d5"},"period":{"start":"1975-03-03T08:00:00+00:00"},"payor":[{"reference":"Organization/890316dc-a4ad-43b4-ba6f-9fb9e6eca282"}]},"request":{"method":"PUT","url":"Coverage/2a37830a-e3dd-43d3-b27b-fbb4511f366b"}},{"fullUrl":"https://madie.cms.gov/Procedure/d69092ab-3b0f-4e3d-9942-4ba130511e01","resource":{"resourceType":"Procedure","id":"d69092ab-3b0f-4e3d-9942-4ba130511e01","meta":{"profile":["http://hl7.org/fhir/us/qicore/StructureDefinition/qicore-procedure"]},"extension":[{"url":"http://hl7.org/fhir/us/qicore/StructureDefinition/qicore-recorded","valueDateTime":"2013-12-06T09:35:00-04:00"}],"status":"completed","code":{"coding":[{"system":"http://snomed.info/sct","code":"533005"}]},"subject":{"reference":"Patient/1242acd7-1a2b-4588-8d23-ea4f3dc1e0d5"},"performedPeriod":{"start":"2026-12-06T08:15:00+00:00","end":"2026-12-06T11:15:00+00:00"}},"request":{"method":"PUT","url":"Procedure/d69092ab-3b0f-4e3d-9942-4ba130511e01"}},{"fullUrl":"https://madie.cms.gov/Location/e8429f42-ea23-4a16-97fa-3841720692e7","resource":{"resourceType":"Location","id":"e8429f42-ea23-4a16-97fa-3841720692e7","meta":{"profile":["http://hl7.org/fhir/us/qicore/StructureDefinition/qicore-location"]},"identifier":[{"use":"usual","system":"http://exampleoflocation.com","value":"B1-S.F2"}],"name":"Medical Surgical East, first floor","type":[{"coding":[{"system":"https://www.cdc.gov/nhsn/cdaportal/terminology/codesystem/hsloc.html","code":"1025-6","display":"Trauma Critical Care","userSelected":true}]}]},"request":{"method":"PUT","url":"Location/e8429f42-ea23-4a16-97fa-3841720692e7"}},{"fullUrl":"https://madie.cms.gov/Organization/eef0014b-c38d-4e4a-99d9-2f297e627daf","resource":{"resourceType":"Organization","id":"890316dc-a4ad-43b4-ba6f-9fb9e6eca282","meta":{"profile":["http://hl7.org/fhir/us/qicore/StructureDefinition/qicore-organization"]},"identifier":[{"use":"temp","system":"urn:oid:2.16.840.1.113883.4.4","value":"21-3259825"}],"active":true,"type":[{"coding":[{"system":"http://terminology.hl7.org/CodeSystem/organization-type","code":"pay","display":"Payer"}]}],"name":"Blue Cross Blue Shield of Texas","telecom":[{"system":"phone","value":"(+1) 972-766-6900"}],"address":[{"use":"billing","type":"postal","line":["P.O. Box 660044"],"city":"Dallas","state":"TX","postalCode":"75266-0044","country":"USA"}]},"request":{"method":"PUT","url":"Organization/890316dc-a4ad-43b4-ba6f-9fb9e6eca282"}},{"fullUrl":"https://madie.cms.gov/Practitioner/b099db00-48c9-46d1-975f-9d29b811ec04","resource":{"resourceType":"Practitioner","id":"b099db00-48c9-46d1-975f-9d29b811ec04","identifier":[{"system":"http://hl7.org/fhir/sid/us-npi","value":"123456"}],"name":[{"family":"Evil","prefix":["Dr"]}]},"request":{"method":"PUT","url":"Practitioner/b099db00-48c9-46d1-975f-9d29b811ec04"}},{"fullUrl":"https://madie.cms.gov/MeasureReport/af4324e9-3c9f-44bb-80f8-121bb069202c","resource":{"resourceType":"MeasureReport","id":"af4324e9-3c9f-44bb-80f8-121bb069202c","meta":{"profile":["http://hl7.org/fhir/us/cqfmeasures/StructureDefinition/test-case-cqfm"]},"contained":[{"resourceType":"Parameters","id":"a5e53812-87ca-4282-807b-55467e79e2d5-parameters","parameter":[{"name":"subject","valueString":"1242acd7-1a2b-4588-8d23-ea4f3dc1e0d5"}]}],"extension":[{"url":"http://hl7.org/fhir/us/cqfmeasures/StructureDefinition/cqfm-inputParameters","valueReference":{"reference":"#a5e53812-87ca-4282-807b-55467e79e2d5-parameters"}},{"url":"http://hl7.org/fhir/us/cqfmeasures/StructureDefinition/cqfm-testCaseDescription","valueMarkdown":"Px urological surgery not principal\n"}],"modifierExtension":[{"url":"http://hl7.org/fhir/us/cqfmeasures/StructureDefinition/cqfm-isTestCase","valueBoolean":true}],"status":"complete","type":"individual","measure":"https://madie.cms.gov/Measure/CMS190VTEProphylaxisICUFHIR","period":{"start":"2026-01-01","end":"2026-12-31"},"group":[{"population":[{"code":{"coding":[{"system":"http://terminology.hl7.org/CodeSystem/measure-population","code":"initial-population","display":"Initial Population"}]},"count":1},{"code":{"coding":[{"system":"http://terminology.hl7.org/CodeSystem/measure-population","code":"denominator","display":"Denominator"}]},"count":1},{"code":{"coding":[{"system":"http://terminology.hl7.org/CodeSystem/measure-population","code":"denominator-exclusion","display":"Denominator Exclusion"}]},"count":0},{"code":{"coding":[{"system":"http://terminology.hl7.org/CodeSystem/measure-population","code":"numerator","display":"Numerator"}]},"count":0},{"code":{"coding":[{"system":"http://terminology.hl7.org/CodeSystem/measure-population","code":"denominator-exception","display":"Denominator Exception"}]},"count":0}]}]},"request":{"method":"PUT","url":"MeasureReport/af4324e9-3c9f-44bb-80f8-121bb069202c"}}]}