{"resourceType":"Bundle","id":"tests-11bcf672-9a14-4e4f-9238-39007fc6a00b-bundle","type":"transaction","entry":[{"fullUrl":"https://madie.cms.gov/Patient/11bcf672-9a14-4e4f-9238-39007fc6a00b","resource":{"resourceType":"Patient","id":"11bcf672-9a14-4e4f-9238-39007fc6a00b","meta":{"profile":["http://hl7.org/fhir/us/qicore/StructureDefinition/qicore-patient"]},"text":{"status":"generated","div":"<div xmlns=\"http://www.w3.org/1999/xhtml\"><div class=\"hapiHeaderText\">FactorXaAfterICUAnesKnee <b>NUMERPASS </b></div><table class=\"hapiPropertyTable\"><tbody><tr><td>Identifier</td><td>8693e02c1b94abdc9b9428b41412eae6</td></tr><tr><td>Date of birth</td><td><span>03 March 1974</span></td></tr></tbody></table></div>"},"extension":[{"url":"http://hl7.org/fhir/us/core/StructureDefinition/us-core-race","extension":[{"url":"ombCategory","valueCoding":{"system":"urn:oid:2.16.840.1.113883.6.238","code":"1002-5","display":"American Indian or Alaska Native","userSelected":true}},{"url":"text","valueString":"American Indian or Alaska Native"}]},{"url":"http://hl7.org/fhir/us/core/StructureDefinition/us-core-ethnicity","extension":[{"url":"ombCategory","valueCoding":{"system":"urn:oid:2.16.840.1.113883.6.238","code":"2135-2","display":"Hispanic or Latino","userSelected":true}},{"url":"text","valueString":"Hispanic or Latino"}]}],"identifier":[{"type":{"coding":[{"system":"http://terminology.hl7.org/CodeSystem/v2-0203","code":"MR"}]},"system":"https://bonnie-fhir.healthit.gov/","value":"612e6ea302c62a011f2ef23d"}],"active":true,"name":[{"use":"usual","family":"NUMERPass","given":["FactorXaAfterICUAnesKnee"]}],"gender":"female","birthDate":"1975-03-03"},"request":{"method":"PUT","url":"Patient/11bcf672-9a14-4e4f-9238-39007fc6a00b"}},{"fullUrl":"https://madie.cms.gov/Encounter/f77fba5f-ea4e-4364-b0a4-ee174c57af95","resource":{"resourceType":"Encounter","id":"f77fba5f-ea4e-4364-b0a4-ee174c57af95","meta":{"profile":["http://hl7.org/fhir/us/qicore/StructureDefinition/qicore-encounter"]},"status":"finished","class":{"system":"http://terminology.hl7.org/CodeSystem/v3-ActCode","code":"IMP","display":"inpatient encounter"},"type":[{"coding":[{"system":"http://snomed.info/sct","code":"8715000"}]}],"subject":{"reference":"Patient/11bcf672-9a14-4e4f-9238-39007fc6a00b"},"period":{"start":"2026-12-04T08:00:00+00:00","end":"2026-12-30T08:15:00+00:00"},"length":{"value":26.0,"unit":"days"},"location":[{"location":{"reference":"Location/c4330de5-93b8-4cb6-992e-fdf9daa67f4b"},"period":{"start":"2026-12-06T08:00:00.000+00:00","end":"2026-12-08T08:15:00.000+00:00"}}]},"request":{"method":"PUT","url":"Encounter/f77fba5f-ea4e-4364-b0a4-ee174c57af95"}},{"fullUrl":"https://madie.cms.gov/Coverage/3aefe27f-3ca7-4877-947d-f86cdedc74a2","resource":{"resourceType":"Coverage","id":"3aefe27f-3ca7-4877-947d-f86cdedc74a2","status":"active","beneficiary":{"reference":"Patient/11bcf672-9a14-4e4f-9238-39007fc6a00b"},"period":{"start":"1975-03-03T08:00:00+00:00"},"payor":[{"reference":"Organization/3e899f33-84eb-4634-a770-a5a0bd7a80e7"}]},"request":{"method":"PUT","url":"Coverage/3aefe27f-3ca7-4877-947d-f86cdedc74a2"}},{"fullUrl":"https://madie.cms.gov/MedicationAdministration/9ea7e834-1666-426c-83e4-886adf454b71","resource":{"resourceType":"MedicationAdministration","id":"9ea7e834-1666-426c-83e4-886adf454b71","meta":{"profile":["http://hl7.org/fhir/us/qicore/StructureDefinition/qicore-medicationadministration"]},"status":"completed","medicationCodeableConcept":{"coding":[{"system":"http://www.nlm.nih.gov/research/umls/rxnorm","code":"1364435","display":"apixaban 2.5 MG Oral Tablet","userSelected":true}]},"subject":{"reference":"Patient/11bcf672-9a14-4e4f-9238-39007fc6a00b"},"effectiveDateTime":"2026-12-07T08:00:00.000+00:00"},"request":{"method":"PUT","url":"MedicationAdministration/9ea7e834-1666-426c-83e4-886adf454b71"}},{"fullUrl":"https://madie.cms.gov/Procedure/e1431742-2377-42a4-abc5-89b83314a812","resource":{"resourceType":"Procedure","id":"e1431742-2377-42a4-abc5-89b83314a812","meta":{"profile":["http://hl7.org/fhir/us/qicore/StructureDefinition/qicore-procedure"]},"extension":[{"url":"http://hl7.org/fhir/us/qicore/StructureDefinition/qicore-recorded","valueDateTime":"2013-12-04T09:35:00-04:00"}],"status":"completed","code":{"coding":[{"system":"http://snomed.info/sct","code":"7989006"}]},"subject":{"reference":"Patient/11bcf672-9a14-4e4f-9238-39007fc6a00b"},"performedPeriod":{"start":"2026-12-07T05:00:00+00:00","end":"2026-12-07T08:15:00+00:00"}},"request":{"method":"PUT","url":"Procedure/e1431742-2377-42a4-abc5-89b83314a812"}},{"fullUrl":"https://madie.cms.gov/Procedure/4d9468b4-bdbd-4bf4-8ea9-b310f0165002","resource":{"resourceType":"Procedure","id":"4d9468b4-bdbd-4bf4-8ea9-b310f0165002","meta":{"profile":["http://hl7.org/fhir/us/qicore/StructureDefinition/qicore-procedure"]},"extension":[{"url":"http://hl7.org/fhir/us/qicore/StructureDefinition/qicore-recorded","valueDateTime":"2013-12-08T09:35:00-04:00"}],"status":"completed","code":{"coding":[{"system":"http://snomed.info/sct","code":"265172001"}]},"subject":{"reference":"Patient/11bcf672-9a14-4e4f-9238-39007fc6a00b"},"performedPeriod":{"start":"2026-12-07T05:00:00+00:00","end":"2026-12-07T06:10:00+00:00"}},"request":{"method":"PUT","url":"Procedure/4d9468b4-bdbd-4bf4-8ea9-b310f0165002"}},{"fullUrl":"https://madie.cms.gov/Location/c4330de5-93b8-4cb6-992e-fdf9daa67f4b","resource":{"resourceType":"Location","id":"c4330de5-93b8-4cb6-992e-fdf9daa67f4b","meta":{"profile":["http://hl7.org/fhir/us/qicore/StructureDefinition/qicore-location"]},"identifier":[{"use":"usual","system":"http://exampleoflocation.com","value":"B1-S.F2"}],"name":"Medical Surgical East, first floor","type":[{"coding":[{"system":"https://www.cdc.gov/nhsn/cdaportal/terminology/codesystem/hsloc.html","code":"1025-6","display":"Trauma Critical Care","userSelected":true}]}]},"request":{"method":"PUT","url":"Location/c4330de5-93b8-4cb6-992e-fdf9daa67f4b"}},{"fullUrl":"https://madie.cms.gov/Organization/c149db42-4660-49ac-b1aa-5d5370b8927f","resource":{"resourceType":"Organization","id":"3e899f33-84eb-4634-a770-a5a0bd7a80e7","meta":{"profile":["http://hl7.org/fhir/us/qicore/StructureDefinition/qicore-organization"]},"identifier":[{"use":"temp","system":"urn:oid:2.16.840.1.113883.4.4","value":"21-3259825"}],"active":true,"type":[{"coding":[{"system":"http://terminology.hl7.org/CodeSystem/organization-type","code":"pay","display":"Payer"}]}],"name":"Blue Cross Blue Shield of Texas","telecom":[{"system":"phone","value":"(+1) 972-766-6900"}],"address":[{"use":"billing","type":"postal","line":["P.O. Box 660044"],"city":"Dallas","state":"TX","postalCode":"75266-0044","country":"USA"}]},"request":{"method":"PUT","url":"Organization/3e899f33-84eb-4634-a770-a5a0bd7a80e7"}},{"fullUrl":"https://madie.cms.gov/Practitioner/f1214c11-66a5-4c3d-b651-fed073b1004f","resource":{"resourceType":"Practitioner","id":"f1214c11-66a5-4c3d-b651-fed073b1004f","identifier":[{"system":"http://hl7.org/fhir/sid/us-npi","value":"123456"}],"name":[{"family":"Evil","prefix":["Dr"]}]},"request":{"method":"PUT","url":"Practitioner/f1214c11-66a5-4c3d-b651-fed073b1004f"}},{"fullUrl":"https://madie.cms.gov/MeasureReport/a3addae0-705c-4668-b1e3-f9f9b8ebf5a0","resource":{"resourceType":"MeasureReport","id":"a3addae0-705c-4668-b1e3-f9f9b8ebf5a0","meta":{"profile":["http://hl7.org/fhir/us/cqfmeasures/StructureDefinition/test-case-cqfm"]},"contained":[{"resourceType":"Parameters","id":"2193b46a-4946-47e7-83a5-ddd0f840637a-parameters","parameter":[{"name":"subject","valueString":"11bcf672-9a14-4e4f-9238-39007fc6a00b"}]}],"extension":[{"url":"http://hl7.org/fhir/us/cqfmeasures/StructureDefinition/cqfm-inputParameters","valueReference":{"reference":"#2193b46a-4946-47e7-83a5-ddd0f840637a-parameters"}},{"url":"http://hl7.org/fhir/us/cqfmeasures/StructureDefinition/cqfm-testCaseDescription","valueMarkdown":"Oral Factor Xa Inhibitor administered after neuraxial anesthesia. Knee Fx not principal\n"}],"modifierExtension":[{"url":"http://hl7.org/fhir/us/cqfmeasures/StructureDefinition/cqfm-isTestCase","valueBoolean":true}],"status":"complete","type":"individual","measure":"https://madie.cms.gov/Measure/CMS190VTEProphylaxisICUFHIR","period":{"start":"2026-01-01","end":"2026-12-31"},"group":[{"population":[{"code":{"coding":[{"system":"http://terminology.hl7.org/CodeSystem/measure-population","code":"initial-population","display":"Initial Population"}]},"count":1},{"code":{"coding":[{"system":"http://terminology.hl7.org/CodeSystem/measure-population","code":"denominator","display":"Denominator"}]},"count":1},{"code":{"coding":[{"system":"http://terminology.hl7.org/CodeSystem/measure-population","code":"denominator-exclusion","display":"Denominator Exclusion"}]},"count":0},{"code":{"coding":[{"system":"http://terminology.hl7.org/CodeSystem/measure-population","code":"numerator","display":"Numerator"}]},"count":1},{"code":{"coding":[{"system":"http://terminology.hl7.org/CodeSystem/measure-population","code":"denominator-exception","display":"Denominator Exception"}]},"count":0}]}]},"request":{"method":"PUT","url":"MeasureReport/a3addae0-705c-4668-b1e3-f9f9b8ebf5a0"}}]}