{"resourceType":"Bundle","id":"tests-6eba9c05-05eb-4337-811b-f5303159919f-bundle","type":"transaction","entry":[{"fullUrl":"https://madie.cms.gov/Patient/6eba9c05-05eb-4337-811b-f5303159919f","resource":{"resourceType":"Patient","id":"6eba9c05-05eb-4337-811b-f5303159919f","meta":{"profile":["http://hl7.org/fhir/us/qicore/StructureDefinition/qicore-patient"]},"text":{"status":"generated","div":"<div xmlns=\"http://www.w3.org/1999/xhtml\"><div class=\"hapiHeaderText\">ComfortMeasuresOnICUAfterAnes <b>DENEXPASS </b></div><table class=\"hapiPropertyTable\"><tbody><tr><td>Identifier</td><td>41ae90b5ce0802ca16fefff2109852a5</td></tr><tr><td>Date of birth</td><td><span>23 July 1947</span></td></tr></tbody></table></div>"},"extension":[{"url":"http://hl7.org/fhir/us/core/StructureDefinition/us-core-race","extension":[{"url":"ombCategory","valueCoding":{"system":"urn:oid:2.16.840.1.113883.6.238","code":"1002-5","display":"American Indian or Alaska Native","userSelected":true}},{"url":"text","valueString":"American Indian or Alaska Native"}]},{"url":"http://hl7.org/fhir/us/core/StructureDefinition/us-core-ethnicity","extension":[{"url":"ombCategory","valueCoding":{"system":"urn:oid:2.16.840.1.113883.6.238","code":"2135-2","display":"Hispanic or Latino","userSelected":true}},{"url":"text","valueString":"Hispanic or Latino"}]}],"identifier":[{"type":{"coding":[{"system":"http://terminology.hl7.org/CodeSystem/v2-0203","code":"MR"}]},"system":"https://bonnie-fhir.healthit.gov/","value":"612e6e7e02c62a011f2ee96c"}],"active":true,"name":[{"use":"usual","family":"DENEXPass","given":["ComfortMeasuresOnICUAfterAnes"]}],"gender":"female","birthDate":"1948-07-23"},"request":{"method":"PUT","url":"Patient/6eba9c05-05eb-4337-811b-f5303159919f"}},{"fullUrl":"https://madie.cms.gov/Encounter/a2f250b9-197f-4089-9068-9deb0bf78f44","resource":{"resourceType":"Encounter","id":"a2f250b9-197f-4089-9068-9deb0bf78f44","meta":{"profile":["http://hl7.org/fhir/us/qicore/StructureDefinition/qicore-encounter"]},"status":"finished","class":{"system":"http://terminology.hl7.org/CodeSystem/v3-ActCode","code":"IMP","display":"inpatient encounter"},"type":[{"coding":[{"system":"http://snomed.info/sct","code":"8715000"}]}],"subject":{"reference":"Patient/6eba9c05-05eb-4337-811b-f5303159919f"},"period":{"start":"2026-12-04T08:00:00+00:00","end":"2026-12-30T08:15:00+00:00"},"length":{"value":26.0,"unit":"days"},"location":[{"location":{"reference":"Location/a362f700-1d4e-4096-8904-d589f60557a9"},"period":{"start":"2026-12-06T08:00:00.000+00:00","end":"2026-12-12T08:12:00.000+00:00"}}]},"request":{"method":"PUT","url":"Encounter/a2f250b9-197f-4089-9068-9deb0bf78f44"}},{"fullUrl":"https://madie.cms.gov/ServiceRequest/a6ba311d-fd2c-4471-b0c0-42b0a862e122","resource":{"resourceType":"ServiceRequest","id":"a6ba311d-fd2c-4471-b0c0-42b0a862e122","meta":{"profile":["http://hl7.org/fhir/us/qicore/StructureDefinition/qicore-servicerequest"]},"status":"completed","intent":"order","code":{"coding":[{"system":"http://snomed.info/sct","code":"133918004"}]},"subject":{"reference":"Patient/6eba9c05-05eb-4337-811b-f5303159919f"},"authoredOn":"2026-12-06T11:30:00+00:00"},"request":{"method":"PUT","url":"ServiceRequest/a6ba311d-fd2c-4471-b0c0-42b0a862e122"}},{"fullUrl":"https://madie.cms.gov/Coverage/fcc7725c-f85b-47a9-b286-e62b554e95db","resource":{"resourceType":"Coverage","id":"fcc7725c-f85b-47a9-b286-e62b554e95db","status":"active","beneficiary":{"reference":"Patient/6eba9c05-05eb-4337-811b-f5303159919f"},"period":{"start":"1975-03-03T08:00:00+00:00"},"payor":[{"reference":"Organization/18ca435c-cae6-4c34-8033-af717477f9fc"}]},"request":{"method":"PUT","url":"Coverage/fcc7725c-f85b-47a9-b286-e62b554e95db"}},{"fullUrl":"https://madie.cms.gov/Procedure/635d778c-8270-4f34-af4c-be1d2cf4f4f4","resource":{"resourceType":"Procedure","id":"635d778c-8270-4f34-af4c-be1d2cf4f4f4","meta":{"profile":["http://hl7.org/fhir/us/qicore/StructureDefinition/qicore-procedure"]},"extension":[{"url":"http://hl7.org/fhir/us/qicore/StructureDefinition/qicore-recorded","valueDateTime":"2013-12-04T09:35:00-04:00"}],"status":"completed","code":{"coding":[{"system":"http://www.cms.gov/Medicare/Coding/ICD10","code":"3E030FZ"}]},"subject":{"reference":"Patient/6eba9c05-05eb-4337-811b-f5303159919f"},"performedPeriod":{"start":"2026-12-04T11:00:00+00:00","end":"2026-12-06T11:15:00+00:00"}},"request":{"method":"PUT","url":"Procedure/635d778c-8270-4f34-af4c-be1d2cf4f4f4"}},{"fullUrl":"https://madie.cms.gov/Location/a362f700-1d4e-4096-8904-d589f60557a9","resource":{"resourceType":"Location","id":"a362f700-1d4e-4096-8904-d589f60557a9","meta":{"profile":["http://hl7.org/fhir/us/qicore/StructureDefinition/qicore-location"]},"identifier":[{"use":"usual","system":"http://exampleoflocation.com","value":"B1-S.F2"}],"name":"Medical Surgical East, first floor","type":[{"coding":[{"system":"https://www.cdc.gov/nhsn/cdaportal/terminology/codesystem/hsloc.html","code":"1025-6","display":"Trauma Critical Care","userSelected":true}]}]},"request":{"method":"PUT","url":"Location/a362f700-1d4e-4096-8904-d589f60557a9"}},{"fullUrl":"https://madie.cms.gov/Organization/730cfaaf-a275-4a16-b3e9-2a10d990b323","resource":{"resourceType":"Organization","id":"18ca435c-cae6-4c34-8033-af717477f9fc","meta":{"profile":["http://hl7.org/fhir/us/qicore/StructureDefinition/qicore-organization"]},"identifier":[{"use":"temp","system":"urn:oid:2.16.840.1.113883.4.4","value":"21-3259825"}],"active":true,"type":[{"coding":[{"system":"http://terminology.hl7.org/CodeSystem/organization-type","code":"pay","display":"Payer"}]}],"name":"Blue Cross Blue Shield of Texas","telecom":[{"system":"phone","value":"(+1) 972-766-6900"}],"address":[{"use":"billing","type":"postal","line":["P.O. Box 660044"],"city":"Dallas","state":"TX","postalCode":"75266-0044","country":"USA"}]},"request":{"method":"PUT","url":"Organization/18ca435c-cae6-4c34-8033-af717477f9fc"}},{"fullUrl":"https://madie.cms.gov/Practitioner/87677b54-bd96-45de-8b1e-d7b77ff86e43","resource":{"resourceType":"Practitioner","id":"87677b54-bd96-45de-8b1e-d7b77ff86e43","identifier":[{"system":"http://hl7.org/fhir/sid/us-npi","value":"123456"}],"name":[{"family":"Evil","prefix":["Dr"]}]},"request":{"method":"PUT","url":"Practitioner/87677b54-bd96-45de-8b1e-d7b77ff86e43"}},{"fullUrl":"https://madie.cms.gov/MeasureReport/dabafcc8-2e05-4634-aa1a-cd6c6765e989","resource":{"resourceType":"MeasureReport","id":"dabafcc8-2e05-4634-aa1a-cd6c6765e989","meta":{"profile":["http://hl7.org/fhir/us/cqfmeasures/StructureDefinition/test-case-cqfm"]},"contained":[{"resourceType":"Parameters","id":"09d6f52b-2b17-4df1-99e7-d55d533ed863-parameters","parameter":[{"name":"subject","valueString":"6eba9c05-05eb-4337-811b-f5303159919f"}]}],"extension":[{"url":"http://hl7.org/fhir/us/cqfmeasures/StructureDefinition/cqfm-inputParameters","valueReference":{"reference":"#09d6f52b-2b17-4df1-99e7-d55d533ed863-parameters"}},{"url":"http://hl7.org/fhir/us/cqfmeasures/StructureDefinition/cqfm-testCaseDescription","valueMarkdown":"comfort measures starts after end of neuraxial anesthesia and in ICU\n"}],"modifierExtension":[{"url":"http://hl7.org/fhir/us/cqfmeasures/StructureDefinition/cqfm-isTestCase","valueBoolean":true}],"status":"complete","type":"individual","measure":"https://madie.cms.gov/Measure/CMS190VTEProphylaxisICUFHIR","period":{"start":"2026-01-01","end":"2026-12-31"},"group":[{"population":[{"code":{"coding":[{"system":"http://terminology.hl7.org/CodeSystem/measure-population","code":"initial-population","display":"Initial Population"}]},"count":1},{"code":{"coding":[{"system":"http://terminology.hl7.org/CodeSystem/measure-population","code":"denominator","display":"Denominator"}]},"count":1},{"code":{"coding":[{"system":"http://terminology.hl7.org/CodeSystem/measure-population","code":"denominator-exclusion","display":"Denominator Exclusion"}]},"count":1},{"code":{"coding":[{"system":"http://terminology.hl7.org/CodeSystem/measure-population","code":"numerator","display":"Numerator"}]},"count":0},{"code":{"coding":[{"system":"http://terminology.hl7.org/CodeSystem/measure-population","code":"denominator-exception","display":"Denominator Exception"}]},"count":0}]}]},"request":{"method":"PUT","url":"MeasureReport/dabafcc8-2e05-4634-aa1a-cd6c6765e989"}}]}