{"resourceType":"Bundle","id":"tests-63050905-516c-41e9-8e97-c792143fdd0b-bundle","type":"transaction","entry":[{"fullUrl":"https://madie.cms.gov/Patient/63050905-516c-41e9-8e97-c792143fdd0b","resource":{"resourceType":"Patient","id":"63050905-516c-41e9-8e97-c792143fdd0b","meta":{"profile":["http://hl7.org/fhir/us/qicore/StructureDefinition/qicore-patient"]},"text":{"status":"generated","div":"<div xmlns=\"http://www.w3.org/1999/xhtml\"><div class=\"hapiHeaderText\">CMODuringED <b>DENEXPASS </b></div><table class=\"hapiPropertyTable\"><tbody><tr><td>Identifier</td><td>45452ea1dc23640e1878befc89e45fab</td></tr><tr><td>Date of birth</td><td><span>03 March 1974</span></td></tr></tbody></table></div>"},"extension":[{"url":"http://hl7.org/fhir/us/core/StructureDefinition/us-core-race","extension":[{"url":"ombCategory","valueCoding":{"system":"urn:oid:2.16.840.1.113883.6.238","code":"1002-5","display":"American Indian or Alaska Native","userSelected":true}},{"url":"text","valueString":"American Indian or Alaska Native"}]},{"url":"http://hl7.org/fhir/us/core/StructureDefinition/us-core-ethnicity","extension":[{"url":"ombCategory","valueCoding":{"system":"urn:oid:2.16.840.1.113883.6.238","code":"2135-2","display":"Hispanic or Latino","userSelected":true}},{"url":"text","valueString":"Hispanic or Latino"}]}],"identifier":[{"type":{"coding":[{"system":"http://terminology.hl7.org/CodeSystem/v2-0203","code":"MR"}]},"system":"https://bonnie-fhir.healthit.gov/","value":"612e6e7d02c62a011f2ee907"}],"active":true,"name":[{"use":"usual","family":"DENEXPass","given":["CMODuringED"]}],"gender":"female","birthDate":"1975-03-03"},"request":{"method":"PUT","url":"Patient/63050905-516c-41e9-8e97-c792143fdd0b"}},{"fullUrl":"https://madie.cms.gov/Encounter/f85d1b61-bd17-44ad-9947-7913247abe68","resource":{"resourceType":"Encounter","id":"f85d1b61-bd17-44ad-9947-7913247abe68","meta":{"profile":["http://hl7.org/fhir/us/qicore/StructureDefinition/qicore-encounter"]},"status":"finished","class":{"system":"http://terminology.hl7.org/CodeSystem/v3-ActCode","code":"EMER","display":"emergency"},"type":[{"coding":[{"system":"http://snomed.info/sct","code":"4525004"}]}],"subject":{"reference":"Patient/63050905-516c-41e9-8e97-c792143fdd0b"},"period":{"start":"2026-12-04T06:00:00+00:00","end":"2026-12-04T07:15:00+00:00"},"length":{"value":0.0,"unit":"days"}},"request":{"method":"PUT","url":"Encounter/f85d1b61-bd17-44ad-9947-7913247abe68"}},{"fullUrl":"https://madie.cms.gov/Encounter/5ac2eb45-0d67-4b73-a269-36a456e220d2","resource":{"resourceType":"Encounter","id":"5ac2eb45-0d67-4b73-a269-36a456e220d2","meta":{"profile":["http://hl7.org/fhir/us/qicore/StructureDefinition/qicore-encounter"]},"status":"finished","class":{"system":"http://terminology.hl7.org/CodeSystem/v3-ActCode","code":"IMP","display":"inpatient encounter"},"type":[{"coding":[{"system":"http://snomed.info/sct","code":"8715000"}]}],"subject":{"reference":"Patient/63050905-516c-41e9-8e97-c792143fdd0b"},"period":{"start":"2026-12-04T08:00:00+00:00","end":"2026-12-30T08:15:00+00:00"},"length":{"value":26.0,"unit":"days"},"location":[{"location":{"reference":"Location/4f0b8fa6-5dc7-4188-b822-4f6e11fce7c9"},"period":{"start":"2026-12-26T08:00:00.000+00:00","end":"2026-12-28T08:15:00.000+00:00"}}]},"request":{"method":"PUT","url":"Encounter/5ac2eb45-0d67-4b73-a269-36a456e220d2"}},{"fullUrl":"https://madie.cms.gov/ServiceRequest/0a3d66bd-6893-46c9-92e4-8ad8982bb217","resource":{"resourceType":"ServiceRequest","id":"0a3d66bd-6893-46c9-92e4-8ad8982bb217","meta":{"profile":["http://hl7.org/fhir/us/qicore/StructureDefinition/qicore-servicerequest"]},"status":"completed","intent":"order","code":{"coding":[{"system":"http://snomed.info/sct","code":"133918004"}]},"subject":{"reference":"Patient/63050905-516c-41e9-8e97-c792143fdd0b"},"authoredOn":"2026-12-04T06:30:00+00:00"},"request":{"method":"PUT","url":"ServiceRequest/0a3d66bd-6893-46c9-92e4-8ad8982bb217"}},{"fullUrl":"https://madie.cms.gov/Coverage/b3eed36e-f300-40f7-909a-fe578df217d2","resource":{"resourceType":"Coverage","id":"b3eed36e-f300-40f7-909a-fe578df217d2","status":"active","beneficiary":{"reference":"Patient/63050905-516c-41e9-8e97-c792143fdd0b"},"period":{"start":"1975-03-03T08:00:00+00:00"},"payor":[{"reference":"Organization/890316dc-a4ad-43b4-ba6f-9fb9e6eca282"}]},"request":{"method":"PUT","url":"Coverage/b3eed36e-f300-40f7-909a-fe578df217d2"}},{"fullUrl":"https://madie.cms.gov/Location/de84f008-ea0d-4492-b048-51f53f624fce","resource":{"resourceType":"Location","id":"de84f008-ea0d-4492-b048-51f53f624fce","type":[{"coding":[{"system":"http://cts.nlm.nih.gov/fhir/cs/hsloc","version":"2020","code":"1025-6","display":"Trauma Critical Care","userSelected":true}]}]},"request":{"method":"PUT","url":"Location/de84f008-ea0d-4492-b048-51f53f624fce"}},{"fullUrl":"https://madie.cms.gov/Location/4f0b8fa6-5dc7-4188-b822-4f6e11fce7c9","resource":{"resourceType":"Location","id":"4f0b8fa6-5dc7-4188-b822-4f6e11fce7c9","meta":{"profile":["http://hl7.org/fhir/us/qicore/StructureDefinition/qicore-location"]},"identifier":[{"use":"usual","system":"http://exampleoflocation.com","value":"B1-S.F2"}],"name":"Medical Surgical East, first floor","type":[{"coding":[{"system":"https://www.cdc.gov/nhsn/cdaportal/terminology/codesystem/hsloc.html","code":"1025-6","display":"Trauma Critical Care","userSelected":true}]}]},"request":{"method":"PUT","url":"Location/4f0b8fa6-5dc7-4188-b822-4f6e11fce7c9"}},{"fullUrl":"https://madie.cms.gov/Organization/fadb9996-f80c-4cca-be9b-4ffd74bddd8e","resource":{"resourceType":"Organization","id":"890316dc-a4ad-43b4-ba6f-9fb9e6eca282","meta":{"profile":["http://hl7.org/fhir/us/qicore/StructureDefinition/qicore-organization"]},"identifier":[{"use":"temp","system":"urn:oid:2.16.840.1.113883.4.4","value":"21-3259825"}],"active":true,"type":[{"coding":[{"system":"http://terminology.hl7.org/CodeSystem/organization-type","code":"pay","display":"Payer"}]}],"name":"Blue Cross Blue Shield of Texas","telecom":[{"system":"phone","value":"(+1) 972-766-6900"}],"address":[{"use":"billing","type":"postal","line":["P.O. Box 660044"],"city":"Dallas","state":"TX","postalCode":"75266-0044","country":"USA"}]},"request":{"method":"PUT","url":"Organization/890316dc-a4ad-43b4-ba6f-9fb9e6eca282"}},{"fullUrl":"https://madie.cms.gov/Practitioner/cc7d2a5b-0da5-474d-801c-f8b0b96ba338","resource":{"resourceType":"Practitioner","id":"cc7d2a5b-0da5-474d-801c-f8b0b96ba338","identifier":[{"system":"http://hl7.org/fhir/sid/us-npi","value":"123456"}],"name":[{"family":"Evil","prefix":["Dr"]}]},"request":{"method":"PUT","url":"Practitioner/cc7d2a5b-0da5-474d-801c-f8b0b96ba338"}},{"fullUrl":"https://madie.cms.gov/MeasureReport/e70c336f-b4db-4318-9147-3b675dfa9ccf","resource":{"resourceType":"MeasureReport","id":"e70c336f-b4db-4318-9147-3b675dfa9ccf","meta":{"profile":["http://hl7.org/fhir/us/cqfmeasures/StructureDefinition/test-case-cqfm"]},"contained":[{"resourceType":"Parameters","id":"7b94840d-0638-4e8d-91f6-95a071e6d971-parameters","parameter":[{"name":"subject","valueString":"63050905-516c-41e9-8e97-c792143fdd0b"}]}],"extension":[{"url":"http://hl7.org/fhir/us/cqfmeasures/StructureDefinition/cqfm-inputParameters","valueReference":{"reference":"#7b94840d-0638-4e8d-91f6-95a071e6d971-parameters"}},{"url":"http://hl7.org/fhir/us/cqfmeasures/StructureDefinition/cqfm-testCaseDescription","valueMarkdown":"meets IPP and Denominator, inpatient visit starts <=1 hour after the end of ED visit AND Comfort Measures are ordered during ED visit\n"}],"modifierExtension":[{"url":"http://hl7.org/fhir/us/cqfmeasures/StructureDefinition/cqfm-isTestCase","valueBoolean":true}],"status":"complete","type":"individual","measure":"https://madie.cms.gov/Measure/CMS190VTEProphylaxisICUFHIR","period":{"start":"2026-01-01","end":"2026-12-31"},"group":[{"population":[{"code":{"coding":[{"system":"http://terminology.hl7.org/CodeSystem/measure-population","code":"initial-population","display":"Initial Population"}]},"count":1},{"code":{"coding":[{"system":"http://terminology.hl7.org/CodeSystem/measure-population","code":"denominator","display":"Denominator"}]},"count":1},{"code":{"coding":[{"system":"http://terminology.hl7.org/CodeSystem/measure-population","code":"denominator-exclusion","display":"Denominator Exclusion"}]},"count":1},{"code":{"coding":[{"system":"http://terminology.hl7.org/CodeSystem/measure-population","code":"numerator","display":"Numerator"}]},"count":0},{"code":{"coding":[{"system":"http://terminology.hl7.org/CodeSystem/measure-population","code":"denominator-exception","display":"Denominator Exception"}]},"count":0}]}]},"request":{"method":"PUT","url":"MeasureReport/e70c336f-b4db-4318-9147-3b675dfa9ccf"}}]}