{"resourceType":"Bundle","id":"tests-7c66ff2b-6e58-4665-98d9-4a9bbda4e79d-bundle","type":"transaction","entry":[{"fullUrl":"https://madie.cms.gov/Patient/7c66ff2b-6e58-4665-98d9-4a9bbda4e79d","resource":{"resourceType":"Patient","id":"7c66ff2b-6e58-4665-98d9-4a9bbda4e79d","meta":{"profile":["http://hl7.org/fhir/us/qicore/StructureDefinition/qicore-patient"]},"text":{"status":"generated","div":"<div xmlns=\"http://www.w3.org/1999/xhtml\"><div class=\"hapiHeaderText\">ICU2Locations <b>DENOMPASS </b></div><table class=\"hapiPropertyTable\"><tbody><tr><td>Identifier</td><td>6d76be9baa47bc8df50fa14784b8bb58</td></tr><tr><td>Date of birth</td><td><span>03 March 1974</span></td></tr></tbody></table></div>"},"extension":[{"url":"http://hl7.org/fhir/us/core/StructureDefinition/us-core-race","extension":[{"url":"ombCategory","valueCoding":{"system":"urn:oid:2.16.840.1.113883.6.238","code":"1002-5","display":"American Indian or Alaska Native","userSelected":true}},{"url":"text","valueString":"American Indian or Alaska Native"}]},{"url":"http://hl7.org/fhir/us/core/StructureDefinition/us-core-ethnicity","extension":[{"url":"ombCategory","valueCoding":{"system":"urn:oid:2.16.840.1.113883.6.238","code":"2135-2","display":"Hispanic or Latino","userSelected":true}},{"url":"text","valueString":"Hispanic or Latino"}]}],"identifier":[{"type":{"coding":[{"system":"http://terminology.hl7.org/CodeSystem/v2-0203","code":"MR"}]},"system":"https://bonnie-fhir.healthit.gov/","value":"612e6ead02c62a011f2ef3a8"}],"active":true,"name":[{"use":"usual","family":"DENOMPass","given":["ICU2Locations"]}],"gender":"female","birthDate":"1975-03-03"},"request":{"method":"PUT","url":"Patient/7c66ff2b-6e58-4665-98d9-4a9bbda4e79d"}},{"fullUrl":"https://madie.cms.gov/Encounter/c7a91d8b-bddb-4b9f-aab4-9e5e8a77cbfd","resource":{"resourceType":"Encounter","id":"c7a91d8b-bddb-4b9f-aab4-9e5e8a77cbfd","meta":{"profile":["http://hl7.org/fhir/us/qicore/StructureDefinition/qicore-encounter"]},"status":"finished","class":{"system":"http://terminology.hl7.org/CodeSystem/v3-ActCode","code":"IMP","display":"inpatient encounter"},"type":[{"coding":[{"system":"http://snomed.info/sct","code":"8715000","display":"Hospital admission, elective (procedure)"}]}],"subject":{"reference":"Patient/7c66ff2b-6e58-4665-98d9-4a9bbda4e79d"},"period":{"start":"2026-12-04T08:00:00+00:00","end":"2026-12-30T08:15:00+00:00"},"length":{"value":26.0,"unit":"days"},"location":[{"location":{"reference":"Location/9582518a-4be3-4560-a2ea-6930d24e6f39"},"period":{"start":"2026-12-06T08:00:00.000+00:00","end":"2026-12-08T08:15:00.000+00:00"}},{"location":{"reference":"Location/f9d95f6a-d138-4fb3-9889-7517ed1ba062"},"period":{"start":"2026-12-31T08:00:00.000+00:00","end":"2026-12-31T08:15:00.000+00:00"}}]},"request":{"method":"PUT","url":"Encounter/c7a91d8b-bddb-4b9f-aab4-9e5e8a77cbfd"}},{"fullUrl":"https://madie.cms.gov/Coverage/1ad659dd-c364-4cb0-a420-ec6b46f579b5","resource":{"resourceType":"Coverage","id":"1ad659dd-c364-4cb0-a420-ec6b46f579b5","status":"active","beneficiary":{"reference":"Patient/7c66ff2b-6e58-4665-98d9-4a9bbda4e79d"},"period":{"start":"1975-03-03T08:00:00+00:00"},"payor":[{"reference":"Organization/db141f66-a1cc-407b-9e95-adac27adee14"}]},"request":{"method":"PUT","url":"Coverage/1ad659dd-c364-4cb0-a420-ec6b46f579b5"}},{"fullUrl":"https://madie.cms.gov/Location/9582518a-4be3-4560-a2ea-6930d24e6f39","resource":{"resourceType":"Location","id":"9582518a-4be3-4560-a2ea-6930d24e6f39","meta":{"profile":["http://hl7.org/fhir/us/qicore/StructureDefinition/qicore-location"]},"identifier":[{"use":"usual","system":"http://exampleoflocation.com","value":"B1-S.F2"}],"name":"Medical Surgical East, first floor","type":[{"coding":[{"system":"https://www.cdc.gov/nhsn/cdaportal/terminology/codesystem/hsloc.html","version":"2020","code":"1025-6","display":"Trauma Critical Care","userSelected":true}]}]},"request":{"method":"PUT","url":"Location/9582518a-4be3-4560-a2ea-6930d24e6f39"}},{"fullUrl":"https://madie.cms.gov/Location/f9d95f6a-d138-4fb3-9889-7517ed1ba062","resource":{"resourceType":"Location","id":"f9d95f6a-d138-4fb3-9889-7517ed1ba062","meta":{"profile":["http://hl7.org/fhir/us/qicore/StructureDefinition/qicore-location"]},"identifier":[{"use":"usual","system":"http://exampleoflocation.com","value":"A1-S.F2"}],"name":"Medical Surgical West, first floor","type":[{"coding":[{"system":"https://www.cdc.gov/nhsn/cdaportal/terminology/codesystem/hsloc.html","version":"2020","code":"1025-6","display":"Trauma Critical Care","userSelected":true}]}]},"request":{"method":"PUT","url":"Location/f9d95f6a-d138-4fb3-9889-7517ed1ba062"}},{"fullUrl":"https://madie.cms.gov/Organization/a2f2426a-0889-4d1a-acca-70442b732eb4","resource":{"resourceType":"Organization","id":"db141f66-a1cc-407b-9e95-adac27adee14","meta":{"profile":["http://hl7.org/fhir/us/qicore/StructureDefinition/qicore-organization"]},"identifier":[{"use":"temp","system":"urn:oid:2.16.840.1.113883.4.4","value":"21-3259825"}],"active":true,"type":[{"coding":[{"system":"http://terminology.hl7.org/CodeSystem/organization-type","code":"pay","display":"Payer"}]}],"name":"Blue Cross Blue Shield of Texas","telecom":[{"system":"phone","value":"(+1) 972-766-6900"}],"address":[{"use":"billing","type":"postal","line":["P.O. Box 660044"],"city":"Dallas","state":"TX","postalCode":"75266-0044","country":"USA"}]},"request":{"method":"PUT","url":"Organization/db141f66-a1cc-407b-9e95-adac27adee14"}},{"fullUrl":"https://madie.cms.gov/MeasureReport/4193e8c9-3d91-49a5-bf3b-c8ed0ea4e91d","resource":{"resourceType":"MeasureReport","id":"4193e8c9-3d91-49a5-bf3b-c8ed0ea4e91d","meta":{"profile":["http://hl7.org/fhir/us/cqfmeasures/StructureDefinition/test-case-cqfm"]},"contained":[{"resourceType":"Parameters","id":"79bfb7db-37af-4c6d-a87a-2c21a51dbfa8-parameters","parameter":[{"name":"subject","valueString":"7c66ff2b-6e58-4665-98d9-4a9bbda4e79d"}]}],"extension":[{"url":"http://hl7.org/fhir/us/cqfmeasures/StructureDefinition/cqfm-inputParameters","valueReference":{"reference":"#79bfb7db-37af-4c6d-a87a-2c21a51dbfa8-parameters"}},{"url":"http://hl7.org/fhir/us/cqfmeasures/StructureDefinition/cqfm-testCaseDescription","valueMarkdown":"denominator pass- first occurrence of Icu admission or transfer during IP encounter"}],"modifierExtension":[{"url":"http://hl7.org/fhir/us/cqfmeasures/StructureDefinition/cqfm-isTestCase","valueBoolean":true}],"status":"complete","type":"individual","measure":"https://madie.cms.gov/Measure/CMS190VTEProphylaxisICUFHIR","period":{"start":"2026-01-01","end":"2026-12-31"},"group":[{"population":[{"code":{"coding":[{"system":"http://terminology.hl7.org/CodeSystem/measure-population","code":"initial-population","display":"Initial Population"}]},"count":1},{"code":{"coding":[{"system":"http://terminology.hl7.org/CodeSystem/measure-population","code":"denominator","display":"Denominator"}]},"count":1},{"code":{"coding":[{"system":"http://terminology.hl7.org/CodeSystem/measure-population","code":"denominator-exclusion","display":"Denominator Exclusion"}]},"count":0},{"code":{"coding":[{"system":"http://terminology.hl7.org/CodeSystem/measure-population","code":"numerator","display":"Numerator"}]},"count":0},{"code":{"coding":[{"system":"http://terminology.hl7.org/CodeSystem/measure-population","code":"denominator-exception","display":"Denominator Exception"}]},"count":0}]}]},"request":{"method":"PUT","url":"MeasureReport/4193e8c9-3d91-49a5-bf3b-c8ed0ea4e91d"}}]}