{"resourceType":"Bundle","id":"tests-9ddea16c-55d3-4dda-a1d8-a256fbff0b64-bundle","type":"transaction","entry":[{"fullUrl":"https://madie.cms.gov/Patient/9ddea16c-55d3-4dda-a1d8-a256fbff0b64","resource":{"resourceType":"Patient","id":"9ddea16c-55d3-4dda-a1d8-a256fbff0b64","meta":{"profile":["http://hl7.org/fhir/us/qicore/StructureDefinition/qicore-patient"]},"text":{"status":"generated","div":"<div xmlns=\"http://www.w3.org/1999/xhtml\"><div class=\"hapiHeaderText\">MedRsnLDUHVFP1MinAFAnesEnds1DayAFICU <b>NUMERPASS </b></div><table class=\"hapiPropertyTable\"><tbody><tr><td>Identifier</td><td>c46ac45885afaf33533a822506cc9d0e</td></tr><tr><td>Date of birth</td><td><span>03 March 1974</span></td></tr></tbody></table></div>"},"extension":[{"url":"http://hl7.org/fhir/us/core/StructureDefinition/us-core-race","extension":[{"url":"ombCategory","valueCoding":{"system":"urn:oid:2.16.840.1.113883.6.238","code":"1002-5","display":"American Indian or Alaska Native","userSelected":true}},{"url":"text","valueString":"American Indian or Alaska Native"}]},{"url":"http://hl7.org/fhir/us/core/StructureDefinition/us-core-ethnicity","extension":[{"url":"ombCategory","valueCoding":{"system":"urn:oid:2.16.840.1.113883.6.238","code":"2135-2","display":"Hispanic or Latino","userSelected":true}},{"url":"text","valueString":"Hispanic or Latino"}]}],"identifier":[{"type":{"coding":[{"system":"http://terminology.hl7.org/CodeSystem/v2-0203","code":"MR"}]},"system":"https://bonnie-fhir.healthit.gov/","value":"612e6f2702c62a011f2f0db5"}],"active":true,"name":[{"use":"usual","family":"NUMERPass","given":["MedRsnLDUHVFP1MinAFAnesEnds1DayAFICU"]}],"gender":"female","birthDate":"1975-03-03"},"request":{"method":"PUT","url":"Patient/9ddea16c-55d3-4dda-a1d8-a256fbff0b64"}},{"fullUrl":"https://madie.cms.gov/Encounter/89be6a33-be4c-4429-936a-4bf32a688b79","resource":{"resourceType":"Encounter","id":"89be6a33-be4c-4429-936a-4bf32a688b79","meta":{"profile":["http://hl7.org/fhir/us/qicore/StructureDefinition/qicore-encounter"]},"status":"finished","class":{"system":"http://terminology.hl7.org/CodeSystem/v3-ActCode","code":"IMP","display":"inpatient encounter"},"type":[{"coding":[{"system":"http://snomed.info/sct","code":"8715000"}]}],"subject":{"reference":"Patient/9ddea16c-55d3-4dda-a1d8-a256fbff0b64"},"period":{"start":"2026-12-01T00:00:00+00:00","end":"2026-12-31T23:59:00+00:00"},"length":{"value":30.0,"unit":"days"},"location":[{"location":{"reference":"Location/df7394fa-f7dc-447b-a15c-12f6be1e4740"},"period":{"start":"2026-12-01T05:00:00.000+00:00","end":"2026-12-15T23:59:00.000+00:00"}}]},"request":{"method":"PUT","url":"Encounter/89be6a33-be4c-4429-936a-4bf32a688b79"}},{"fullUrl":"https://madie.cms.gov/Coverage/c0239cc1-224a-46c5-b9f0-519e162ee23f","resource":{"resourceType":"Coverage","id":"c0239cc1-224a-46c5-b9f0-519e162ee23f","status":"active","beneficiary":{"reference":"Patient/9ddea16c-55d3-4dda-a1d8-a256fbff0b64"},"period":{"start":"1975-03-03T08:00:00+00:00"},"payor":[{"reference":"Organization/4da248b0-6e59-49b7-b80e-338aa21d299f"}]},"request":{"method":"PUT","url":"Coverage/c0239cc1-224a-46c5-b9f0-519e162ee23f"}},{"fullUrl":"https://madie.cms.gov/MedicationAdministration/fa17cad1-10ec-4dcf-8409-6c31a212d416","resource":{"resourceType":"MedicationAdministration","id":"fa17cad1-10ec-4dcf-8409-6c31a212d416","meta":{"profile":["http://hl7.org/fhir/us/qicore/StructureDefinition/qicore-mednotadministered"]},"extension":[{"url":"http://hl7.org/fhir/us/qicore/StructureDefinition/qicore-recorded","valueDateTime":"2026-12-02T15:11:00+00:00"}],"status":"not-done","statusReason":[{"coding":[{"system":"http://snomed.info/sct","code":"183932001","display":"Procedure contraindicated (situation)"}]}],"medicationCodeableConcept":{"coding":[{"system":"http://www.nlm.nih.gov/research/umls/rxnorm","code":"854228"}]},"subject":{"reference":"Patient/9ddea16c-55d3-4dda-a1d8-a256fbff0b64"},"effectivePeriod":{"start":"2026-12-02T15:11:00+00:00"}},"request":{"method":"PUT","url":"MedicationAdministration/fa17cad1-10ec-4dcf-8409-6c31a212d416"}},{"fullUrl":"https://madie.cms.gov/Procedure/1dd99c7c-a717-4c83-b7ba-2ad1e485d77b","resource":{"resourceType":"Procedure","id":"1dd99c7c-a717-4c83-b7ba-2ad1e485d77b","meta":{"profile":["http://hl7.org/fhir/us/qicore/StructureDefinition/qicore-procedure"]},"extension":[{"url":"http://hl7.org/fhir/us/qicore/StructureDefinition/qicore-recorded","valueDateTime":"2013-12-04T09:35:00-04:00"}],"status":"completed","code":{"coding":[{"system":"http://snomed.info/sct","code":"18946005"}]},"subject":{"reference":"Patient/9ddea16c-55d3-4dda-a1d8-a256fbff0b64"},"performedPeriod":{"start":"2026-12-02T10:59:00+00:00","end":"2026-12-02T15:10:00+00:00"}},"request":{"method":"PUT","url":"Procedure/1dd99c7c-a717-4c83-b7ba-2ad1e485d77b"}},{"fullUrl":"https://madie.cms.gov/Location/df7394fa-f7dc-447b-a15c-12f6be1e4740","resource":{"resourceType":"Location","id":"df7394fa-f7dc-447b-a15c-12f6be1e4740","meta":{"profile":["http://hl7.org/fhir/us/qicore/StructureDefinition/qicore-location"]},"identifier":[{"use":"usual","system":"http://exampleoflocation.com","value":"B1-S.F2"}],"name":"Medical Surgical East, first floor","type":[{"coding":[{"system":"https://www.cdc.gov/nhsn/cdaportal/terminology/codesystem/hsloc.html","code":"1025-6","display":"Trauma Critical Care","userSelected":true}]}]},"request":{"method":"PUT","url":"Location/df7394fa-f7dc-447b-a15c-12f6be1e4740"}},{"fullUrl":"https://madie.cms.gov/Procedure/93f8fd45-36fe-4a34-aabb-dc615bb9387d","resource":{"resourceType":"Procedure","id":"93f8fd45-36fe-4a34-aabb-dc615bb9387d","meta":{"profile":["http://hl7.org/fhir/us/qicore/StructureDefinition/qicore-procedurenotdone"]},"extension":[{"url":"http://hl7.org/fhir/us/qicore/StructureDefinition/qicore-recorded","valueDateTime":"2026-12-02T15:11:00.000+00:00"}],"status":"not-done","statusReason":{"coding":[{"system":"http://snomed.info/sct","code":"183932001","display":"Procedure contraindicated (situation)","userSelected":true}]},"code":{"coding":[{"system":"http://snomed.info/sct","code":"442410008","display":"Application of venous foot pump (procedure)","userSelected":true}]},"subject":{"reference":"Patient/9ddea16c-55d3-4dda-a1d8-a256fbff0b64"},"_performedDateTime":{"extension":[{"url":"http://hl7.org/fhir/StructureDefinition/data-absent-reason","valueCode":"not-performed"}]}},"request":{"method":"PUT","url":"Procedure/93f8fd45-36fe-4a34-aabb-dc615bb9387d"}},{"fullUrl":"https://madie.cms.gov/Organization/c7a87264-5ac5-4746-bf0e-5a1e0976eb79","resource":{"resourceType":"Organization","id":"4da248b0-6e59-49b7-b80e-338aa21d299f","meta":{"profile":["http://hl7.org/fhir/us/qicore/StructureDefinition/qicore-organization"]},"identifier":[{"use":"temp","system":"urn:oid:2.16.840.1.113883.4.4","value":"21-3259825"}],"active":true,"type":[{"coding":[{"system":"http://terminology.hl7.org/CodeSystem/organization-type","code":"pay","display":"Payer"}]}],"name":"Blue Cross Blue Shield of Texas","telecom":[{"system":"phone","value":"(+1) 972-766-6900"}],"address":[{"use":"billing","type":"postal","line":["P.O. Box 660044"],"city":"Dallas","state":"TX","postalCode":"75266-0044","country":"USA"}]},"request":{"method":"PUT","url":"Organization/4da248b0-6e59-49b7-b80e-338aa21d299f"}},{"fullUrl":"https://madie.cms.gov/Practitioner/72d2ba31-f0f8-4713-95b6-419ce25e70b3","resource":{"resourceType":"Practitioner","id":"72d2ba31-f0f8-4713-95b6-419ce25e70b3","identifier":[{"system":"http://hl7.org/fhir/sid/us-npi","value":"123456"}],"name":[{"family":"Evil","prefix":["Dr"]}]},"request":{"method":"PUT","url":"Practitioner/72d2ba31-f0f8-4713-95b6-419ce25e70b3"}},{"fullUrl":"https://madie.cms.gov/MeasureReport/56a6a752-64cc-47d8-a011-a11c62ae1e64","resource":{"resourceType":"MeasureReport","id":"56a6a752-64cc-47d8-a011-a11c62ae1e64","meta":{"profile":["http://hl7.org/fhir/us/cqfmeasures/StructureDefinition/test-case-cqfm"]},"contained":[{"resourceType":"Parameters","id":"754bd3d0-9017-4cad-ba60-3bc65915f8fc-parameters","parameter":[{"name":"subject","valueString":"9ddea16c-55d3-4dda-a1d8-a256fbff0b64"}]}],"extension":[{"url":"http://hl7.org/fhir/us/cqfmeasures/StructureDefinition/cqfm-inputParameters","valueReference":{"reference":"#754bd3d0-9017-4cad-ba60-3bc65915f8fc-parameters"}},{"url":"http://hl7.org/fhir/us/cqfmeasures/StructureDefinition/cqfm-testCaseDescription","valueMarkdown":"Patient has a documented reason for no LDUH and a medical reason for no IPC 1 min after anesthesia end (and anesthesia ends 1 day after ICU admission). This case will also satisfy no VTE prophylaxis due to medical reason <=1 day after ICU.start\n"}],"modifierExtension":[{"url":"http://hl7.org/fhir/us/cqfmeasures/StructureDefinition/cqfm-isTestCase","valueBoolean":true}],"status":"complete","type":"individual","measure":"https://madie.cms.gov/Measure/CMS190VTEProphylaxisICUFHIR","period":{"start":"2026-01-01","end":"2026-12-31"},"group":[{"population":[{"code":{"coding":[{"system":"http://terminology.hl7.org/CodeSystem/measure-population","code":"initial-population","display":"Initial Population"}]},"count":1},{"code":{"coding":[{"system":"http://terminology.hl7.org/CodeSystem/measure-population","code":"denominator","display":"Denominator"}]},"count":1},{"code":{"coding":[{"system":"http://terminology.hl7.org/CodeSystem/measure-population","code":"denominator-exclusion","display":"Denominator Exclusion"}]},"count":0},{"code":{"coding":[{"system":"http://terminology.hl7.org/CodeSystem/measure-population","code":"numerator","display":"Numerator"}]},"count":1},{"code":{"coding":[{"system":"http://terminology.hl7.org/CodeSystem/measure-population","code":"denominator-exception","display":"Denominator Exception"}]},"count":0}]}]},"request":{"method":"PUT","url":"MeasureReport/56a6a752-64cc-47d8-a011-a11c62ae1e64"}}]}