{"resourceType":"Bundle","id":"tests-b1affe12-1051-4c43-8b32-23db10550f20-bundle","type":"transaction","entry":[{"fullUrl":"https://madie.cms.gov/Patient/b1affe12-1051-4c43-8b32-23db10550f20","resource":{"resourceType":"Patient","id":"b1affe12-1051-4c43-8b32-23db10550f20","meta":{"profile":["http://hl7.org/fhir/us/qicore/StructureDefinition/qicore-patient"]},"text":{"status":"generated","div":"<div xmlns=\"http://www.w3.org/1999/xhtml\"><div class=\"hapiHeaderText\">1LOSLT1DayICU2ndICULOSGT1Day <b>DENOMPASS </b></div><table class=\"hapiPropertyTable\"><tbody><tr><td>Identifier</td><td>6d76be9baa47bc8df50fa14784b8bb58</td></tr><tr><td>Date of birth</td><td><span>03 March 1974</span></td></tr></tbody></table></div>"},"extension":[{"url":"http://hl7.org/fhir/us/core/StructureDefinition/us-core-race","extension":[{"url":"ombCategory","valueCoding":{"system":"urn:oid:2.16.840.1.113883.6.238","code":"1002-5","display":"American Indian or Alaska Native","userSelected":true}},{"url":"text","valueString":"American Indian or Alaska Native"}]},{"url":"http://hl7.org/fhir/us/core/StructureDefinition/us-core-ethnicity","extension":[{"url":"ombCategory","valueCoding":{"system":"urn:oid:2.16.840.1.113883.6.238","code":"2135-2","display":"Hispanic or Latino","userSelected":true}},{"url":"text","valueString":"Hispanic or Latino"}]}],"identifier":[{"type":{"coding":[{"system":"http://terminology.hl7.org/CodeSystem/v2-0203","code":"MR"}]},"system":"https://bonnie-fhir.healthit.gov/","value":"612e6ead02c62a011f2ef3a8"}],"active":true,"name":[{"use":"usual","family":"DENOMPass","given":["1LOSLT1DayICU2ndICULOSGT1Day"]}],"gender":"female","birthDate":"1975-03-03"},"request":{"method":"PUT","url":"Patient/b1affe12-1051-4c43-8b32-23db10550f20"}},{"fullUrl":"https://madie.cms.gov/Encounter/ec89813d-b0fe-4773-bbe0-36b8d9bed4a2","resource":{"resourceType":"Encounter","id":"ec89813d-b0fe-4773-bbe0-36b8d9bed4a2","meta":{"profile":["http://hl7.org/fhir/us/qicore/StructureDefinition/qicore-encounter"]},"status":"finished","class":{"system":"http://terminology.hl7.org/CodeSystem/v3-ActCode","code":"IMP","display":"inpatient encounter"},"type":[{"coding":[{"system":"http://snomed.info/sct","code":"8715000","display":"Hospital admission, elective (procedure)"}]}],"subject":{"reference":"Patient/b1affe12-1051-4c43-8b32-23db10550f20"},"period":{"start":"2026-12-04T08:00:00+00:00","end":"2026-12-30T08:15:00+00:00"},"length":{"value":26.0,"unit":"days"},"location":[{"location":{"reference":"Location/aff0c7f3-319d-4b08-8646-020e1d49add4"},"period":{"start":"2026-12-06T08:00:00.000+00:00","end":"2026-12-07T18:15:00.000+00:00"}},{"location":{"reference":"Location/5773c129-7745-4bfd-a65f-f7048a698f93"},"period":{"start":"2026-12-23T08:00:00.000+00:00","end":"2026-12-23T18:15:00.000+00:00"}}]},"request":{"method":"PUT","url":"Encounter/ec89813d-b0fe-4773-bbe0-36b8d9bed4a2"}},{"fullUrl":"https://madie.cms.gov/MedicationAdministration/21ee9d6e-c016-4fcf-ad2c-f6ecd85d7499","resource":{"resourceType":"MedicationAdministration","id":"21ee9d6e-c016-4fcf-ad2c-f6ecd85d7499","meta":{"profile":["http://hl7.org/fhir/us/qicore/StructureDefinition/qicore-medicationadministration"]},"status":"completed","medicationCodeableConcept":{"coding":[{"system":"http://www.nlm.nih.gov/research/umls/rxnorm","code":"861356"}]},"subject":{"reference":"Patient/b1affe12-1051-4c43-8b32-23db10550f20"},"effectiveDateTime":"2026-12-31T08:05:00+00:00"},"request":{"method":"PUT","url":"MedicationAdministration/21ee9d6e-c016-4fcf-ad2c-f6ecd85d7499"}},{"fullUrl":"https://madie.cms.gov/Coverage/f9d25f8a-74b1-4112-b6ad-8868632009d0","resource":{"resourceType":"Coverage","id":"f9d25f8a-74b1-4112-b6ad-8868632009d0","status":"active","beneficiary":{"reference":"Patient/b1affe12-1051-4c43-8b32-23db10550f20"},"period":{"start":"1975-03-03T08:00:00+00:00"},"payor":[{"reference":"Organization/18ca435c-cae6-4c34-8033-af717477f9fc"}]},"request":{"method":"PUT","url":"Coverage/f9d25f8a-74b1-4112-b6ad-8868632009d0"}},{"fullUrl":"https://madie.cms.gov/Location/aff0c7f3-319d-4b08-8646-020e1d49add4","resource":{"resourceType":"Location","id":"aff0c7f3-319d-4b08-8646-020e1d49add4","meta":{"profile":["http://hl7.org/fhir/us/qicore/StructureDefinition/qicore-location"]},"identifier":[{"use":"usual","system":"http://exampleoflocation.com","value":"B1-S.F2"}],"name":"Medical Surgical East, first floor","type":[{"coding":[{"system":"https://www.cdc.gov/nhsn/cdaportal/terminology/codesystem/hsloc.html","version":"2020","code":"1025-6","display":"Trauma Critical Care","userSelected":true}]}]},"request":{"method":"PUT","url":"Location/aff0c7f3-319d-4b08-8646-020e1d49add4"}},{"fullUrl":"https://madie.cms.gov/Location/5773c129-7745-4bfd-a65f-f7048a698f93","resource":{"resourceType":"Location","id":"5773c129-7745-4bfd-a65f-f7048a698f93","meta":{"profile":["http://hl7.org/fhir/us/qicore/StructureDefinition/qicore-location"]},"identifier":[{"use":"usual","system":"http://exampleoflocation.com","value":"A1-S.F2"}],"name":"Medical Surgical West, first floor","type":[{"coding":[{"system":"https://www.cdc.gov/nhsn/cdaportal/terminology/codesystem/hsloc.html","version":"2020","code":"1025-6","display":"Trauma Critical Care","userSelected":true}]}]},"request":{"method":"PUT","url":"Location/5773c129-7745-4bfd-a65f-f7048a698f93"}},{"fullUrl":"https://madie.cms.gov/Organization/772de33d-0ff1-44fc-bccd-e3b8f35ccc10","resource":{"resourceType":"Organization","id":"18ca435c-cae6-4c34-8033-af717477f9fc","meta":{"profile":["http://hl7.org/fhir/us/qicore/StructureDefinition/qicore-organization"]},"identifier":[{"use":"temp","system":"urn:oid:2.16.840.1.113883.4.4","value":"21-3259825"}],"active":true,"type":[{"coding":[{"system":"http://terminology.hl7.org/CodeSystem/organization-type","code":"pay","display":"Payer"}]}],"name":"Blue Cross Blue Shield of Texas","telecom":[{"system":"phone","value":"(+1) 972-766-6900"}],"address":[{"use":"billing","type":"postal","line":["P.O. Box 660044"],"city":"Dallas","state":"TX","postalCode":"75266-0044","country":"USA"}]},"request":{"method":"PUT","url":"Organization/18ca435c-cae6-4c34-8033-af717477f9fc"}},{"fullUrl":"https://madie.cms.gov/MeasureReport/345a7a1b-a7d5-4e8c-9ab0-a56b2085ce05","resource":{"resourceType":"MeasureReport","id":"345a7a1b-a7d5-4e8c-9ab0-a56b2085ce05","meta":{"profile":["http://hl7.org/fhir/us/cqfmeasures/StructureDefinition/test-case-cqfm"]},"contained":[{"resourceType":"Parameters","id":"d424c4b7-1a34-48a5-a6f2-9768a854912d-parameters","parameter":[{"name":"subject","valueString":"b1affe12-1051-4c43-8b32-23db10550f20"}]}],"extension":[{"url":"http://hl7.org/fhir/us/cqfmeasures/StructureDefinition/cqfm-inputParameters","valueReference":{"reference":"#d424c4b7-1a34-48a5-a6f2-9768a854912d-parameters"}},{"url":"http://hl7.org/fhir/us/cqfmeasures/StructureDefinition/cqfm-testCaseDescription","valueMarkdown":"LOSEQ1DayICU_2ndICULOSLT1\n"}],"modifierExtension":[{"url":"http://hl7.org/fhir/us/cqfmeasures/StructureDefinition/cqfm-isTestCase","valueBoolean":true}],"status":"complete","type":"individual","measure":"https://madie.cms.gov/Measure/CMS190VTEProphylaxisICUFHIR","period":{"start":"2026-01-01","end":"2026-12-31"},"group":[{"population":[{"code":{"coding":[{"system":"http://terminology.hl7.org/CodeSystem/measure-population","code":"initial-population","display":"Initial Population"}]},"count":1},{"code":{"coding":[{"system":"http://terminology.hl7.org/CodeSystem/measure-population","code":"denominator","display":"Denominator"}]},"count":1},{"code":{"coding":[{"system":"http://terminology.hl7.org/CodeSystem/measure-population","code":"denominator-exclusion","display":"Denominator Exclusion"}]},"count":0},{"code":{"coding":[{"system":"http://terminology.hl7.org/CodeSystem/measure-population","code":"numerator","display":"Numerator"}]},"count":0},{"code":{"coding":[{"system":"http://terminology.hl7.org/CodeSystem/measure-population","code":"denominator-exception","display":"Denominator Exception"}]},"count":0}]}]},"request":{"method":"PUT","url":"MeasureReport/345a7a1b-a7d5-4e8c-9ab0-a56b2085ce05"}}]}