{"resourceType":"Bundle","id":"tests-bba3244d-62a5-42f1-a67a-c28379e73f10-bundle","type":"transaction","entry":[{"fullUrl":"https://madie.cms.gov/Patient/bba3244d-62a5-42f1-a67a-c28379e73f10","resource":{"resourceType":"Patient","id":"bba3244d-62a5-42f1-a67a-c28379e73f10","meta":{"profile":["http://hl7.org/fhir/us/qicore/StructureDefinition/qicore-patient"]},"text":{"status":"generated","div":"<div xmlns=\"http://www.w3.org/1999/xhtml\"><div class=\"hapiHeaderText\">LOSGT2Days <b>DENEXPASS </b></div><table class=\"hapiPropertyTable\"><tbody><tr><td>Identifier</td><td>89c2e418c9727592f5380d634f63eb21</td></tr><tr><td>Date of birth</td><td><span>03 March 1974</span></td></tr></tbody></table></div>"},"extension":[{"url":"http://hl7.org/fhir/us/core/StructureDefinition/us-core-race","extension":[{"url":"ombCategory","valueCoding":{"system":"urn:oid:2.16.840.1.113883.6.238","code":"1002-5","display":"American Indian or Alaska Native","userSelected":true}},{"url":"text","valueString":"American Indian or Alaska Native"}]},{"url":"http://hl7.org/fhir/us/core/StructureDefinition/us-core-ethnicity","extension":[{"url":"ombCategory","valueCoding":{"system":"urn:oid:2.16.840.1.113883.6.238","code":"2135-2","display":"Hispanic or Latino","userSelected":true}},{"url":"text","valueString":"Hispanic or Latino"}]}],"identifier":[{"type":{"coding":[{"system":"http://terminology.hl7.org/CodeSystem/v2-0203","code":"MR"}]},"system":"https://bonnie-fhir.healthit.gov/","value":"612e6eb102c62a011f2ef420"}],"active":true,"name":[{"use":"usual","family":"DENEXFail","given":["LOSGT2Days"]}],"gender":"female","birthDate":"1975-03-03"},"request":{"method":"PUT","url":"Patient/bba3244d-62a5-42f1-a67a-c28379e73f10"}},{"fullUrl":"https://madie.cms.gov/Encounter/cf918663-6071-49d9-aec3-0539d01ebd97","resource":{"resourceType":"Encounter","id":"cf918663-6071-49d9-aec3-0539d01ebd97","meta":{"profile":["http://hl7.org/fhir/us/qicore/StructureDefinition/qicore-encounter"]},"status":"finished","class":{"system":"http://terminology.hl7.org/CodeSystem/v3-ActCode","code":"IMP","display":"inpatient encounter"},"type":[{"coding":[{"system":"http://snomed.info/sct","code":"8715000"}]}],"subject":{"reference":"Patient/bba3244d-62a5-42f1-a67a-c28379e73f10"},"period":{"start":"2026-12-04T08:00:00+00:00","end":"2026-12-07T18:15:00+00:00"},"length":{"value":1.0,"unit":"days"},"location":[{"location":{"reference":"Location/2b0c9c5a-da98-44af-9304-e358b6ce9265"},"period":{"start":"2026-12-04T09:15:00.000+00:00","end":"2026-12-05T00:15:00.000+00:00"}}]},"request":{"method":"PUT","url":"Encounter/cf918663-6071-49d9-aec3-0539d01ebd97"}},{"fullUrl":"https://madie.cms.gov/Coverage/213701f4-e4af-4ae1-bd80-98e5adbaceb7","resource":{"resourceType":"Coverage","id":"213701f4-e4af-4ae1-bd80-98e5adbaceb7","status":"active","beneficiary":{"reference":"Patient/bba3244d-62a5-42f1-a67a-c28379e73f10"},"period":{"start":"1975-03-03T08:00:00+00:00"},"payor":[{"reference":"Organization/4da248b0-6e59-49b7-b80e-338aa21d299f"}]},"request":{"method":"PUT","url":"Coverage/213701f4-e4af-4ae1-bd80-98e5adbaceb7"}},{"fullUrl":"https://madie.cms.gov/Location/2b0c9c5a-da98-44af-9304-e358b6ce9265","resource":{"resourceType":"Location","id":"2b0c9c5a-da98-44af-9304-e358b6ce9265","meta":{"profile":["http://hl7.org/fhir/us/qicore/StructureDefinition/qicore-location"]},"identifier":[{"use":"usual","system":"http://exampleoflocation.com","value":"B1-S.F2"}],"name":"Medical Surgical East, first floor","type":[{"coding":[{"system":"https://www.cdc.gov/nhsn/cdaportal/terminology/codesystem/hsloc.html","code":"1025-6","display":"Trauma Critical Care","userSelected":true}]}]},"request":{"method":"PUT","url":"Location/2b0c9c5a-da98-44af-9304-e358b6ce9265"}},{"fullUrl":"https://madie.cms.gov/Organization/c30a1faf-3965-40ae-b62a-432bdf843232","resource":{"resourceType":"Organization","id":"4da248b0-6e59-49b7-b80e-338aa21d299f","meta":{"profile":["http://hl7.org/fhir/us/qicore/StructureDefinition/qicore-organization"]},"identifier":[{"use":"temp","system":"urn:oid:2.16.840.1.113883.4.4","value":"21-3259825"}],"active":true,"type":[{"coding":[{"system":"http://terminology.hl7.org/CodeSystem/organization-type","code":"pay","display":"Payer"}]}],"name":"Blue Cross Blue Shield of Texas","telecom":[{"system":"phone","value":"(+1) 972-766-6900"}],"address":[{"use":"billing","type":"postal","line":["P.O. Box 660044"],"city":"Dallas","state":"TX","postalCode":"75266-0044","country":"USA"}]},"request":{"method":"PUT","url":"Organization/4da248b0-6e59-49b7-b80e-338aa21d299f"}},{"fullUrl":"https://madie.cms.gov/Practitioner/bf9cfcfc-fa5c-4c26-889a-5a4725b79a82","resource":{"resourceType":"Practitioner","id":"bf9cfcfc-fa5c-4c26-889a-5a4725b79a82","identifier":[{"system":"http://hl7.org/fhir/sid/us-npi","value":"123456"}],"name":[{"family":"Evil","prefix":["Dr"]}]},"request":{"method":"PUT","url":"Practitioner/bf9cfcfc-fa5c-4c26-889a-5a4725b79a82"}},{"fullUrl":"https://madie.cms.gov/MeasureReport/785ba807-f4a9-4444-ab96-3e02569798db","resource":{"resourceType":"MeasureReport","id":"785ba807-f4a9-4444-ab96-3e02569798db","meta":{"profile":["http://hl7.org/fhir/us/cqfmeasures/StructureDefinition/test-case-cqfm"]},"contained":[{"resourceType":"Parameters","id":"4943b6db-24f9-480a-b3bf-d1f8e3971263-parameters","parameter":[{"name":"subject","valueString":"bba3244d-62a5-42f1-a67a-c28379e73f10"}]}],"extension":[{"url":"http://hl7.org/fhir/us/cqfmeasures/StructureDefinition/cqfm-inputParameters","valueReference":{"reference":"#4943b6db-24f9-480a-b3bf-d1f8e3971263-parameters"}},{"url":"http://hl7.org/fhir/us/cqfmeasures/StructureDefinition/cqfm-testCaseDescription","valueMarkdown":"Encounter with ICU stay, but the hospital stay is 3 days"}],"modifierExtension":[{"url":"http://hl7.org/fhir/us/cqfmeasures/StructureDefinition/cqfm-isTestCase","valueBoolean":true}],"status":"complete","type":"individual","measure":"https://madie.cms.gov/Measure/CMS190VTEProphylaxisICUFHIR","period":{"start":"2026-01-01","end":"2026-12-31"},"group":[{"population":[{"code":{"coding":[{"system":"http://terminology.hl7.org/CodeSystem/measure-population","code":"initial-population","display":"Initial Population"}]},"count":1},{"code":{"coding":[{"system":"http://terminology.hl7.org/CodeSystem/measure-population","code":"denominator","display":"Denominator"}]},"count":1},{"code":{"coding":[{"system":"http://terminology.hl7.org/CodeSystem/measure-population","code":"denominator-exclusion","display":"Denominator Exclusion"}]},"count":0},{"code":{"coding":[{"system":"http://terminology.hl7.org/CodeSystem/measure-population","code":"numerator","display":"Numerator"}]},"count":0},{"code":{"coding":[{"system":"http://terminology.hl7.org/CodeSystem/measure-population","code":"denominator-exception","display":"Denominator Exception"}]},"count":0}]}]},"request":{"method":"PUT","url":"MeasureReport/785ba807-f4a9-4444-ab96-3e02569798db"}}]}