{"resourceType":"Bundle","id":"tests-62663a2c-27c6-4dbf-8c16-f84700734204-bundle","type":"transaction","entry":[{"fullUrl":"https://madie.cms.gov/Patient/62663a2c-27c6-4dbf-8c16-f84700734204","resource":{"resourceType":"Patient","id":"62663a2c-27c6-4dbf-8c16-f84700734204","meta":{"profile":["http://hl7.org/fhir/us/qicore/StructureDefinition/qicore-patient"]},"text":{"status":"generated","div":"<div xmlns=\"http://www.w3.org/1999/xhtml\"><div class=\"hapiHeaderText\">DxVTEDuringEDGT1hrB4Enc <b>IPPASS </b></div><table class=\"hapiPropertyTable\"><tbody><tr><td>Identifier</td><td>5834e23c307441a4d02e1245a3af3e165ea071f2007213b315046e3ff6ee189f</td></tr><tr><td>Date of birth</td><td><span>03 March 1974</span></td></tr></tbody></table></div>"},"extension":[{"url":"http://hl7.org/fhir/us/core/StructureDefinition/us-core-race","extension":[{"url":"ombCategory","valueCoding":{"system":"urn:oid:2.16.840.1.113883.6.238","code":"1002-5","display":"American Indian or Alaska Native","userSelected":true}},{"url":"text","valueString":"American Indian or Alaska Native"}]},{"url":"http://hl7.org/fhir/us/core/StructureDefinition/us-core-ethnicity","extension":[{"url":"ombCategory","valueCoding":{"system":"urn:oid:2.16.840.1.113883.6.238","code":"2186-5","display":"Not Hispanic or Latino","userSelected":true}},{"url":"text","valueString":"Not Hispanic or Latino"}]}],"identifier":[{"type":{"coding":[{"system":"http://terminology.hl7.org/CodeSystem/v2-0203","code":"MR"}]},"system":"https://bonnie-fhir.healthit.gov/","value":"612e6f6002c62a011f2f1989"}],"active":true,"name":[{"use":"usual","family":"IPPass","given":["DxVTEDuringEDGT1hrB4Enc"]}],"gender":"female","birthDate":"1975-03-03"},"request":{"method":"PUT","url":"Patient/62663a2c-27c6-4dbf-8c16-f84700734204"}},{"fullUrl":"https://madie.cms.gov/Encounter/ba1a3124-3545-448f-9cc9-9c59c15c03cb","resource":{"resourceType":"Encounter","id":"ba1a3124-3545-448f-9cc9-9c59c15c03cb","meta":{"profile":["http://hl7.org/fhir/us/qicore/StructureDefinition/qicore-encounter"]},"status":"finished","class":{"system":"http://terminology.hl7.org/CodeSystem/v3-ActCode","code":"OBSENC","display":"observation encounter"},"type":[{"coding":[{"system":"http://snomed.info/sct","code":"4525004"}]}],"subject":{"reference":"Patient/62663a2c-27c6-4dbf-8c16-f84700734204"},"period":{"start":"2026-12-04T04:00:00+00:00","end":"2026-12-04T07:50:00+00:00"},"length":{"value":0.0,"unit":"days"}},"request":{"method":"PUT","url":"Encounter/ba1a3124-3545-448f-9cc9-9c59c15c03cb"}},{"fullUrl":"https://madie.cms.gov/Encounter/3a2ffd03-06d3-43b4-8108-fda433f4cd81","resource":{"resourceType":"Encounter","id":"3a2ffd03-06d3-43b4-8108-fda433f4cd81","meta":{"profile":["http://hl7.org/fhir/us/qicore/StructureDefinition/qicore-encounter"]},"status":"finished","class":{"system":"http://terminology.hl7.org/CodeSystem/v3-ActCode","code":"IMP","display":"inpatient encounter"},"type":[{"coding":[{"system":"http://snomed.info/sct","code":"8715000"}]}],"subject":{"reference":"Patient/62663a2c-27c6-4dbf-8c16-f84700734204"},"period":{"start":"2026-12-04T09:00:00+00:00","end":"2026-12-30T08:15:00+00:00"},"length":{"value":26.0,"unit":"days"}},"request":{"method":"PUT","url":"Encounter/3a2ffd03-06d3-43b4-8108-fda433f4cd81"}},{"fullUrl":"https://madie.cms.gov/Coverage/3a3b783e-66d5-4c70-8c04-ed4fb502ee0e","resource":{"resourceType":"Coverage","id":"3a3b783e-66d5-4c70-8c04-ed4fb502ee0e","status":"active","beneficiary":{"reference":"Patient/62663a2c-27c6-4dbf-8c16-f84700734204"},"period":{"start":"1975-03-03T08:00:00+00:00"},"payor":[{"reference":"Organization/f7da4368-fb6d-4d73-a75b-f78024cbb18d"}]},"request":{"method":"PUT","url":"Coverage/3a3b783e-66d5-4c70-8c04-ed4fb502ee0e"}},{"fullUrl":"https://madie.cms.gov/Condition/5f968ea8-9510-4f24-9abc-4fabfa929af5","resource":{"resourceType":"Condition","id":"5f968ea8-9510-4f24-9abc-4fabfa929af5","meta":{"profile":["http://hl7.org/fhir/us/qicore/StructureDefinition/qicore-condition"]},"category":[{"coding":[{"system":"http://terminology.hl7.org/CodeSystem/condition-category","code":"problem-list-item","display":"Problem List Item"}]}],"code":{"coding":[{"system":"http://snomed.info/sct","code":"1001000119102"},{"system":"http://hl7.org/fhir/sid/icd-10-cm","code":"I26.02"}]},"subject":{"reference":"Patient/62663a2c-27c6-4dbf-8c16-f84700734204"},"onsetPeriod":{"start":"2026-12-04T06:00:00+00:00"}},"request":{"method":"PUT","url":"Condition/5f968ea8-9510-4f24-9abc-4fabfa929af5"}},{"fullUrl":"https://madie.cms.gov/Organization/ba19cf44-4acd-4db0-96d0-e05811e49570","resource":{"resourceType":"Organization","id":"f7da4368-fb6d-4d73-a75b-f78024cbb18d","meta":{"profile":["http://hl7.org/fhir/us/qicore/StructureDefinition/qicore-organization"]},"identifier":[{"use":"temp","system":"urn:oid:2.16.840.1.113883.4.4","value":"21-3259825"}],"active":true,"type":[{"coding":[{"system":"http://terminology.hl7.org/CodeSystem/organization-type","code":"pay","display":"Payer"}]}],"name":"Blue Cross Blue Shield of Texas","telecom":[{"system":"phone","value":"(+1) 972-766-6900"}],"address":[{"use":"billing","type":"postal","line":["P.O. Box 660044"],"city":"Dallas","state":"TX","postalCode":"75266-0044","country":"USA"}]},"request":{"method":"PUT","url":"Organization/f7da4368-fb6d-4d73-a75b-f78024cbb18d"}},{"fullUrl":"https://madie.cms.gov/Practitioner/a7f17074-792a-405a-8acd-dce2f07a60a5","resource":{"resourceType":"Practitioner","id":"a7f17074-792a-405a-8acd-dce2f07a60a5","identifier":[{"system":"http://hl7.org/fhir/sid/us-npi","value":"123456"}],"name":[{"family":"Evil","prefix":["Dr"]}]},"request":{"method":"PUT","url":"Practitioner/a7f17074-792a-405a-8acd-dce2f07a60a5"}},{"fullUrl":"https://madie.cms.gov/MeasureReport/6a6b9594-6aa1-4fe8-ad7f-e092be6b7375","resource":{"resourceType":"MeasureReport","id":"6a6b9594-6aa1-4fe8-ad7f-e092be6b7375","meta":{"profile":["http://hl7.org/fhir/us/cqfmeasures/StructureDefinition/test-case-cqfm"]},"contained":[{"resourceType":"Parameters","id":"31484bbb-861d-4eb8-906f-c516f104d79c-parameters","parameter":[{"name":"subject","valueString":"62663a2c-27c6-4dbf-8c16-f84700734204"}]}],"extension":[{"url":"http://hl7.org/fhir/us/cqfmeasures/StructureDefinition/cqfm-inputParameters","valueReference":{"reference":"#31484bbb-861d-4eb8-906f-c516f104d79c-parameters"}},{"url":"http://hl7.org/fhir/us/cqfmeasures/StructureDefinition/cqfm-testCaseDescription","valueMarkdown":"Dx of Obstetrics VTE before Encouter\n"}],"modifierExtension":[{"url":"http://hl7.org/fhir/us/cqfmeasures/StructureDefinition/cqfm-isTestCase","valueBoolean":true}],"status":"complete","type":"individual","measure":"https://madie.cms.gov/Measure/CMS190VTEProphylaxisICUFHIR","period":{"start":"2026-01-01","end":"2026-12-31"},"group":[{"population":[{"code":{"coding":[{"system":"http://terminology.hl7.org/CodeSystem/measure-population","code":"initial-population","display":"Initial Population"}]},"count":1},{"code":{"coding":[{"system":"http://terminology.hl7.org/CodeSystem/measure-population","code":"denominator","display":"Denominator"}]},"count":0},{"code":{"coding":[{"system":"http://terminology.hl7.org/CodeSystem/measure-population","code":"denominator-exclusion","display":"Denominator Exclusion"}]},"count":0},{"code":{"coding":[{"system":"http://terminology.hl7.org/CodeSystem/measure-population","code":"numerator","display":"Numerator"}]},"count":0},{"code":{"coding":[{"system":"http://terminology.hl7.org/CodeSystem/measure-population","code":"denominator-exception","display":"Denominator Exception"}]},"count":0}]}]},"request":{"method":"PUT","url":"MeasureReport/6a6b9594-6aa1-4fe8-ad7f-e092be6b7375"}}]}