{"resourceType":"Bundle","id":"tests-25265601-4e27-4fe0-8d35-68ebac8f9894-bundle","type":"transaction","entry":[{"fullUrl":"https://madie.cms.gov/Patient/25265601-4e27-4fe0-8d35-68ebac8f9894","resource":{"resourceType":"Patient","id":"25265601-4e27-4fe0-8d35-68ebac8f9894","meta":{"profile":["http://hl7.org/fhir/us/qicore/StructureDefinition/qicore-patient"]},"text":{"status":"generated","div":"<div xmlns=\"http://www.w3.org/1999/xhtml\"><div class=\"hapiHeaderText\">GlycoDayAfterAnesNullMedEndtime <b>NUMERPASS </b></div><table class=\"hapiPropertyTable\"><tbody><tr><td>Identifier</td><td>4a42020f0b8dee0fc88266e960041057</td></tr><tr><td>Date of birth</td><td><span>03 March 1974</span></td></tr></tbody></table></div>"},"extension":[{"url":"http://hl7.org/fhir/us/core/StructureDefinition/us-core-race","extension":[{"url":"ombCategory","valueCoding":{"system":"urn:oid:2.16.840.1.113883.6.238","code":"1002-5","display":"American Indian or Alaska Native","userSelected":true}},{"url":"text","valueString":"American Indian or Alaska Native"}]},{"url":"http://hl7.org/fhir/us/core/StructureDefinition/us-core-ethnicity","extension":[{"url":"ombCategory","valueCoding":{"system":"urn:oid:2.16.840.1.113883.6.238","code":"2135-2","display":"Hispanic or Latino","userSelected":true}},{"url":"text","valueString":"Hispanic or Latino"}]}],"identifier":[{"type":{"coding":[{"system":"http://terminology.hl7.org/CodeSystem/v2-0203","code":"MR"}]},"system":"https://bonnie-fhir.healthit.gov/","value":"612e6ebc02c62a011f2ef6a5"}],"active":true,"name":[{"use":"usual","family":"NUMERPass","given":["GlycoDayAfterAnesNullMedEndtime"]}],"gender":"female","birthDate":"1975-03-03"},"request":{"method":"PUT","url":"Patient/25265601-4e27-4fe0-8d35-68ebac8f9894"}},{"fullUrl":"https://madie.cms.gov/Encounter/87c8b58a-2f2d-4d5d-9a25-fa9df807b2c2","resource":{"resourceType":"Encounter","id":"87c8b58a-2f2d-4d5d-9a25-fa9df807b2c2","meta":{"profile":["http://hl7.org/fhir/us/qicore/StructureDefinition/qicore-encounter"]},"status":"finished","class":{"system":"http://terminology.hl7.org/CodeSystem/v3-ActCode","code":"IMP","display":"inpatient encounter"},"type":[{"coding":[{"system":"http://snomed.info/sct","code":"8715000"}]}],"subject":{"reference":"Patient/25265601-4e27-4fe0-8d35-68ebac8f9894"},"period":{"start":"2026-12-04T08:00:00+00:00","end":"2026-12-30T08:15:00+00:00"},"length":{"value":26.0,"unit":"days"},"location":[{"location":{"reference":"Location/7285a2de-4b3d-4ebb-a6b3-96b6e2c55f27"},"period":{"start":"2026-12-06T08:00:00.000+00:00","end":"2026-12-12T08:15:00.000+00:00"}}]},"request":{"method":"PUT","url":"Encounter/87c8b58a-2f2d-4d5d-9a25-fa9df807b2c2"}},{"fullUrl":"https://madie.cms.gov/Coverage/4e0e7d97-6ac8-4982-8651-b27706d2af80","resource":{"resourceType":"Coverage","id":"4e0e7d97-6ac8-4982-8651-b27706d2af80","status":"active","beneficiary":{"reference":"Patient/25265601-4e27-4fe0-8d35-68ebac8f9894"},"period":{"start":"1975-03-03T08:00:00+00:00"},"payor":[{"reference":"Organization/4da248b0-6e59-49b7-b80e-338aa21d299f"}]},"request":{"method":"PUT","url":"Coverage/4e0e7d97-6ac8-4982-8651-b27706d2af80"}},{"fullUrl":"https://madie.cms.gov/MedicationAdministration/9301a5f2-742a-4455-aacc-16d945baa300","resource":{"resourceType":"MedicationAdministration","id":"9301a5f2-742a-4455-aacc-16d945baa300","meta":{"profile":["http://hl7.org/fhir/us/qicore/StructureDefinition/qicore-medicationadministration"]},"status":"completed","medicationCodeableConcept":{"coding":[{"system":"http://www.nlm.nih.gov/research/umls/rxnorm","code":"200349"}]},"subject":{"reference":"Patient/25265601-4e27-4fe0-8d35-68ebac8f9894"},"effectivePeriod":{"start":"2026-12-08T11:30:00+00:00"}},"request":{"method":"PUT","url":"MedicationAdministration/9301a5f2-742a-4455-aacc-16d945baa300"}},{"fullUrl":"https://madie.cms.gov/Procedure/4d518428-f7f3-4774-be3e-1c00d3e97704","resource":{"resourceType":"Procedure","id":"4d518428-f7f3-4774-be3e-1c00d3e97704","meta":{"profile":["http://hl7.org/fhir/us/qicore/StructureDefinition/qicore-procedure"]},"extension":[{"url":"http://hl7.org/fhir/us/qicore/StructureDefinition/qicore-recorded","valueDateTime":"2013-12-07T09:35:00-04:00"}],"status":"completed","code":{"coding":[{"system":"http://snomed.info/sct","code":"18946005"}]},"subject":{"reference":"Patient/25265601-4e27-4fe0-8d35-68ebac8f9894"},"performedPeriod":{"start":"2026-12-07T11:00:00+00:00","end":"2026-12-07T11:15:00+00:00"}},"request":{"method":"PUT","url":"Procedure/4d518428-f7f3-4774-be3e-1c00d3e97704"}},{"fullUrl":"https://madie.cms.gov/Location/7285a2de-4b3d-4ebb-a6b3-96b6e2c55f27","resource":{"resourceType":"Location","id":"7285a2de-4b3d-4ebb-a6b3-96b6e2c55f27","meta":{"profile":["http://hl7.org/fhir/us/qicore/StructureDefinition/qicore-location"]},"identifier":[{"use":"usual","system":"http://exampleoflocation.com","value":"B1-S.F2"}],"name":"Medical Surgical East, first floor","type":[{"coding":[{"system":"https://www.cdc.gov/nhsn/cdaportal/terminology/codesystem/hsloc.html","code":"1025-6","display":"Trauma Critical Care","userSelected":true}]}]},"request":{"method":"PUT","url":"Location/7285a2de-4b3d-4ebb-a6b3-96b6e2c55f27"}},{"fullUrl":"https://madie.cms.gov/Organization/74712041-c8f8-48a4-b496-2ca0f89b6e4d","resource":{"resourceType":"Organization","id":"4da248b0-6e59-49b7-b80e-338aa21d299f","meta":{"profile":["http://hl7.org/fhir/us/qicore/StructureDefinition/qicore-organization"]},"identifier":[{"use":"temp","system":"urn:oid:2.16.840.1.113883.4.4","value":"21-3259825"}],"active":true,"type":[{"coding":[{"system":"http://terminology.hl7.org/CodeSystem/organization-type","code":"pay","display":"Payer"}]}],"name":"Blue Cross Blue Shield of Texas","telecom":[{"system":"phone","value":"(+1) 972-766-6900"}],"address":[{"use":"billing","type":"postal","line":["P.O. Box 660044"],"city":"Dallas","state":"TX","postalCode":"75266-0044","country":"USA"}]},"request":{"method":"PUT","url":"Organization/4da248b0-6e59-49b7-b80e-338aa21d299f"}},{"fullUrl":"https://madie.cms.gov/Practitioner/89579cf5-d504-4527-810e-3653555abbe7","resource":{"resourceType":"Practitioner","id":"89579cf5-d504-4527-810e-3653555abbe7","identifier":[{"system":"http://hl7.org/fhir/sid/us-npi","value":"123456"}],"name":[{"family":"Evil","prefix":["Dr"]}]},"request":{"method":"PUT","url":"Practitioner/89579cf5-d504-4527-810e-3653555abbe7"}},{"fullUrl":"https://madie.cms.gov/MeasureReport/9c5d58f7-ba93-4f9c-8324-109664a0403b","resource":{"resourceType":"MeasureReport","id":"9c5d58f7-ba93-4f9c-8324-109664a0403b","meta":{"profile":["http://hl7.org/fhir/us/cqfmeasures/StructureDefinition/test-case-cqfm"]},"contained":[{"resourceType":"Parameters","id":"bb200ca3-20d7-4a37-bcec-e287b518d824-parameters","parameter":[{"name":"subject","valueString":"25265601-4e27-4fe0-8d35-68ebac8f9894"}]}],"extension":[{"url":"http://hl7.org/fhir/us/cqfmeasures/StructureDefinition/cqfm-inputParameters","valueReference":{"reference":"#bb200ca3-20d7-4a37-bcec-e287b518d824-parameters"}},{"url":"http://hl7.org/fhir/us/cqfmeasures/StructureDefinition/cqfm-testCaseDescription","valueMarkdown":"Glycoprotein IIb/IIIa Inhibitors administered day after neuraxial anesthesia\n"}],"modifierExtension":[{"url":"http://hl7.org/fhir/us/cqfmeasures/StructureDefinition/cqfm-isTestCase","valueBoolean":true}],"status":"complete","type":"individual","measure":"https://madie.cms.gov/Measure/CMS190VTEProphylaxisICUFHIR","period":{"start":"2026-01-01","end":"2026-12-31"},"group":[{"population":[{"code":{"coding":[{"system":"http://terminology.hl7.org/CodeSystem/measure-population","code":"initial-population","display":"Initial Population"}]},"count":1},{"code":{"coding":[{"system":"http://terminology.hl7.org/CodeSystem/measure-population","code":"denominator","display":"Denominator"}]},"count":1},{"code":{"coding":[{"system":"http://terminology.hl7.org/CodeSystem/measure-population","code":"denominator-exclusion","display":"Denominator Exclusion"}]},"count":0},{"code":{"coding":[{"system":"http://terminology.hl7.org/CodeSystem/measure-population","code":"numerator","display":"Numerator"}]},"count":1},{"code":{"coding":[{"system":"http://terminology.hl7.org/CodeSystem/measure-population","code":"denominator-exception","display":"Denominator Exception"}]},"count":0}]}]},"request":{"method":"PUT","url":"MeasureReport/9c5d58f7-ba93-4f9c-8324-109664a0403b"}}]}