{"resourceType":"Bundle","id":"tests-0a32d341-2fc9-4d8b-94ac-92b6bdccff6c-bundle","type":"transaction","entry":[{"fullUrl":"https://madie.cms.gov/Patient/0a32d341-2fc9-4d8b-94ac-92b6bdccff6c","resource":{"resourceType":"Patient","id":"0a32d341-2fc9-4d8b-94ac-92b6bdccff6c","meta":{"profile":["http://hl7.org/fhir/us/qicore/StructureDefinition/qicore-patient"]},"text":{"status":"generated","div":"<div xmlns=\"http://www.w3.org/1999/xhtml\"><div class=\"hapiHeaderText\">GYNSurgeryEQ1DayAfterICUStart <b>DENEXPASS </b></div><table class=\"hapiPropertyTable\"><tbody><tr><td>Identifier</td><td>c86bf4d45e0ace80da93806dc6ebb45b</td></tr><tr><td>Date of birth</td><td><span>03 March 1974</span></td></tr></tbody></table></div>"},"extension":[{"url":"http://hl7.org/fhir/us/core/StructureDefinition/us-core-race","extension":[{"url":"ombCategory","valueCoding":{"system":"urn:oid:2.16.840.1.113883.6.238","code":"1002-5","display":"American Indian or Alaska Native","userSelected":true}},{"url":"text","valueString":"American Indian or Alaska Native"}]},{"url":"http://hl7.org/fhir/us/core/StructureDefinition/us-core-ethnicity","extension":[{"url":"ombCategory","valueCoding":{"system":"urn:oid:2.16.840.1.113883.6.238","code":"2135-2","display":"Hispanic or Latino","userSelected":true}},{"url":"text","valueString":"Hispanic or Latino"}]}],"identifier":[{"type":{"coding":[{"system":"http://terminology.hl7.org/CodeSystem/v2-0203","code":"MR"}]},"system":"https://bonnie-fhir.healthit.gov/","value":"612e6e7502c62a011f2ee6f5"}],"active":true,"name":[{"use":"usual","family":"DENEXPass","given":["GYNSurgeryEQ1DayAfterICUStart"]}],"gender":"female","birthDate":"1975-03-03"},"request":{"method":"PUT","url":"Patient/0a32d341-2fc9-4d8b-94ac-92b6bdccff6c"}},{"fullUrl":"https://madie.cms.gov/Encounter/d34372c7-44fe-495a-a12a-f2d6ce3457a4","resource":{"resourceType":"Encounter","id":"d34372c7-44fe-495a-a12a-f2d6ce3457a4","meta":{"profile":["http://hl7.org/fhir/us/qicore/StructureDefinition/qicore-encounter"]},"extension":[{"url":"http://hl7.org/fhir/us/qicore/StructureDefinition/qicore-encounter-procedure","extension":[{"url":"type","valueCodeableConcept":{"coding":[{"system":"http://www.cms.gov/Medicare/Coding/ICD10","code":"00500ZZ"}]}},{"url":"rank","valuePositiveInt":1},{"url":"procedure","valueReference":{"reference":"Procedure/6f55c5b8-f841-4b24-830b-8c8519e6d4ce"}}]}],"status":"finished","class":{"system":"http://terminology.hl7.org/CodeSystem/v3-ActCode","code":"IMP","display":"inpatient encounter"},"type":[{"coding":[{"system":"http://snomed.info/sct","code":"8715000"}]}],"subject":{"reference":"Patient/0a32d341-2fc9-4d8b-94ac-92b6bdccff6c"},"period":{"start":"2026-12-04T08:00:00+00:00","end":"2026-12-30T08:15:00+00:00"},"length":{"value":26.0,"unit":"days"},"location":[{"location":{"reference":"Location/afd0e2a2-3ecd-44bf-aaf9-fb1599a2224c"},"period":{"start":"2026-12-06T08:00:00.000+00:00","end":"2026-12-08T08:15:00.000+00:00"}}]},"request":{"method":"PUT","url":"Encounter/d34372c7-44fe-495a-a12a-f2d6ce3457a4"}},{"fullUrl":"https://madie.cms.gov/Coverage/08453119-a39a-4ff6-8773-225707686004","resource":{"resourceType":"Coverage","id":"08453119-a39a-4ff6-8773-225707686004","status":"active","beneficiary":{"reference":"Patient/0a32d341-2fc9-4d8b-94ac-92b6bdccff6c"},"period":{"start":"1975-03-03T08:00:00+00:00"},"payor":[{"reference":"Organization/db141f66-a1cc-407b-9e95-adac27adee14"}]},"request":{"method":"PUT","url":"Coverage/08453119-a39a-4ff6-8773-225707686004"}},{"fullUrl":"https://madie.cms.gov/Procedure/6f55c5b8-f841-4b24-830b-8c8519e6d4ce","resource":{"resourceType":"Procedure","id":"6f55c5b8-f841-4b24-830b-8c8519e6d4ce","meta":{"profile":["http://hl7.org/fhir/us/qicore/StructureDefinition/qicore-procedure"]},"extension":[{"url":"http://hl7.org/fhir/us/qicore/StructureDefinition/qicore-recorded","valueDateTime":"2013-12-04T09:35:00-04:00"}],"status":"completed","code":{"coding":[{"system":"http://www.cms.gov/Medicare/Coding/ICD10","code":"00500ZZ"}]},"subject":{"reference":"Patient/0a32d341-2fc9-4d8b-94ac-92b6bdccff6c"},"performedPeriod":{"start":"2026-12-07T08:15:00+00:00","end":"2026-12-07T11:15:00+00:00"}},"request":{"method":"PUT","url":"Procedure/6f55c5b8-f841-4b24-830b-8c8519e6d4ce"}},{"fullUrl":"https://madie.cms.gov/Location/afd0e2a2-3ecd-44bf-aaf9-fb1599a2224c","resource":{"resourceType":"Location","id":"afd0e2a2-3ecd-44bf-aaf9-fb1599a2224c","meta":{"profile":["http://hl7.org/fhir/us/qicore/StructureDefinition/qicore-location"]},"identifier":[{"use":"usual","system":"http://exampleoflocation.com","value":"B1-S.F2"}],"name":"Medical Surgical East, first floor","type":[{"coding":[{"system":"https://www.cdc.gov/nhsn/cdaportal/terminology/codesystem/hsloc.html","code":"1025-6","display":"Trauma Critical Care","userSelected":true}]}]},"request":{"method":"PUT","url":"Location/afd0e2a2-3ecd-44bf-aaf9-fb1599a2224c"}},{"fullUrl":"https://madie.cms.gov/Organization/88be7495-1ea4-4cd3-ac2e-c455eb418759","resource":{"resourceType":"Organization","id":"db141f66-a1cc-407b-9e95-adac27adee14","meta":{"profile":["http://hl7.org/fhir/us/qicore/StructureDefinition/qicore-organization"]},"identifier":[{"use":"temp","system":"urn:oid:2.16.840.1.113883.4.4","value":"21-3259825"}],"active":true,"type":[{"coding":[{"system":"http://terminology.hl7.org/CodeSystem/organization-type","code":"pay","display":"Payer"}]}],"name":"Blue Cross Blue Shield of Texas","telecom":[{"system":"phone","value":"(+1) 972-766-6900"}],"address":[{"use":"billing","type":"postal","line":["P.O. Box 660044"],"city":"Dallas","state":"TX","postalCode":"75266-0044","country":"USA"}]},"request":{"method":"PUT","url":"Organization/db141f66-a1cc-407b-9e95-adac27adee14"}},{"fullUrl":"https://madie.cms.gov/Practitioner/a7a2cc16-0059-493e-a99e-61b8e9c5aa9a","resource":{"resourceType":"Practitioner","id":"a7a2cc16-0059-493e-a99e-61b8e9c5aa9a","identifier":[{"system":"http://hl7.org/fhir/sid/us-npi","value":"123456"}],"name":[{"family":"Evil","prefix":["Dr"]}]},"request":{"method":"PUT","url":"Practitioner/a7a2cc16-0059-493e-a99e-61b8e9c5aa9a"}},{"fullUrl":"https://madie.cms.gov/MeasureReport/c72242d9-cf73-48d0-afef-a4817119de8d","resource":{"resourceType":"MeasureReport","id":"c72242d9-cf73-48d0-afef-a4817119de8d","meta":{"profile":["http://hl7.org/fhir/us/cqfmeasures/StructureDefinition/test-case-cqfm"]},"contained":[{"resourceType":"Parameters","id":"bba38836-f069-420b-896c-95e6d0de7ff7-parameters","parameter":[{"name":"subject","valueString":"0a32d341-2fc9-4d8b-94ac-92b6bdccff6c"}]}],"extension":[{"url":"http://hl7.org/fhir/us/cqfmeasures/StructureDefinition/cqfm-inputParameters","valueReference":{"reference":"#bba38836-f069-420b-896c-95e6d0de7ff7-parameters"}},{"url":"http://hl7.org/fhir/us/cqfmeasures/StructureDefinition/cqfm-testCaseDescription","valueMarkdown":"IntracranialSurgery=1DayAfterICUStart\n"}],"modifierExtension":[{"url":"http://hl7.org/fhir/us/cqfmeasures/StructureDefinition/cqfm-isTestCase","valueBoolean":true}],"status":"complete","type":"individual","measure":"https://madie.cms.gov/Measure/CMS190VTEProphylaxisICUFHIR","period":{"start":"2026-01-01","end":"2026-12-31"},"group":[{"population":[{"code":{"coding":[{"system":"http://terminology.hl7.org/CodeSystem/measure-population","code":"initial-population","display":"Initial Population"}]},"count":1},{"code":{"coding":[{"system":"http://terminology.hl7.org/CodeSystem/measure-population","code":"denominator","display":"Denominator"}]},"count":1},{"code":{"coding":[{"system":"http://terminology.hl7.org/CodeSystem/measure-population","code":"denominator-exclusion","display":"Denominator Exclusion"}]},"count":1},{"code":{"coding":[{"system":"http://terminology.hl7.org/CodeSystem/measure-population","code":"numerator","display":"Numerator"}]},"count":0},{"code":{"coding":[{"system":"http://terminology.hl7.org/CodeSystem/measure-population","code":"denominator-exception","display":"Denominator Exception"}]},"count":0}]}]},"request":{"method":"PUT","url":"MeasureReport/c72242d9-cf73-48d0-afef-a4817119de8d"}}]}