{"resourceType":"Bundle","id":"tests-28424502-1b12-461c-937e-d16c3c4716b7-bundle","type":"transaction","entry":[{"fullUrl":"https://madie.cms.gov/Patient/28424502-1b12-461c-937e-d16c3c4716b7","resource":{"resourceType":"Patient","id":"28424502-1b12-461c-937e-d16c3c4716b7","meta":{"profile":["http://hl7.org/fhir/us/qicore/StructureDefinition/qicore-patient"]},"text":{"status":"generated","div":"<div xmlns=\"http://www.w3.org/1999/xhtml\"><div class=\"hapiHeaderText\">MARivDuringICU <b>NUMERPASS </b></div><table class=\"hapiPropertyTable\"><tbody><tr><td>Identifier</td><td>0f1ead663b0075a3e74fb3655fe4cfdf</td></tr><tr><td>Date of birth</td><td><span>03 March 1974</span></td></tr></tbody></table></div>"},"extension":[{"url":"http://hl7.org/fhir/us/core/StructureDefinition/us-core-race","extension":[{"url":"ombCategory","valueCoding":{"system":"urn:oid:2.16.840.1.113883.6.238","code":"1002-5","display":"American Indian or Alaska Native","userSelected":true}},{"url":"text","valueString":"American Indian or Alaska Native"}]},{"url":"http://hl7.org/fhir/us/core/StructureDefinition/us-core-ethnicity","extension":[{"url":"ombCategory","valueCoding":{"system":"urn:oid:2.16.840.1.113883.6.238","code":"2135-2","display":"Hispanic or Latino","userSelected":true}},{"url":"text","valueString":"Hispanic or Latino"}]}],"identifier":[{"type":{"coding":[{"system":"http://terminology.hl7.org/CodeSystem/v2-0203","code":"MR"}]},"system":"https://bonnie-fhir.healthit.gov/","value":"612e6f7d02c62a011f2f2008"}],"active":true,"name":[{"use":"usual","family":"NUMERPass","given":["MARivDuringICU"]}],"gender":"female","birthDate":"1975-03-03"},"request":{"method":"PUT","url":"Patient/28424502-1b12-461c-937e-d16c3c4716b7"}},{"fullUrl":"https://madie.cms.gov/Encounter/adb1f79a-b2f1-46ea-a990-ebec52224ad0","resource":{"resourceType":"Encounter","id":"adb1f79a-b2f1-46ea-a990-ebec52224ad0","meta":{"profile":["http://hl7.org/fhir/us/qicore/StructureDefinition/qicore-encounter"]},"status":"finished","class":{"system":"http://terminology.hl7.org/CodeSystem/v3-ActCode","code":"IMP","display":"inpatient encounter"},"type":[{"coding":[{"system":"http://snomed.info/sct","code":"8715000"}]}],"subject":{"reference":"Patient/28424502-1b12-461c-937e-d16c3c4716b7"},"period":{"start":"2026-12-04T08:00:00+00:00","end":"2026-12-30T08:15:00+00:00"},"length":{"value":26.0,"unit":"days"},"location":[{"location":{"reference":"Location/3e71a209-84f5-4d57-904b-9080cfb719cd"},"period":{"start":"2026-12-06T09:00:00.000+00:00","end":"2026-12-12T08:15:00.000+00:00"}}]},"request":{"method":"PUT","url":"Encounter/adb1f79a-b2f1-46ea-a990-ebec52224ad0"}},{"fullUrl":"https://madie.cms.gov/Coverage/e009b67b-5ac3-4f92-be76-79a85ecb304c","resource":{"resourceType":"Coverage","id":"e009b67b-5ac3-4f92-be76-79a85ecb304c","status":"active","beneficiary":{"reference":"Patient/28424502-1b12-461c-937e-d16c3c4716b7"},"period":{"start":"1975-03-03T08:00:00+00:00"},"payor":[{"reference":"Organization/f4907415-83c5-4eae-ab0b-cb63a840880d"}]},"request":{"method":"PUT","url":"Coverage/e009b67b-5ac3-4f92-be76-79a85ecb304c"}},{"fullUrl":"https://madie.cms.gov/Location/3e71a209-84f5-4d57-904b-9080cfb719cd","resource":{"resourceType":"Location","id":"3e71a209-84f5-4d57-904b-9080cfb719cd","meta":{"profile":["http://hl7.org/fhir/us/qicore/StructureDefinition/qicore-location"]},"identifier":[{"use":"usual","system":"http://exampleoflocation.com","value":"B1-S.F2"}],"name":"Medical Surgical East, first floor","type":[{"coding":[{"system":"https://www.cdc.gov/nhsn/cdaportal/terminology/codesystem/hsloc.html","version":"2020","code":"1025-6","display":"Trauma Critical Care","userSelected":true}]}]},"request":{"method":"PUT","url":"Location/3e71a209-84f5-4d57-904b-9080cfb719cd"}},{"fullUrl":"https://madie.cms.gov/MedicationAdministration/82bfc18f-8214-4151-b92c-dc1340f9000f","resource":{"resourceType":"MedicationAdministration","id":"82bfc18f-8214-4151-b92c-dc1340f9000f","meta":{"profile":["http://hl7.org/fhir/us/qicore/StructureDefinition/qicore-medicationadministration"]},"status":"completed","medicationCodeableConcept":{"coding":[{"system":"http://www.nlm.nih.gov/research/umls/rxnorm","code":"1114198"}]},"subject":{"reference":"Patient/28424502-1b12-461c-937e-d16c3c4716b7"},"effectivePeriod":{"start":"2026-12-06T11:00:00+00:00","end":"2026-12-06T11:05:00+00:00"}},"request":{"method":"PUT","url":"MedicationAdministration/82bfc18f-8214-4151-b92c-dc1340f9000f"}},{"fullUrl":"https://madie.cms.gov/Organization/67c06881-e910-46fb-897d-0b55aa2ccece","resource":{"resourceType":"Organization","id":"f4907415-83c5-4eae-ab0b-cb63a840880d","meta":{"profile":["http://hl7.org/fhir/us/qicore/StructureDefinition/qicore-organization"]},"identifier":[{"use":"temp","system":"urn:oid:2.16.840.1.113883.4.4","value":"21-3259825"}],"active":true,"type":[{"coding":[{"system":"http://terminology.hl7.org/CodeSystem/organization-type","code":"pay","display":"Payer"}]}],"name":"Blue Cross Blue Shield of Texas","telecom":[{"system":"phone","value":"(+1) 972-766-6900"}],"address":[{"use":"billing","type":"postal","line":["P.O. Box 660044"],"city":"Dallas","state":"TX","postalCode":"75266-0044","country":"USA"}]},"request":{"method":"PUT","url":"Organization/f4907415-83c5-4eae-ab0b-cb63a840880d"}},{"fullUrl":"https://madie.cms.gov/MeasureReport/a41d4e08-e8fb-4614-be81-6bdc7a7f028e","resource":{"resourceType":"MeasureReport","id":"a41d4e08-e8fb-4614-be81-6bdc7a7f028e","meta":{"profile":["http://hl7.org/fhir/us/cqfmeasures/StructureDefinition/test-case-cqfm"]},"contained":[{"resourceType":"Parameters","id":"9916d7c4-d2e9-45d5-a114-c8d80b13df12-parameters","parameter":[{"name":"subject","valueString":"28424502-1b12-461c-937e-d16c3c4716b7"}]}],"extension":[{"url":"http://hl7.org/fhir/us/cqfmeasures/StructureDefinition/cqfm-inputParameters","valueReference":{"reference":"#9916d7c4-d2e9-45d5-a114-c8d80b13df12-parameters"}},{"url":"http://hl7.org/fhir/us/cqfmeasures/StructureDefinition/cqfm-testCaseDescription","valueMarkdown":"Rivaroxaban and Betrixaban for VTE Prophylaxis was administered  during ICU admission\n"}],"modifierExtension":[{"url":"http://hl7.org/fhir/us/cqfmeasures/StructureDefinition/cqfm-isTestCase","valueBoolean":true}],"status":"complete","type":"individual","measure":"https://madie.cms.gov/Measure/CMS190VTEProphylaxisICUFHIR","period":{"start":"2026-01-01","end":"2026-12-31"},"group":[{"population":[{"code":{"coding":[{"system":"http://terminology.hl7.org/CodeSystem/measure-population","code":"initial-population","display":"Initial Population"}]},"count":1},{"code":{"coding":[{"system":"http://terminology.hl7.org/CodeSystem/measure-population","code":"denominator","display":"Denominator"}]},"count":1},{"code":{"coding":[{"system":"http://terminology.hl7.org/CodeSystem/measure-population","code":"denominator-exclusion","display":"Denominator Exclusion"}]},"count":0},{"code":{"coding":[{"system":"http://terminology.hl7.org/CodeSystem/measure-population","code":"numerator","display":"Numerator"}]},"count":1},{"code":{"coding":[{"system":"http://terminology.hl7.org/CodeSystem/measure-population","code":"denominator-exception","display":"Denominator Exception"}]},"count":0}]}]},"request":{"method":"PUT","url":"MeasureReport/a41d4e08-e8fb-4614-be81-6bdc7a7f028e"}}]}