{"resourceType":"Bundle","id":"tests-a2563ca7-fda7-4cfd-a5cf-a688225749e2-bundle","type":"transaction","entry":[{"fullUrl":"https://madie.cms.gov/Patient/a2563ca7-fda7-4cfd-a5cf-a688225749e2","resource":{"resourceType":"Patient","id":"a2563ca7-fda7-4cfd-a5cf-a688225749e2","meta":{"profile":["http://hl7.org/fhir/us/qicore/StructureDefinition/qicore-patient"]},"text":{"status":"generated","div":"<div xmlns=\"http://www.w3.org/1999/xhtml\"><div class=\"hapiHeaderText\">FactorXa1MinAfterICUStartDxAFib <b>NUMERPASS </b></div><table class=\"hapiPropertyTable\"><tbody><tr><td>Identifier</td><td>213d087eb3bd92b3f3f6cdf55e6533f5</td></tr><tr><td>Date of birth</td><td><span>03 March 1974</span></td></tr></tbody></table></div>"},"extension":[{"url":"http://hl7.org/fhir/us/core/StructureDefinition/us-core-race","extension":[{"url":"ombCategory","valueCoding":{"system":"urn:oid:2.16.840.1.113883.6.238","code":"1002-5","display":"American Indian or Alaska Native","userSelected":true}},{"url":"text","valueString":"American Indian or Alaska Native"}]},{"url":"http://hl7.org/fhir/us/core/StructureDefinition/us-core-ethnicity","extension":[{"url":"ombCategory","valueCoding":{"system":"urn:oid:2.16.840.1.113883.6.238","code":"2135-2","display":"Hispanic or Latino","userSelected":true}},{"url":"text","valueString":"Hispanic or Latino"}]}],"identifier":[{"type":{"coding":[{"system":"http://terminology.hl7.org/CodeSystem/v2-0203","code":"MR"}]},"system":"https://bonnie-fhir.healthit.gov/","value":"612e6f3902c62a011f2f1183"}],"active":true,"name":[{"use":"usual","family":"NUMERPass","given":["FactorXa1MinAfterICUStartDxAFib"]}],"gender":"female","birthDate":"1975-03-03"},"request":{"method":"PUT","url":"Patient/a2563ca7-fda7-4cfd-a5cf-a688225749e2"}},{"fullUrl":"https://madie.cms.gov/Encounter/720bdf62-3bc9-4134-b4f7-d174da8929cf","resource":{"resourceType":"Encounter","id":"720bdf62-3bc9-4134-b4f7-d174da8929cf","meta":{"profile":["http://hl7.org/fhir/us/qicore/StructureDefinition/qicore-encounter"]},"status":"finished","class":{"system":"http://terminology.hl7.org/CodeSystem/v3-ActCode","code":"IMP","display":"inpatient encounter"},"type":[{"coding":[{"system":"http://snomed.info/sct","code":"8715000"}]}],"subject":{"reference":"Patient/a2563ca7-fda7-4cfd-a5cf-a688225749e2"},"period":{"start":"2026-12-04T08:00:00+00:00","end":"2026-12-30T08:15:00+00:00"},"length":{"value":26.0,"unit":"days"},"location":[{"location":{"reference":"Location/bc02dab5-0ca7-42a5-914a-73517735f06b"},"period":{"start":"2026-12-06T08:00:00.000+00:00","end":"2026-12-08T08:15:00.000+00:00"}}]},"request":{"method":"PUT","url":"Encounter/720bdf62-3bc9-4134-b4f7-d174da8929cf"}},{"fullUrl":"https://madie.cms.gov/Coverage/a586f02e-6e28-46f0-a83e-d2abb88b290b","resource":{"resourceType":"Coverage","id":"a586f02e-6e28-46f0-a83e-d2abb88b290b","status":"active","beneficiary":{"reference":"Patient/a2563ca7-fda7-4cfd-a5cf-a688225749e2"},"period":{"start":"1975-03-03T08:00:00+00:00"},"payor":[{"reference":"Organization/db141f66-a1cc-407b-9e95-adac27adee14"}]},"request":{"method":"PUT","url":"Coverage/a586f02e-6e28-46f0-a83e-d2abb88b290b"}},{"fullUrl":"https://madie.cms.gov/MedicationAdministration/32d92215-f896-4da3-a1ba-4df03d1c23fe","resource":{"resourceType":"MedicationAdministration","id":"32d92215-f896-4da3-a1ba-4df03d1c23fe","meta":{"profile":["http://hl7.org/fhir/us/qicore/StructureDefinition/qicore-medicationadministration"]},"status":"completed","medicationCodeableConcept":{"coding":[{"system":"http://www.nlm.nih.gov/research/umls/rxnorm","code":"1364435","display":"apixaban 2.5 MG Oral Tablet","userSelected":true}]},"subject":{"reference":"Patient/a2563ca7-fda7-4cfd-a5cf-a688225749e2"},"effectivePeriod":{"start":"2026-12-07T08:01:00+00:00"}},"request":{"method":"PUT","url":"MedicationAdministration/32d92215-f896-4da3-a1ba-4df03d1c23fe"}},{"fullUrl":"https://madie.cms.gov/Procedure/5f3ec72b-83d8-47b1-b4df-ec3d2d6e7624","resource":{"resourceType":"Procedure","id":"5f3ec72b-83d8-47b1-b4df-ec3d2d6e7624","meta":{"profile":["http://hl7.org/fhir/us/qicore/StructureDefinition/qicore-procedure"]},"extension":[{"url":"http://hl7.org/fhir/us/qicore/StructureDefinition/qicore-recorded","valueDateTime":"2013-12-06T09:35:00-04:00"}],"status":"completed","code":{"coding":[{"system":"http://snomed.info/sct","code":"18946005"}]},"subject":{"reference":"Patient/a2563ca7-fda7-4cfd-a5cf-a688225749e2"},"performedPeriod":{"start":"2026-12-06T08:01:00+00:00","end":"2026-12-06T09:01:00+00:00"}},"request":{"method":"PUT","url":"Procedure/5f3ec72b-83d8-47b1-b4df-ec3d2d6e7624"}},{"fullUrl":"https://madie.cms.gov/Location/bc02dab5-0ca7-42a5-914a-73517735f06b","resource":{"resourceType":"Location","id":"bc02dab5-0ca7-42a5-914a-73517735f06b","meta":{"profile":["http://hl7.org/fhir/us/qicore/StructureDefinition/qicore-location"]},"identifier":[{"use":"usual","system":"http://exampleoflocation.com","value":"B1-S.F2"}],"name":"Medical Surgical East, first floor","type":[{"coding":[{"system":"https://www.cdc.gov/nhsn/cdaportal/terminology/codesystem/hsloc.html","code":"1025-6","display":"Trauma Critical Care","userSelected":true}]}]},"request":{"method":"PUT","url":"Location/bc02dab5-0ca7-42a5-914a-73517735f06b"}},{"fullUrl":"https://madie.cms.gov/Condition/fb84e21c-e0dc-4f74-aa68-ebb6f1d2c9ea","resource":{"resourceType":"Condition","id":"fb84e21c-e0dc-4f74-aa68-ebb6f1d2c9ea","meta":{"profile":["http://hl7.org/fhir/us/qicore/StructureDefinition/qicore-condition"]},"clinicalStatus":{"coding":[{"system":"http://terminology.hl7.org/CodeSystem/condition-clinical","code":"active"}]},"verificationStatus":{"coding":[{"system":"http://terminology.hl7.org/CodeSystem/condition-ver-status","code":"confirmed"}]},"category":[{"coding":[{"system":"http://terminology.hl7.org/CodeSystem/condition-category","code":"problem-list-item","display":"Problem list Item"}]}],"code":{"coding":[{"system":"http://snomed.info/sct","version":"2025-09","code":"120041000119109","display":"Atrial fibrillation with rapid ventricular response (disorder)","userSelected":true}]},"subject":{"reference":"Patient/a2563ca7-fda7-4cfd-a5cf-a688225749e2"},"onsetPeriod":{"start":"2026-12-26T08:15:00+00:00"},"recordedDate":"2026-10-20T08:00:00.000+00:00"},"request":{"method":"PUT","url":"Condition/fb84e21c-e0dc-4f74-aa68-ebb6f1d2c9ea"}},{"fullUrl":"https://madie.cms.gov/Organization/6d2466e5-7f0e-49b3-9727-f67d857ef1a8","resource":{"resourceType":"Organization","id":"db141f66-a1cc-407b-9e95-adac27adee14","meta":{"profile":["http://hl7.org/fhir/us/qicore/StructureDefinition/qicore-organization"]},"identifier":[{"use":"temp","system":"urn:oid:2.16.840.1.113883.4.4","value":"21-3259825"}],"active":true,"type":[{"coding":[{"system":"http://terminology.hl7.org/CodeSystem/organization-type","code":"pay","display":"Payer"}]}],"name":"Blue Cross Blue Shield of Texas","telecom":[{"system":"phone","value":"(+1) 972-766-6900"}],"address":[{"use":"billing","type":"postal","line":["P.O. Box 660044"],"city":"Dallas","state":"TX","postalCode":"75266-0044","country":"USA"}]},"request":{"method":"PUT","url":"Organization/db141f66-a1cc-407b-9e95-adac27adee14"}},{"fullUrl":"https://madie.cms.gov/Practitioner/36fd9c98-181b-4ac9-8dbb-826391ede918","resource":{"resourceType":"Practitioner","id":"36fd9c98-181b-4ac9-8dbb-826391ede918","identifier":[{"system":"http://hl7.org/fhir/sid/us-npi","value":"123456"}],"name":[{"family":"Evil","prefix":["Dr"]}]},"request":{"method":"PUT","url":"Practitioner/36fd9c98-181b-4ac9-8dbb-826391ede918"}},{"fullUrl":"https://madie.cms.gov/MeasureReport/9c5ab2fc-0620-4839-9ad8-9689be770810","resource":{"resourceType":"MeasureReport","id":"9c5ab2fc-0620-4839-9ad8-9689be770810","meta":{"profile":["http://hl7.org/fhir/us/cqfmeasures/StructureDefinition/test-case-cqfm"]},"contained":[{"resourceType":"Parameters","id":"44c295a8-a5a9-40c3-a0ab-48768b190522-parameters","parameter":[{"name":"subject","valueString":"a2563ca7-fda7-4cfd-a5cf-a688225749e2"}]}],"extension":[{"url":"http://hl7.org/fhir/us/cqfmeasures/StructureDefinition/cqfm-inputParameters","valueReference":{"reference":"#44c295a8-a5a9-40c3-a0ab-48768b190522-parameters"}},{"url":"http://hl7.org/fhir/us/cqfmeasures/StructureDefinition/cqfm-testCaseDescription","valueMarkdown":"oral factor Xa administered after Proc, Proc is 1 day after First ICU\n"}],"modifierExtension":[{"url":"http://hl7.org/fhir/us/cqfmeasures/StructureDefinition/cqfm-isTestCase","valueBoolean":true}],"status":"complete","type":"individual","measure":"https://madie.cms.gov/Measure/CMS190VTEProphylaxisICUFHIR","period":{"start":"2026-01-01","end":"2026-12-31"},"group":[{"population":[{"code":{"coding":[{"system":"http://terminology.hl7.org/CodeSystem/measure-population","code":"initial-population","display":"Initial Population"}]},"count":1},{"code":{"coding":[{"system":"http://terminology.hl7.org/CodeSystem/measure-population","code":"denominator","display":"Denominator"}]},"count":1},{"code":{"coding":[{"system":"http://terminology.hl7.org/CodeSystem/measure-population","code":"denominator-exclusion","display":"Denominator Exclusion"}]},"count":0},{"code":{"coding":[{"system":"http://terminology.hl7.org/CodeSystem/measure-population","code":"numerator","display":"Numerator"}]},"count":1},{"code":{"coding":[{"system":"http://terminology.hl7.org/CodeSystem/measure-population","code":"denominator-exception","display":"Denominator Exception"}]},"count":0}]}]},"request":{"method":"PUT","url":"MeasureReport/9c5ab2fc-0620-4839-9ad8-9689be770810"}}]}