{"resourceType":"Bundle","id":"tests-324eb2e7-2beb-4c84-88ff-bdf9fa5d8171-bundle","type":"transaction","entry":[{"fullUrl":"https://madie.cms.gov/Patient/324eb2e7-2beb-4c84-88ff-bdf9fa5d8171","resource":{"resourceType":"Patient","id":"324eb2e7-2beb-4c84-88ff-bdf9fa5d8171","meta":{"profile":["http://hl7.org/fhir/us/qicore/StructureDefinition/qicore-patient"]},"text":{"status":"generated","div":"<div xmlns=\"http://www.w3.org/1999/xhtml\"><div class=\"hapiHeaderText\">MARiv1DayAfterAnesProc1DayAFICUAdm <b>NUMERPASS </b></div><table class=\"hapiPropertyTable\"><tbody><tr><td>Identifier</td><td>64846eeef3495268258129327974b438</td></tr><tr><td>Date of birth</td><td><span>03 March 1974</span></td></tr></tbody></table></div>"},"extension":[{"url":"http://hl7.org/fhir/us/core/StructureDefinition/us-core-race","extension":[{"url":"ombCategory","valueCoding":{"system":"urn:oid:2.16.840.1.113883.6.238","code":"1002-5","display":"American Indian or Alaska Native","userSelected":true}},{"url":"text","valueString":"American Indian or Alaska Native"}]},{"url":"http://hl7.org/fhir/us/core/StructureDefinition/us-core-ethnicity","extension":[{"url":"ombCategory","valueCoding":{"system":"urn:oid:2.16.840.1.113883.6.238","code":"2135-2","display":"Hispanic or Latino","userSelected":true}},{"url":"text","valueString":"Hispanic or Latino"}]}],"identifier":[{"type":{"coding":[{"system":"http://terminology.hl7.org/CodeSystem/v2-0203","code":"MR"}]},"system":"https://bonnie-fhir.healthit.gov/","value":"612e6f7f02c62a011f2f2077"}],"active":true,"name":[{"use":"usual","family":"NUMERPass","given":["MARiv1DayAfterAnesProc1DayAFICUAdm"]}],"gender":"female","birthDate":"1975-03-03"},"request":{"method":"PUT","url":"Patient/324eb2e7-2beb-4c84-88ff-bdf9fa5d8171"}},{"fullUrl":"https://madie.cms.gov/Encounter/3878313a-d7a4-4bec-bdd0-e040149a6af5","resource":{"resourceType":"Encounter","id":"3878313a-d7a4-4bec-bdd0-e040149a6af5","meta":{"profile":["http://hl7.org/fhir/us/qicore/StructureDefinition/qicore-encounter"]},"status":"finished","class":{"system":"http://terminology.hl7.org/CodeSystem/v3-ActCode","code":"IMP","display":"inpatient encounter"},"type":[{"coding":[{"system":"http://snomed.info/sct","code":"8715000"}]}],"subject":{"reference":"Patient/324eb2e7-2beb-4c84-88ff-bdf9fa5d8171"},"period":{"start":"2026-12-04T08:00:00+00:00","end":"2026-12-30T08:15:00+00:00"},"length":{"value":26.0,"unit":"days"},"location":[{"location":{"reference":"Location/a02bb28a-38c7-4c18-994a-18ba6ae80763"},"period":{"start":"2026-12-06T09:00:00.000+00:00","end":"2026-12-12T08:15:00.000+00:00"}}]},"request":{"method":"PUT","url":"Encounter/3878313a-d7a4-4bec-bdd0-e040149a6af5"}},{"fullUrl":"https://madie.cms.gov/Coverage/f2d8383d-846b-4628-912e-b0a52a4b7df2","resource":{"resourceType":"Coverage","id":"f2d8383d-846b-4628-912e-b0a52a4b7df2","status":"active","beneficiary":{"reference":"Patient/324eb2e7-2beb-4c84-88ff-bdf9fa5d8171"},"period":{"start":"1975-03-03T08:00:00+00:00"},"payor":[{"reference":"Organization/db141f66-a1cc-407b-9e95-adac27adee14"}]},"request":{"method":"PUT","url":"Coverage/f2d8383d-846b-4628-912e-b0a52a4b7df2"}},{"fullUrl":"https://madie.cms.gov/MedicationAdministration/739bed99-e814-4d08-ada2-bb58a0fc797f","resource":{"resourceType":"MedicationAdministration","id":"739bed99-e814-4d08-ada2-bb58a0fc797f","meta":{"profile":["http://hl7.org/fhir/us/qicore/StructureDefinition/qicore-medicationadministration"]},"status":"completed","medicationCodeableConcept":{"coding":[{"system":"http://www.nlm.nih.gov/research/umls/rxnorm","code":"1114198"}]},"subject":{"reference":"Patient/324eb2e7-2beb-4c84-88ff-bdf9fa5d8171"},"effectivePeriod":{"start":"2026-12-08T11:30:00+00:00"}},"request":{"method":"PUT","url":"MedicationAdministration/739bed99-e814-4d08-ada2-bb58a0fc797f"}},{"fullUrl":"https://madie.cms.gov/Procedure/fb280885-d7c2-4847-a399-7c20657a8d73","resource":{"resourceType":"Procedure","id":"fb280885-d7c2-4847-a399-7c20657a8d73","meta":{"profile":["http://hl7.org/fhir/us/qicore/StructureDefinition/qicore-procedure"]},"extension":[{"url":"http://hl7.org/fhir/us/qicore/StructureDefinition/qicore-recorded","valueDateTime":"2013-12-07T09:35:00-04:00"}],"status":"completed","code":{"coding":[{"system":"http://www.icd10data.com/icd10pcs","code":"3E030FZ"},{"system":"http://snomed.info/sct","code":"18946005"}]},"subject":{"reference":"Patient/324eb2e7-2beb-4c84-88ff-bdf9fa5d8171"},"performedPeriod":{"start":"2026-12-07T11:00:00+00:00","end":"2026-12-07T11:15:00+00:00"}},"request":{"method":"PUT","url":"Procedure/fb280885-d7c2-4847-a399-7c20657a8d73"}},{"fullUrl":"https://madie.cms.gov/Location/a02bb28a-38c7-4c18-994a-18ba6ae80763","resource":{"resourceType":"Location","id":"a02bb28a-38c7-4c18-994a-18ba6ae80763","meta":{"profile":["http://hl7.org/fhir/us/qicore/StructureDefinition/qicore-location"]},"identifier":[{"use":"usual","system":"http://exampleoflocation.com","value":"B1-S.F2"}],"name":"Medical Surgical East, first floor","type":[{"coding":[{"system":"https://www.cdc.gov/nhsn/cdaportal/terminology/codesystem/hsloc.html","code":"1025-6","display":"Trauma Critical Care","userSelected":true}]}]},"request":{"method":"PUT","url":"Location/a02bb28a-38c7-4c18-994a-18ba6ae80763"}},{"fullUrl":"https://madie.cms.gov/Organization/56401c67-b6bc-47aa-9716-f05718df76f9","resource":{"resourceType":"Organization","id":"db141f66-a1cc-407b-9e95-adac27adee14","meta":{"profile":["http://hl7.org/fhir/us/qicore/StructureDefinition/qicore-organization"]},"identifier":[{"use":"temp","system":"urn:oid:2.16.840.1.113883.4.4","value":"21-3259825"}],"active":true,"type":[{"coding":[{"system":"http://terminology.hl7.org/CodeSystem/organization-type","code":"pay","display":"Payer"}]}],"name":"Blue Cross Blue Shield of Texas","telecom":[{"system":"phone","value":"(+1) 972-766-6900"}],"address":[{"use":"billing","type":"postal","line":["P.O. Box 660044"],"city":"Dallas","state":"TX","postalCode":"75266-0044","country":"USA"}]},"request":{"method":"PUT","url":"Organization/db141f66-a1cc-407b-9e95-adac27adee14"}},{"fullUrl":"https://madie.cms.gov/Practitioner/339bca16-0c81-4fb9-9dc5-39d0d4743dc9","resource":{"resourceType":"Practitioner","id":"339bca16-0c81-4fb9-9dc5-39d0d4743dc9","identifier":[{"system":"http://hl7.org/fhir/sid/us-npi","value":"123456"}],"name":[{"family":"Evil","prefix":["Dr"]}]},"request":{"method":"PUT","url":"Practitioner/339bca16-0c81-4fb9-9dc5-39d0d4743dc9"}},{"fullUrl":"https://madie.cms.gov/MeasureReport/c5f7060c-c5da-4ca4-8943-6abd6b9bcc93","resource":{"resourceType":"MeasureReport","id":"c5f7060c-c5da-4ca4-8943-6abd6b9bcc93","meta":{"profile":["http://hl7.org/fhir/us/cqfmeasures/StructureDefinition/test-case-cqfm"]},"contained":[{"resourceType":"Parameters","id":"c85c617c-d4c2-4c37-aa9c-dc40d1c0c85b-parameters","parameter":[{"name":"subject","valueString":"324eb2e7-2beb-4c84-88ff-bdf9fa5d8171"}]}],"extension":[{"url":"http://hl7.org/fhir/us/cqfmeasures/StructureDefinition/cqfm-inputParameters","valueReference":{"reference":"#c85c617c-d4c2-4c37-aa9c-dc40d1c0c85b-parameters"}},{"url":"http://hl7.org/fhir/us/cqfmeasures/StructureDefinition/cqfm-testCaseDescription","valueMarkdown":"Rivaroxaban for VTE Prophylaxis administered 1 day after neuraxial anesthesia which procedure ends 1 day after ICU Adm date\n"}],"modifierExtension":[{"url":"http://hl7.org/fhir/us/cqfmeasures/StructureDefinition/cqfm-isTestCase","valueBoolean":true}],"status":"complete","type":"individual","measure":"https://madie.cms.gov/Measure/CMS190VTEProphylaxisICUFHIR","period":{"start":"2026-01-01","end":"2026-12-31"},"group":[{"population":[{"code":{"coding":[{"system":"http://terminology.hl7.org/CodeSystem/measure-population","code":"initial-population","display":"Initial Population"}]},"count":1},{"code":{"coding":[{"system":"http://terminology.hl7.org/CodeSystem/measure-population","code":"denominator","display":"Denominator"}]},"count":1},{"code":{"coding":[{"system":"http://terminology.hl7.org/CodeSystem/measure-population","code":"denominator-exclusion","display":"Denominator Exclusion"}]},"count":0},{"code":{"coding":[{"system":"http://terminology.hl7.org/CodeSystem/measure-population","code":"numerator","display":"Numerator"}]},"count":1},{"code":{"coding":[{"system":"http://terminology.hl7.org/CodeSystem/measure-population","code":"denominator-exception","display":"Denominator Exception"}]},"count":0}]}]},"request":{"method":"PUT","url":"MeasureReport/c5f7060c-c5da-4ca4-8943-6abd6b9bcc93"}}]}