{"resourceType":"Bundle","id":"tests-7c2abf9a-4d88-48a4-b962-b20c4b470842-bundle","type":"transaction","entry":[{"fullUrl":"https://madie.cms.gov/Patient/7c2abf9a-4d88-48a4-b962-b20c4b470842","resource":{"resourceType":"Patient","id":"7c2abf9a-4d88-48a4-b962-b20c4b470842","meta":{"profile":["http://hl7.org/fhir/us/qicore/StructureDefinition/qicore-patient"]},"text":{"status":"generated","div":"<div xmlns=\"http://www.w3.org/1999/xhtml\"><div class=\"hapiHeaderText\">CMOPerf1minB4EdED1DayBFAdmAndGT1hr <b>DENEXFAIL </b></div><table class=\"hapiPropertyTable\"><tbody><tr><td>Identifier</td><td>19362d12dad92b89d616cce95b9dd94b08155ace603af08b2c07f3c1a79b307f</td></tr><tr><td>Date of birth</td><td><span>01 October 1954</span></td></tr></tbody></table></div>"},"extension":[{"url":"http://hl7.org/fhir/us/core/StructureDefinition/us-core-race","extension":[{"url":"ombCategory","valueCoding":{"system":"urn:oid:2.16.840.1.113883.6.238","code":"1002-5","display":"American Indian or Alaska Native","userSelected":true}},{"url":"text","valueString":"American Indian or Alaska Native"}]},{"url":"http://hl7.org/fhir/us/core/StructureDefinition/us-core-ethnicity","extension":[{"url":"ombCategory","valueCoding":{"system":"urn:oid:2.16.840.1.113883.6.238","code":"2135-2","display":"Hispanic or Latino","userSelected":true}},{"url":"text","valueString":"Hispanic or Latino"}]}],"identifier":[{"type":{"coding":[{"system":"http://terminology.hl7.org/CodeSystem/v2-0203","code":"MR"}]},"system":"https://bonnie-fhir.healthit.gov/","value":"612e6f6702c62a011f2f1b06"}],"active":true,"name":[{"use":"usual","family":"DENEXFail","given":["CMOPerf1minB4EdED1DayBFAdmAndGT1hr"]}],"gender":"male","birthDate":"1955-10-01"},"request":{"method":"PUT","url":"Patient/7c2abf9a-4d88-48a4-b962-b20c4b470842"}},{"fullUrl":"https://madie.cms.gov/Encounter/e27e2d7b-ef8d-4396-8596-7fb31aee53ff","resource":{"resourceType":"Encounter","id":"e27e2d7b-ef8d-4396-8596-7fb31aee53ff","meta":{"profile":["http://hl7.org/fhir/us/qicore/StructureDefinition/qicore-encounter"]},"status":"finished","class":{"system":"http://terminology.hl7.org/CodeSystem/v3-ActCode","code":"EMER","display":"emergency"},"type":[{"coding":[{"system":"http://snomed.info/sct","code":"4525004"}]}],"subject":{"reference":"Patient/7c2abf9a-4d88-48a4-b962-b20c4b470842"},"period":{"start":"2026-12-03T15:00:00+00:00","end":"2026-12-04T02:00:00+00:00"},"length":{"value":1.0,"unit":"days"}},"request":{"method":"PUT","url":"Encounter/e27e2d7b-ef8d-4396-8596-7fb31aee53ff"}},{"fullUrl":"https://madie.cms.gov/Encounter/0ffe5840-a557-489f-8c8f-cba1121f70cd","resource":{"resourceType":"Encounter","id":"0ffe5840-a557-489f-8c8f-cba1121f70cd","meta":{"profile":["http://hl7.org/fhir/us/qicore/StructureDefinition/qicore-encounter"]},"status":"finished","class":{"system":"http://terminology.hl7.org/CodeSystem/v3-ActCode","code":"IMP","display":"inpatient encounter"},"type":[{"coding":[{"system":"http://snomed.info/sct","code":"8715000"}]}],"subject":{"reference":"Patient/7c2abf9a-4d88-48a4-b962-b20c4b470842"},"period":{"start":"2026-12-04T06:40:00+00:00","end":"2026-12-30T08:15:00+00:00"},"length":{"value":26.0,"unit":"days"},"location":[{"location":{"reference":"Location/3ec813ec-c41f-4ef3-8158-65a0b3afa432"},"period":{"start":"2026-12-26T08:00:00.000+00:00","end":"2026-12-28T08:15:00.000+00:00"}}]},"request":{"method":"PUT","url":"Encounter/0ffe5840-a557-489f-8c8f-cba1121f70cd"}},{"fullUrl":"https://madie.cms.gov/Procedure/cf59d706-1e17-4540-8da3-1900a687a217","resource":{"resourceType":"Procedure","id":"cf59d706-1e17-4540-8da3-1900a687a217","meta":{"profile":["http://hl7.org/fhir/us/qicore/StructureDefinition/qicore-procedure"]},"extension":[{"url":"http://hl7.org/fhir/us/qicore/StructureDefinition/qicore-recorded","valueDateTime":"2013-12-04T09:35:00-04:00"}],"status":"completed","code":{"coding":[{"system":"http://snomed.info/sct","code":"133918004"}]},"subject":{"reference":"Patient/7c2abf9a-4d88-48a4-b962-b20c4b470842"},"performedPeriod":{"start":"2026-12-03T14:59:00+00:00"}},"request":{"method":"PUT","url":"Procedure/cf59d706-1e17-4540-8da3-1900a687a217"}},{"fullUrl":"https://madie.cms.gov/Coverage/f61c445a-f95c-4044-bcb7-35feb31640aa","resource":{"resourceType":"Coverage","id":"f61c445a-f95c-4044-bcb7-35feb31640aa","status":"active","beneficiary":{"reference":"Patient/7c2abf9a-4d88-48a4-b962-b20c4b470842"},"period":{"start":"1975-03-03T08:00:00+00:00"},"payor":[{"reference":"Organization/f4907415-83c5-4eae-ab0b-cb63a840880d"}]},"request":{"method":"PUT","url":"Coverage/f61c445a-f95c-4044-bcb7-35feb31640aa"}},{"fullUrl":"https://madie.cms.gov/Location/3ec813ec-c41f-4ef3-8158-65a0b3afa432","resource":{"resourceType":"Location","id":"3ec813ec-c41f-4ef3-8158-65a0b3afa432","meta":{"profile":["http://hl7.org/fhir/us/qicore/StructureDefinition/qicore-location"]},"identifier":[{"use":"usual","system":"http://exampleoflocation.com","value":"B1-S.F2"}],"name":"Medical Surgical East, first floor","type":[{"coding":[{"system":"https://www.cdc.gov/nhsn/cdaportal/terminology/codesystem/hsloc.html","code":"1025-6","display":"Trauma Critical Care","userSelected":true}]}]},"request":{"method":"PUT","url":"Location/3ec813ec-c41f-4ef3-8158-65a0b3afa432"}},{"fullUrl":"https://madie.cms.gov/Organization/1fe0ee04-7049-44d6-ac5c-1b1d7a1edb61","resource":{"resourceType":"Organization","id":"f4907415-83c5-4eae-ab0b-cb63a840880d","meta":{"profile":["http://hl7.org/fhir/us/qicore/StructureDefinition/qicore-organization"]},"identifier":[{"use":"temp","system":"urn:oid:2.16.840.1.113883.4.4","value":"21-3259825"}],"active":true,"type":[{"coding":[{"system":"http://terminology.hl7.org/CodeSystem/organization-type","code":"pay","display":"Payer"}]}],"name":"Blue Cross Blue Shield of Texas","telecom":[{"system":"phone","value":"(+1) 972-766-6900"}],"address":[{"use":"billing","type":"postal","line":["P.O. Box 660044"],"city":"Dallas","state":"TX","postalCode":"75266-0044","country":"USA"}]},"request":{"method":"PUT","url":"Organization/f4907415-83c5-4eae-ab0b-cb63a840880d"}},{"fullUrl":"https://madie.cms.gov/Practitioner/b1b3628e-af8f-41c1-adb6-d6130786d3bf","resource":{"resourceType":"Practitioner","id":"b1b3628e-af8f-41c1-adb6-d6130786d3bf","identifier":[{"system":"http://hl7.org/fhir/sid/us-npi","value":"123456"}],"name":[{"family":"Evil","prefix":["Dr"]}]},"request":{"method":"PUT","url":"Practitioner/b1b3628e-af8f-41c1-adb6-d6130786d3bf"}},{"fullUrl":"https://madie.cms.gov/MeasureReport/078beac9-656a-4be4-ab37-34571c657d77","resource":{"resourceType":"MeasureReport","id":"078beac9-656a-4be4-ab37-34571c657d77","meta":{"profile":["http://hl7.org/fhir/us/cqfmeasures/StructureDefinition/test-case-cqfm"]},"contained":[{"resourceType":"Parameters","id":"2c1f11e3-96a2-48c0-b6ea-4242bed63ba7-parameters","parameter":[{"name":"subject","valueString":"7c2abf9a-4d88-48a4-b962-b20c4b470842"}]}],"extension":[{"url":"http://hl7.org/fhir/us/cqfmeasures/StructureDefinition/cqfm-inputParameters","valueReference":{"reference":"#2c1f11e3-96a2-48c0-b6ea-4242bed63ba7-parameters"}},{"url":"http://hl7.org/fhir/us/cqfmeasures/StructureDefinition/cqfm-testCaseDescription","valueMarkdown":"inpatient visit starts >1 hour after the end of ED visit(Global Hosp with Ed, Ed cross midnight) AND Comfort Measures are performed 1 min before ED. This case failed DENExcl because CMO is on ED day1 and ED is NOT qualified\n"}],"modifierExtension":[{"url":"http://hl7.org/fhir/us/cqfmeasures/StructureDefinition/cqfm-isTestCase","valueBoolean":true}],"status":"complete","type":"individual","measure":"https://madie.cms.gov/Measure/CMS190VTEProphylaxisICUFHIR","period":{"start":"2026-01-01","end":"2026-12-31"},"group":[{"population":[{"code":{"coding":[{"system":"http://terminology.hl7.org/CodeSystem/measure-population","code":"initial-population","display":"Initial Population"}]},"count":1},{"code":{"coding":[{"system":"http://terminology.hl7.org/CodeSystem/measure-population","code":"denominator","display":"Denominator"}]},"count":1},{"code":{"coding":[{"system":"http://terminology.hl7.org/CodeSystem/measure-population","code":"denominator-exclusion","display":"Denominator Exclusion"}]},"count":0},{"code":{"coding":[{"system":"http://terminology.hl7.org/CodeSystem/measure-population","code":"numerator","display":"Numerator"}]},"count":0},{"code":{"coding":[{"system":"http://terminology.hl7.org/CodeSystem/measure-population","code":"denominator-exception","display":"Denominator Exception"}]},"count":0}]}]},"request":{"method":"PUT","url":"MeasureReport/078beac9-656a-4be4-ab37-34571c657d77"}}]}