{"resourceType":"Bundle","id":"tests-88086c39-a440-43ae-b015-f399190c9589-bundle","type":"transaction","entry":[{"fullUrl":"https://madie.cms.gov/Patient/88086c39-a440-43ae-b015-f399190c9589","resource":{"resourceType":"Patient","id":"88086c39-a440-43ae-b015-f399190c9589","meta":{"profile":["http://hl7.org/fhir/us/qicore/StructureDefinition/qicore-patient"]},"text":{"status":"generated","div":"<div xmlns=\"http://www.w3.org/1999/xhtml\"><div class=\"hapiHeaderText\">PtRefMOWarfEDendTimeEQEncStartTime <b>NUMERPASS </b></div><table class=\"hapiPropertyTable\"><tbody><tr><td>Identifier</td><td>35e854fe06e36e7e02449812c3316da3</td></tr><tr><td>Date of birth</td><td><span>02 January 1974</span></td></tr></tbody></table></div>"},"extension":[{"url":"http://hl7.org/fhir/us/core/StructureDefinition/us-core-race","extension":[{"url":"ombCategory","valueCoding":{"system":"urn:oid:2.16.840.1.113883.6.238","code":"1002-5","display":"American Indian or Alaska Native","userSelected":true}},{"url":"text","valueString":"American Indian or Alaska Native"}]},{"url":"http://hl7.org/fhir/us/core/StructureDefinition/us-core-ethnicity","extension":[{"url":"ombCategory","valueCoding":{"system":"urn:oid:2.16.840.1.113883.6.238","code":"2135-2","display":"Hispanic or Latino","userSelected":true}},{"url":"text","valueString":"Hispanic or Latino"}]}],"identifier":[{"type":{"coding":[{"system":"http://terminology.hl7.org/CodeSystem/v2-0203","code":"MR"}]},"system":"https://bonnie-fhir.healthit.gov/","value":"612e6b5002c62a011f2ed433"}],"active":true,"name":[{"use":"usual","family":"NUMERPass","given":["PtRefMOWarfEDendTimeEQEncStartTime"]}],"gender":"male","birthDate":"1975-01-02"},"request":{"method":"PUT","url":"Patient/88086c39-a440-43ae-b015-f399190c9589"}},{"fullUrl":"https://madie.cms.gov/Encounter/1c1cc050-ee2c-4ac5-a224-28377b49b669","resource":{"resourceType":"Encounter","id":"1c1cc050-ee2c-4ac5-a224-28377b49b669","meta":{"profile":["http://hl7.org/fhir/us/qicore/StructureDefinition/qicore-encounter"]},"status":"finished","class":{"system":"http://terminology.hl7.org/CodeSystem/v3-ActCode","code":"EMER","display":"emergency"},"type":[{"coding":[{"system":"http://snomed.info/sct","code":"4525004"}]}],"subject":{"reference":"Patient/88086c39-a440-43ae-b015-f399190c9589"},"period":{"start":"2026-10-31T05:00:00+00:00","end":"2026-11-01T08:00:00+00:00"},"length":{"value":1,"unit":"days"}},"request":{"method":"PUT","url":"Encounter/1c1cc050-ee2c-4ac5-a224-28377b49b669"}},{"fullUrl":"https://madie.cms.gov/Encounter/3bca0183-e421-4fd9-9fba-f01b06fbd4f1","resource":{"resourceType":"Encounter","id":"3bca0183-e421-4fd9-9fba-f01b06fbd4f1","meta":{"profile":["http://hl7.org/fhir/us/qicore/StructureDefinition/qicore-encounter"]},"status":"finished","class":{"system":"http://terminology.hl7.org/CodeSystem/v3-ActCode","code":"IMP","display":"inpatient encounter"},"type":[{"coding":[{"system":"http://snomed.info/sct","code":"8715000"}]}],"subject":{"reference":"Patient/88086c39-a440-43ae-b015-f399190c9589"},"period":{"start":"2026-11-01T08:00:00+00:00","end":"2026-11-26T08:15:00+00:00"},"length":{"value":25,"unit":"days"},"location":[{"location":{"reference":"Location/6daa9ef8-1507-4425-ba5f-b342a770b2e2"},"period":{"start":"2026-11-04T09:00:00.000+00:00","end":"2026-11-06T08:15:00.000+00:00"}}]},"request":{"method":"PUT","url":"Encounter/3bca0183-e421-4fd9-9fba-f01b06fbd4f1"}},{"fullUrl":"https://madie.cms.gov/Coverage/da4088a2-4fdd-495b-bd02-1501616682eb","resource":{"resourceType":"Coverage","id":"da4088a2-4fdd-495b-bd02-1501616682eb","status":"active","beneficiary":{"reference":"Patient/88086c39-a440-43ae-b015-f399190c9589"},"period":{"start":"1975-01-02T08:00:00+00:00"},"payor":[{"reference":"Organization/3778262e-e084-4bb5-9a47-1a144735f786"}]},"request":{"method":"PUT","url":"Coverage/da4088a2-4fdd-495b-bd02-1501616682eb"}},{"fullUrl":"https://madie.cms.gov/MedicationRequest/decd75cf-74ae-4d0b-9cbb-54776024a9cc","resource":{"resourceType":"MedicationRequest","id":"decd75cf-74ae-4d0b-9cbb-54776024a9cc","meta":{"profile":["http://hl7.org/fhir/us/qicore/StructureDefinition/qicore-mednotrequested"]},"status":"completed","intent":"order","category":[{"coding":[{"system":"http://terminology.hl7.org/CodeSystem/medicationrequest-category","code":"community"}]}],"doNotPerform":true,"medicationCodeableConcept":{"coding":[{"system":"http://www.nlm.nih.gov/research/umls/rxnorm","code":"855288"}]},"subject":{"reference":"Patient/88086c39-a440-43ae-b015-f399190c9589"},"authoredOn":"2026-11-01T07:00:00+00:00","requester":{"reference":"Practitioner/123456"},"reasonCode":[{"coding":[{"system":"http://snomed.info/sct","code":"443390004","display":"Refusal of treatment by patient (situation)","userSelected":true}]}]},"request":{"method":"PUT","url":"MedicationRequest/decd75cf-74ae-4d0b-9cbb-54776024a9cc"}},{"fullUrl":"https://madie.cms.gov/Location/6daa9ef8-1507-4425-ba5f-b342a770b2e2","resource":{"resourceType":"Location","id":"6daa9ef8-1507-4425-ba5f-b342a770b2e2","meta":{"profile":["http://hl7.org/fhir/us/qicore/StructureDefinition/qicore-location"]},"identifier":[{"use":"usual","system":"http://exampleoflocation.com","value":"B1-S.F2"}],"name":"Medical Surgical East, first floor","type":[{"coding":[{"system":"https://www.cdc.gov/nhsn/cdaportal/terminology/codesystem/hsloc.html","code":"1025-6","display":"Trauma Critical Care","userSelected":true}]}]},"request":{"method":"PUT","url":"Location/6daa9ef8-1507-4425-ba5f-b342a770b2e2"}},{"fullUrl":"https://madie.cms.gov/Organization/0ad256e4-9203-4b0e-b87c-2c961af8498c","resource":{"resourceType":"Organization","id":"3778262e-e084-4bb5-9a47-1a144735f786","meta":{"profile":["http://hl7.org/fhir/us/qicore/StructureDefinition/qicore-organization"]},"identifier":[{"use":"temp","system":"urn:oid:2.16.840.1.113883.4.4","value":"21-3259825"}],"active":true,"type":[{"coding":[{"system":"http://terminology.hl7.org/CodeSystem/organization-type","code":"pay","display":"Payer"}]}],"name":"Blue Cross Blue Shield of Texas","telecom":[{"system":"phone","value":"(+1) 972-766-6900"}],"address":[{"use":"billing","type":"postal","line":["P.O. Box 660044"],"city":"Dallas","state":"TX","postalCode":"75266-0044","country":"USA"}]},"request":{"method":"PUT","url":"Organization/3778262e-e084-4bb5-9a47-1a144735f786"}},{"fullUrl":"https://madie.cms.gov/Practitioner/c96e62fa-93c2-41b3-ba04-e00d850dce2a","resource":{"resourceType":"Practitioner","id":"c96e62fa-93c2-41b3-ba04-e00d850dce2a","identifier":[{"system":"http://hl7.org/fhir/sid/us-npi","value":"123456"}],"name":[{"family":"Evil","prefix":["Dr"]}]},"request":{"method":"PUT","url":"Practitioner/c96e62fa-93c2-41b3-ba04-e00d850dce2a"}},{"fullUrl":"https://madie.cms.gov/MeasureReport/f00ca00f-1d65-4d8f-8c57-0ea8b917f402","resource":{"resourceType":"MeasureReport","id":"f00ca00f-1d65-4d8f-8c57-0ea8b917f402","meta":{"profile":["http://hl7.org/fhir/us/cqfmeasures/StructureDefinition/test-case-cqfm"]},"contained":[{"resourceType":"Parameters","id":"89771567-813e-4c04-a2db-99cddb1b95f9-parameters","parameter":[{"name":"subject","valueString":"88086c39-a440-43ae-b015-f399190c9589"}]}],"extension":[{"url":"http://hl7.org/fhir/us/cqfmeasures/StructureDefinition/cqfm-inputParameters","valueReference":{"reference":"#89771567-813e-4c04-a2db-99cddb1b95f9-parameters"}},{"url":"http://hl7.org/fhir/us/cqfmeasures/StructureDefinition/cqfm-testCaseDescription","valueMarkdown":"meets IPP, meets Denominator, Warfarin admin not done patient Refusal - during ED\n"}],"modifierExtension":[{"url":"http://hl7.org/fhir/us/cqfmeasures/StructureDefinition/cqfm-isTestCase","valueBoolean":true}],"status":"complete","type":"individual","measure":"https://madie.cms.gov/Measure/CMS190VTEProphylaxisICUFHIR","period":{"start":"2026-01-01","end":"2026-12-31"},"group":[{"population":[{"code":{"coding":[{"system":"http://terminology.hl7.org/CodeSystem/measure-population","code":"initial-population","display":"Initial Population"}]},"count":1},{"code":{"coding":[{"system":"http://terminology.hl7.org/CodeSystem/measure-population","code":"denominator","display":"Denominator"}]},"count":1},{"code":{"coding":[{"system":"http://terminology.hl7.org/CodeSystem/measure-population","code":"denominator-exclusion","display":"Denominator Exclusion"}]},"count":0},{"code":{"coding":[{"system":"http://terminology.hl7.org/CodeSystem/measure-population","code":"numerator","display":"Numerator"}]},"count":1},{"code":{"coding":[{"system":"http://terminology.hl7.org/CodeSystem/measure-population","code":"denominator-exception","display":"Denominator Exception"}]},"count":0}]}]},"request":{"method":"PUT","url":"MeasureReport/f00ca00f-1d65-4d8f-8c57-0ea8b917f402"}}]}