{"resourceType":"Bundle","id":"tests-32be0d28-bd59-41eb-bfe0-fb09a24eed31-bundle","type":"transaction","entry":[{"fullUrl":"https://madie.cms.gov/Patient/32be0d28-bd59-41eb-bfe0-fb09a24eed31","resource":{"resourceType":"Patient","id":"32be0d28-bd59-41eb-bfe0-fb09a24eed31","meta":{"profile":["http://hl7.org/fhir/us/qicore/StructureDefinition/qicore-patient"]},"text":{"status":"generated","div":"<div xmlns=\"http://www.w3.org/1999/xhtml\"><div class=\"hapiHeaderText\">LMWH2DaysAfterStartICU <b>NUMERFAIL </b></div><table class=\"hapiPropertyTable\"><tbody><tr><td>Identifier</td><td>9171ed8e3c126b0a718e996cdf49d57a</td></tr><tr><td>Date of birth</td><td><span>03 March 1974</span></td></tr></tbody></table></div>"},"extension":[{"url":"http://hl7.org/fhir/us/core/StructureDefinition/us-core-race","extension":[{"url":"ombCategory","valueCoding":{"system":"urn:oid:2.16.840.1.113883.6.238","code":"1002-5","display":"American Indian or Alaska Native","userSelected":true}},{"url":"text","valueString":"American Indian or Alaska Native"}]},{"url":"http://hl7.org/fhir/us/core/StructureDefinition/us-core-ethnicity","extension":[{"url":"ombCategory","valueCoding":{"system":"urn:oid:2.16.840.1.113883.6.238","code":"2135-2","display":"Hispanic or Latino","userSelected":true}},{"url":"text","valueString":"Hispanic or Latino"}]}],"identifier":[{"type":{"coding":[{"system":"http://terminology.hl7.org/CodeSystem/v2-0203","code":"MR"}]},"system":"https://bonnie-fhir.healthit.gov/","value":"612e6f2202c62a011f2f0cb3"}],"active":true,"name":[{"use":"usual","family":"NUMERFail","given":["LMWH2DaysAfterStartICU"]}],"gender":"female","birthDate":"1975-03-03"},"request":{"method":"PUT","url":"Patient/32be0d28-bd59-41eb-bfe0-fb09a24eed31"}},{"fullUrl":"https://madie.cms.gov/Encounter/38e48246-7eb1-42af-b138-1fac65a6b7b9","resource":{"resourceType":"Encounter","id":"38e48246-7eb1-42af-b138-1fac65a6b7b9","meta":{"profile":["http://hl7.org/fhir/us/qicore/StructureDefinition/qicore-encounter"]},"status":"finished","class":{"system":"http://terminology.hl7.org/CodeSystem/v3-ActCode","code":"IMP","display":"inpatient encounter"},"type":[{"coding":[{"system":"http://snomed.info/sct","code":"8715000"}]}],"subject":{"reference":"Patient/32be0d28-bd59-41eb-bfe0-fb09a24eed31"},"period":{"start":"2026-12-01T00:00:00+00:00","end":"2026-12-31T23:59:00+00:00"},"length":{"value":30.0,"unit":"days"},"location":[{"location":{"reference":"Location/1a8b05d0-f3eb-41e1-a21d-5dba3bbe5d1d"},"period":{"start":"2026-12-01T00:01:00.000+00:00","end":"2026-12-15T23:59:00.000+00:00"}}]},"request":{"method":"PUT","url":"Encounter/38e48246-7eb1-42af-b138-1fac65a6b7b9"}},{"fullUrl":"https://madie.cms.gov/Encounter/543508a5-40de-44b7-a83e-0d0f8d2b5a29","resource":{"resourceType":"Encounter","id":"543508a5-40de-44b7-a83e-0d0f8d2b5a29","meta":{"profile":["http://hl7.org/fhir/us/qicore/StructureDefinition/qicore-encounter"]},"status":"finished","class":{"system":"http://terminology.hl7.org/CodeSystem/v3-ActCode","code":"IMP","display":"inpatient encounter"},"type":[{"coding":[{"system":"http://snomed.info/sct","code":"183446009"}]}],"subject":{"reference":"Patient/32be0d28-bd59-41eb-bfe0-fb09a24eed31"},"period":{"start":"2026-12-22T00:00:00+00:00","end":"2026-12-31T23:59:00+00:00"},"length":{"value":9.0,"unit":"days"}},"request":{"method":"PUT","url":"Encounter/543508a5-40de-44b7-a83e-0d0f8d2b5a29"}},{"fullUrl":"https://madie.cms.gov/Coverage/ba89cf0a-570f-4dfc-b136-aad99fcb7572","resource":{"resourceType":"Coverage","id":"ba89cf0a-570f-4dfc-b136-aad99fcb7572","status":"active","beneficiary":{"reference":"Patient/32be0d28-bd59-41eb-bfe0-fb09a24eed31"},"period":{"start":"1975-03-03T08:00:00+00:00"},"payor":[{"reference":"Organization/db141f66-a1cc-407b-9e95-adac27adee14"}]},"request":{"method":"PUT","url":"Coverage/ba89cf0a-570f-4dfc-b136-aad99fcb7572"}},{"fullUrl":"https://madie.cms.gov/MedicationAdministration/fef56208-fb7a-4660-a50c-6c0c02cde3cf","resource":{"resourceType":"MedicationAdministration","id":"fef56208-fb7a-4660-a50c-6c0c02cde3cf","meta":{"profile":["http://hl7.org/fhir/us/qicore/StructureDefinition/qicore-medicationadministration"]},"status":"completed","medicationCodeableConcept":{"coding":[{"system":"http://www.nlm.nih.gov/research/umls/rxnorm","code":"854228"}]},"subject":{"reference":"Patient/32be0d28-bd59-41eb-bfe0-fb09a24eed31"},"effectivePeriod":{"start":"2026-12-03T00:00:00+00:00"}},"request":{"method":"PUT","url":"MedicationAdministration/fef56208-fb7a-4660-a50c-6c0c02cde3cf"}},{"fullUrl":"https://madie.cms.gov/Location/1a8b05d0-f3eb-41e1-a21d-5dba3bbe5d1d","resource":{"resourceType":"Location","id":"1a8b05d0-f3eb-41e1-a21d-5dba3bbe5d1d","meta":{"profile":["http://hl7.org/fhir/us/qicore/StructureDefinition/qicore-location"]},"identifier":[{"use":"usual","system":"http://exampleoflocation.com","value":"B1-S.F2"}],"name":"Medical Surgical East, first floor","type":[{"coding":[{"system":"https://www.cdc.gov/nhsn/cdaportal/terminology/codesystem/hsloc.html","code":"1025-6","display":"Trauma Critical Care","userSelected":true}]}]},"request":{"method":"PUT","url":"Location/1a8b05d0-f3eb-41e1-a21d-5dba3bbe5d1d"}},{"fullUrl":"https://madie.cms.gov/Organization/0e0e3dad-3623-4b1a-b88d-622800eb9995","resource":{"resourceType":"Organization","id":"db141f66-a1cc-407b-9e95-adac27adee14","meta":{"profile":["http://hl7.org/fhir/us/qicore/StructureDefinition/qicore-organization"]},"identifier":[{"use":"temp","system":"urn:oid:2.16.840.1.113883.4.4","value":"21-3259825"}],"active":true,"type":[{"coding":[{"system":"http://terminology.hl7.org/CodeSystem/organization-type","code":"pay","display":"Payer"}]}],"name":"Blue Cross Blue Shield of Texas","telecom":[{"system":"phone","value":"(+1) 972-766-6900"}],"address":[{"use":"billing","type":"postal","line":["P.O. Box 660044"],"city":"Dallas","state":"TX","postalCode":"75266-0044","country":"USA"}]},"request":{"method":"PUT","url":"Organization/db141f66-a1cc-407b-9e95-adac27adee14"}},{"fullUrl":"https://madie.cms.gov/Practitioner/02ed51f6-dd1b-45de-a71e-7124955a0757","resource":{"resourceType":"Practitioner","id":"02ed51f6-dd1b-45de-a71e-7124955a0757","identifier":[{"system":"http://hl7.org/fhir/sid/us-npi","value":"123456"}],"name":[{"family":"Evil","prefix":["Dr"]}]},"request":{"method":"PUT","url":"Practitioner/02ed51f6-dd1b-45de-a71e-7124955a0757"}},{"fullUrl":"https://madie.cms.gov/MeasureReport/bedc4fbb-63b6-4512-80ef-294b8d39c04d","resource":{"resourceType":"MeasureReport","id":"bedc4fbb-63b6-4512-80ef-294b8d39c04d","meta":{"profile":["http://hl7.org/fhir/us/cqfmeasures/StructureDefinition/test-case-cqfm"]},"contained":[{"resourceType":"Parameters","id":"9656af80-9561-483b-842b-a88010350e89-parameters","parameter":[{"name":"subject","valueString":"32be0d28-bd59-41eb-bfe0-fb09a24eed31"}]}],"extension":[{"url":"http://hl7.org/fhir/us/cqfmeasures/StructureDefinition/cqfm-inputParameters","valueReference":{"reference":"#9656af80-9561-483b-842b-a88010350e89-parameters"}},{"url":"http://hl7.org/fhir/us/cqfmeasures/StructureDefinition/cqfm-testCaseDescription","valueMarkdown":"LMWH 2 days after ICU admission, no anesthesia.\n"}],"modifierExtension":[{"url":"http://hl7.org/fhir/us/cqfmeasures/StructureDefinition/cqfm-isTestCase","valueBoolean":true}],"status":"complete","type":"individual","measure":"https://madie.cms.gov/Measure/CMS190VTEProphylaxisICUFHIR","period":{"start":"2026-01-01","end":"2026-12-31"},"group":[{"population":[{"code":{"coding":[{"system":"http://terminology.hl7.org/CodeSystem/measure-population","code":"initial-population","display":"Initial Population"}]},"count":1},{"code":{"coding":[{"system":"http://terminology.hl7.org/CodeSystem/measure-population","code":"denominator","display":"Denominator"}]},"count":1},{"code":{"coding":[{"system":"http://terminology.hl7.org/CodeSystem/measure-population","code":"denominator-exclusion","display":"Denominator Exclusion"}]},"count":0},{"code":{"coding":[{"system":"http://terminology.hl7.org/CodeSystem/measure-population","code":"numerator","display":"Numerator"}]},"count":0},{"code":{"coding":[{"system":"http://terminology.hl7.org/CodeSystem/measure-population","code":"denominator-exception","display":"Denominator Exception"}]},"count":0}]}]},"request":{"method":"PUT","url":"MeasureReport/bedc4fbb-63b6-4512-80ef-294b8d39c04d"}}]}