{"resourceType":"Bundle","id":"tests-3b38035c-7918-4d8e-8a8f-935b406d65b8-bundle","type":"transaction","entry":[{"fullUrl":"https://madie.cms.gov/Patient/3b38035c-7918-4d8e-8a8f-935b406d65b8","resource":{"resourceType":"Patient","id":"3b38035c-7918-4d8e-8a8f-935b406d65b8","meta":{"profile":["http://hl7.org/fhir/us/qicore/StructureDefinition/qicore-patient"]},"text":{"status":"generated","div":"<div xmlns=\"http://www.w3.org/1999/xhtml\"><div class=\"hapiHeaderText\">GYNSurgeryEQ1DayAfterICUStart <b>DENEXPASS </b></div><table class=\"hapiPropertyTable\"><tbody><tr><td>Identifier</td><td>c86bf4d45e0ace80da93806dc6ebb45b</td></tr><tr><td>Date of birth</td><td><span>03 March 1974</span></td></tr></tbody></table></div>"},"extension":[{"url":"http://hl7.org/fhir/us/core/StructureDefinition/us-core-race","extension":[{"url":"ombCategory","valueCoding":{"system":"urn:oid:2.16.840.1.113883.6.238","code":"1002-5","display":"American Indian or Alaska Native","userSelected":true}},{"url":"text","valueString":"American Indian or Alaska Native"}]},{"url":"http://hl7.org/fhir/us/core/StructureDefinition/us-core-ethnicity","extension":[{"url":"ombCategory","valueCoding":{"system":"urn:oid:2.16.840.1.113883.6.238","code":"2135-2","display":"Hispanic or Latino","userSelected":true}},{"url":"text","valueString":"Hispanic or Latino"}]}],"identifier":[{"type":{"coding":[{"system":"http://terminology.hl7.org/CodeSystem/v2-0203","code":"MR"}]},"system":"https://bonnie-fhir.healthit.gov/","value":"612e6e7502c62a011f2ee6f5"}],"active":true,"name":[{"use":"usual","family":"DENEXPass","given":["GYNSurgeryEQ1DayAfterICUStart"]}],"gender":"female","birthDate":"1975-03-03"},"request":{"method":"PUT","url":"Patient/3b38035c-7918-4d8e-8a8f-935b406d65b8"}},{"fullUrl":"https://madie.cms.gov/Encounter/e87d475d-2792-43dc-91ce-5ac9785385d7","resource":{"resourceType":"Encounter","id":"e87d475d-2792-43dc-91ce-5ac9785385d7","meta":{"profile":["http://hl7.org/fhir/us/qicore/StructureDefinition/qicore-encounter"]},"extension":[{"url":"http://hl7.org/fhir/us/qicore/StructureDefinition/qicore-encounter-procedure","extension":[{"url":"type","valueCodeableConcept":{"coding":[{"system":"http://snomed.info/sct","code":"72261007"}]}},{"url":"rank","valuePositiveInt":1},{"url":"procedure","valueReference":{"reference":"Procedure/70cde5a1-ab72-40bd-8084-485ed02290e9"}}]}],"status":"finished","class":{"system":"http://terminology.hl7.org/CodeSystem/v3-ActCode","code":"IMP","display":"inpatient encounter"},"type":[{"coding":[{"system":"http://snomed.info/sct","code":"8715000"}]}],"subject":{"reference":"Patient/3b38035c-7918-4d8e-8a8f-935b406d65b8"},"period":{"start":"2026-12-04T08:00:00+00:00","end":"2026-12-30T08:15:00+00:00"},"length":{"value":26.0,"unit":"days"},"location":[{"location":{"reference":"Location/16cb795a-d496-4a6f-8205-5c61bfb2bd62"},"period":{"start":"2026-12-06T08:00:00.000+00:00","end":"2026-12-08T08:15:00.000+00:00"}}]},"request":{"method":"PUT","url":"Encounter/e87d475d-2792-43dc-91ce-5ac9785385d7"}},{"fullUrl":"https://madie.cms.gov/Coverage/36602190-99a3-4c0c-a774-bcfeebbf60f1","resource":{"resourceType":"Coverage","id":"36602190-99a3-4c0c-a774-bcfeebbf60f1","status":"active","beneficiary":{"reference":"Patient/3b38035c-7918-4d8e-8a8f-935b406d65b8"},"period":{"start":"1975-03-03T08:00:00+00:00"},"payor":[{"reference":"Organization/5ad6ea38-07e9-4482-9e1b-c09eee595be9"}]},"request":{"method":"PUT","url":"Coverage/36602190-99a3-4c0c-a774-bcfeebbf60f1"}},{"fullUrl":"https://madie.cms.gov/Procedure/70cde5a1-ab72-40bd-8084-485ed02290e9","resource":{"resourceType":"Procedure","id":"70cde5a1-ab72-40bd-8084-485ed02290e9","meta":{"profile":["http://hl7.org/fhir/us/qicore/StructureDefinition/qicore-procedure"]},"extension":[{"url":"http://hl7.org/fhir/us/qicore/StructureDefinition/qicore-recorded","valueDateTime":"2013-12-04T09:35:00-04:00"}],"status":"completed","code":{"coding":[{"system":"http://www.cms.gov/Medicare/Coding/ICD10","code":"0U500ZZ"}]},"subject":{"reference":"Patient/3b38035c-7918-4d8e-8a8f-935b406d65b8"},"performedPeriod":{"start":"2026-12-07T08:15:00+00:00","end":"2026-12-07T11:15:00+00:00"}},"request":{"method":"PUT","url":"Procedure/70cde5a1-ab72-40bd-8084-485ed02290e9"}},{"fullUrl":"https://madie.cms.gov/Location/16cb795a-d496-4a6f-8205-5c61bfb2bd62","resource":{"resourceType":"Location","id":"16cb795a-d496-4a6f-8205-5c61bfb2bd62","meta":{"profile":["http://hl7.org/fhir/us/qicore/StructureDefinition/qicore-location"]},"identifier":[{"use":"usual","system":"http://exampleoflocation.com","value":"B1-S.F2"}],"name":"Medical Surgical East, first floor","type":[{"coding":[{"system":"https://www.cdc.gov/nhsn/cdaportal/terminology/codesystem/hsloc.html","code":"1025-6","display":"Trauma Critical Care","userSelected":true}]}]},"request":{"method":"PUT","url":"Location/16cb795a-d496-4a6f-8205-5c61bfb2bd62"}},{"fullUrl":"https://madie.cms.gov/Organization/12bbe35d-057c-4eb3-bd47-3d2af583c0ce","resource":{"resourceType":"Organization","id":"5ad6ea38-07e9-4482-9e1b-c09eee595be9","meta":{"profile":["http://hl7.org/fhir/us/qicore/StructureDefinition/qicore-organization"]},"identifier":[{"use":"temp","system":"urn:oid:2.16.840.1.113883.4.4","value":"21-3259825"}],"active":true,"type":[{"coding":[{"system":"http://terminology.hl7.org/CodeSystem/organization-type","code":"pay","display":"Payer"}]}],"name":"Blue Cross Blue Shield of Texas","telecom":[{"system":"phone","value":"(+1) 972-766-6900"}],"address":[{"use":"billing","type":"postal","line":["P.O. Box 660044"],"city":"Dallas","state":"TX","postalCode":"75266-0044","country":"USA"}]},"request":{"method":"PUT","url":"Organization/5ad6ea38-07e9-4482-9e1b-c09eee595be9"}},{"fullUrl":"https://madie.cms.gov/Practitioner/86708ad2-a55d-46d8-943a-f0d6cab07493","resource":{"resourceType":"Practitioner","id":"86708ad2-a55d-46d8-943a-f0d6cab07493","identifier":[{"system":"http://hl7.org/fhir/sid/us-npi","value":"123456"}],"name":[{"family":"Evil","prefix":["Dr"]}]},"request":{"method":"PUT","url":"Practitioner/86708ad2-a55d-46d8-943a-f0d6cab07493"}},{"fullUrl":"https://madie.cms.gov/MeasureReport/c8eedaf8-3ab5-424b-9fd4-706461e9b42b","resource":{"resourceType":"MeasureReport","id":"c8eedaf8-3ab5-424b-9fd4-706461e9b42b","meta":{"profile":["http://hl7.org/fhir/us/cqfmeasures/StructureDefinition/test-case-cqfm"]},"contained":[{"resourceType":"Parameters","id":"0ef043ed-7c03-468b-afa3-4e36b7a71889-parameters","parameter":[{"name":"subject","valueString":"3b38035c-7918-4d8e-8a8f-935b406d65b8"}]}],"extension":[{"url":"http://hl7.org/fhir/us/cqfmeasures/StructureDefinition/cqfm-inputParameters","valueReference":{"reference":"#0ef043ed-7c03-468b-afa3-4e36b7a71889-parameters"}},{"url":"http://hl7.org/fhir/us/cqfmeasures/StructureDefinition/cqfm-testCaseDescription","valueMarkdown":"gynecological surgery ends 1 day after start of ICU admission\n"}],"modifierExtension":[{"url":"http://hl7.org/fhir/us/cqfmeasures/StructureDefinition/cqfm-isTestCase","valueBoolean":true}],"status":"complete","type":"individual","measure":"https://madie.cms.gov/Measure/CMS190VTEProphylaxisICUFHIR","period":{"start":"2026-01-01","end":"2026-12-31"},"group":[{"population":[{"code":{"coding":[{"system":"http://terminology.hl7.org/CodeSystem/measure-population","code":"initial-population","display":"Initial Population"}]},"count":1},{"code":{"coding":[{"system":"http://terminology.hl7.org/CodeSystem/measure-population","code":"denominator","display":"Denominator"}]},"count":1},{"code":{"coding":[{"system":"http://terminology.hl7.org/CodeSystem/measure-population","code":"denominator-exclusion","display":"Denominator Exclusion"}]},"count":1},{"code":{"coding":[{"system":"http://terminology.hl7.org/CodeSystem/measure-population","code":"numerator","display":"Numerator"}]},"count":0},{"code":{"coding":[{"system":"http://terminology.hl7.org/CodeSystem/measure-population","code":"denominator-exception","display":"Denominator Exception"}]},"count":0}]}]},"request":{"method":"PUT","url":"MeasureReport/c8eedaf8-3ab5-424b-9fd4-706461e9b42b"}}]}