{"resourceType":"Bundle","id":"tests-4c32b73b-abba-431b-a352-f0f454e7c9dd-bundle","type":"transaction","entry":[{"fullUrl":"https://madie.cms.gov/Patient/4c32b73b-abba-431b-a352-f0f454e7c9dd","resource":{"resourceType":"Patient","id":"4c32b73b-abba-431b-a352-f0f454e7c9dd","meta":{"profile":["http://hl7.org/fhir/us/qicore/StructureDefinition/qicore-patient"]},"text":{"status":"generated","div":"<div xmlns=\"http://www.w3.org/1999/xhtml\"><div class=\"hapiHeaderText\">PtRefDAIPCDuringOBS <b>NUMERPASS </b></div><table class=\"hapiPropertyTable\"><tbody><tr><td>Identifier</td><td>5f7ad5e9fc357bf072546722e2c19e60</td></tr><tr><td>Date of birth</td><td><span>02 January 1974</span></td></tr></tbody></table></div>"},"extension":[{"url":"http://hl7.org/fhir/us/core/StructureDefinition/us-core-race","extension":[{"url":"ombCategory","valueCoding":{"system":"urn:oid:2.16.840.1.113883.6.238","code":"1002-5","display":"American Indian or Alaska Native","userSelected":true}},{"url":"text","valueString":"American Indian or Alaska Native"}]},{"url":"http://hl7.org/fhir/us/core/StructureDefinition/us-core-ethnicity","extension":[{"url":"ombCategory","valueCoding":{"system":"urn:oid:2.16.840.1.113883.6.238","code":"2135-2","display":"Hispanic or Latino","userSelected":true}},{"url":"text","valueString":"Hispanic or Latino"}]}],"identifier":[{"type":{"coding":[{"system":"http://terminology.hl7.org/CodeSystem/v2-0203","code":"MR"}]},"system":"https://bonnie-fhir.healthit.gov/","value":"612e6ab302c62a011f2eafaf"}],"active":true,"name":[{"use":"usual","family":"NUMERPass","given":["PtRefDAIPCDuringOBS"]}],"gender":"male","birthDate":"1975-01-02"},"request":{"method":"PUT","url":"Patient/4c32b73b-abba-431b-a352-f0f454e7c9dd"}},{"fullUrl":"https://madie.cms.gov/Encounter/40cde0ea-48cf-4839-9cb1-5faae5970df5","resource":{"resourceType":"Encounter","id":"40cde0ea-48cf-4839-9cb1-5faae5970df5","meta":{"profile":["http://hl7.org/fhir/us/qicore/StructureDefinition/qicore-encounter"]},"status":"finished","class":{"system":"http://terminology.hl7.org/CodeSystem/v3-ActCode","code":"OBSENC","display":"observation encounter"},"type":[{"coding":[{"system":"http://snomed.info/sct","code":"448951000124107"}]}],"subject":{"reference":"Patient/4c32b73b-abba-431b-a352-f0f454e7c9dd"},"period":{"start":"2026-10-31T05:00:00+00:00","end":"2026-11-01T07:15:00+00:00"},"length":{"value":1,"unit":"days"}},"request":{"method":"PUT","url":"Encounter/40cde0ea-48cf-4839-9cb1-5faae5970df5"}},{"fullUrl":"https://madie.cms.gov/Encounter/8d317abb-96af-4126-a1e5-4be10a05eae5","resource":{"resourceType":"Encounter","id":"8d317abb-96af-4126-a1e5-4be10a05eae5","meta":{"profile":["http://hl7.org/fhir/us/qicore/StructureDefinition/qicore-encounter"]},"status":"finished","class":{"system":"http://terminology.hl7.org/CodeSystem/v3-ActCode","code":"IMP","display":"inpatient encounter"},"type":[{"coding":[{"system":"http://snomed.info/sct","code":"8715000"}]}],"subject":{"reference":"Patient/4c32b73b-abba-431b-a352-f0f454e7c9dd"},"period":{"start":"2026-11-01T08:00:00+00:00","end":"2026-11-26T08:15:00+00:00"},"length":{"value":25,"unit":"days"},"location":[{"location":{"reference":"Location/37ea231d-3e69-4595-b4da-bc5b3d0bfa1b"},"period":{"start":"2026-11-01T09:00:00.000+00:00","end":"2026-11-02T08:15:00.000+00:00"}}]},"request":{"method":"PUT","url":"Encounter/8d317abb-96af-4126-a1e5-4be10a05eae5"}},{"fullUrl":"https://madie.cms.gov/Coverage/53c45176-dab5-4cac-b0d3-bef0cc238a73","resource":{"resourceType":"Coverage","id":"53c45176-dab5-4cac-b0d3-bef0cc238a73","status":"active","beneficiary":{"reference":"Patient/4c32b73b-abba-431b-a352-f0f454e7c9dd"},"period":{"start":"1975-01-02T08:00:00+00:00"},"payor":[{"reference":"Organization/5ad6ea38-07e9-4482-9e1b-c09eee595be9"}]},"request":{"method":"PUT","url":"Coverage/53c45176-dab5-4cac-b0d3-bef0cc238a73"}},{"fullUrl":"https://madie.cms.gov/Procedure/fea4dfc1-f3f9-4646-8920-c76368f97c71","resource":{"resourceType":"Procedure","id":"fea4dfc1-f3f9-4646-8920-c76368f97c71","meta":{"profile":["http://hl7.org/fhir/us/qicore/StructureDefinition/qicore-procedurenotdone"]},"extension":[{"url":"http://hl7.org/fhir/us/qicore/StructureDefinition/qicore-recorded","valueDateTime":"2026-10-31T17:00:00+00:00"}],"status":"not-done","statusReason":{"coding":[{"system":"http://snomed.info/sct","code":"443390004","display":"Refusal of treatment by patient (situation)","userSelected":true}]},"code":{"coding":[{"system":"http://snomed.info/sct","version":"2025-03","code":"443448006","display":"Application of intermittent pneumatic compression device (procedure)","userSelected":true}]},"subject":{"reference":"Patient/4c32b73b-abba-431b-a352-f0f454e7c9dd"},"_performedDateTime":{"extension":[{"url":"http://hl7.org/fhir/StructureDefinition/data-absent-reason","valueCode":"not-performed"}]}},"request":{"method":"PUT","url":"Procedure/fea4dfc1-f3f9-4646-8920-c76368f97c71"}},{"fullUrl":"https://madie.cms.gov/Location/37ea231d-3e69-4595-b4da-bc5b3d0bfa1b","resource":{"resourceType":"Location","id":"37ea231d-3e69-4595-b4da-bc5b3d0bfa1b","meta":{"profile":["http://hl7.org/fhir/us/qicore/StructureDefinition/qicore-location"]},"identifier":[{"use":"usual","system":"http://exampleoflocation.com","value":"B1-S.F2"}],"name":"Medical Surgical East, first floor","type":[{"coding":[{"system":"https://www.cdc.gov/nhsn/cdaportal/terminology/codesystem/hsloc.html","code":"1025-6","display":"Trauma Critical Care","userSelected":true}]}]},"request":{"method":"PUT","url":"Location/37ea231d-3e69-4595-b4da-bc5b3d0bfa1b"}},{"fullUrl":"https://madie.cms.gov/Organization/c9653fd7-e33b-4b2a-aa52-e5c707364c70","resource":{"resourceType":"Organization","id":"5ad6ea38-07e9-4482-9e1b-c09eee595be9","meta":{"profile":["http://hl7.org/fhir/us/qicore/StructureDefinition/qicore-organization"]},"identifier":[{"use":"temp","system":"urn:oid:2.16.840.1.113883.4.4","value":"21-3259825"}],"active":true,"type":[{"coding":[{"system":"http://terminology.hl7.org/CodeSystem/organization-type","code":"pay","display":"Payer"}]}],"name":"Blue Cross Blue Shield of Texas","telecom":[{"system":"phone","value":"(+1) 972-766-6900"}],"address":[{"use":"billing","type":"postal","line":["P.O. Box 660044"],"city":"Dallas","state":"TX","postalCode":"75266-0044","country":"USA"}]},"request":{"method":"PUT","url":"Organization/5ad6ea38-07e9-4482-9e1b-c09eee595be9"}},{"fullUrl":"https://madie.cms.gov/Practitioner/5e7f2756-5127-4d7a-96dc-4b6e3d17139a","resource":{"resourceType":"Practitioner","id":"5e7f2756-5127-4d7a-96dc-4b6e3d17139a","identifier":[{"system":"http://hl7.org/fhir/sid/us-npi","value":"123456"}],"name":[{"family":"Evil","prefix":["Dr"]}]},"request":{"method":"PUT","url":"Practitioner/5e7f2756-5127-4d7a-96dc-4b6e3d17139a"}},{"fullUrl":"https://madie.cms.gov/MeasureReport/647b229f-e866-4a9e-9fe5-e327fca1321b","resource":{"resourceType":"MeasureReport","id":"647b229f-e866-4a9e-9fe5-e327fca1321b","meta":{"profile":["http://hl7.org/fhir/us/cqfmeasures/StructureDefinition/test-case-cqfm"]},"contained":[{"resourceType":"Parameters","id":"1e0e17d5-3228-4d2e-b1b3-ae4e4119c2a8-parameters","parameter":[{"name":"subject","valueString":"4c32b73b-abba-431b-a352-f0f454e7c9dd"}]}],"extension":[{"url":"http://hl7.org/fhir/us/cqfmeasures/StructureDefinition/cqfm-inputParameters","valueReference":{"reference":"#1e0e17d5-3228-4d2e-b1b3-ae4e4119c2a8-parameters"}},{"url":"http://hl7.org/fhir/us/cqfmeasures/StructureDefinition/cqfm-testCaseDescription","valueMarkdown":"meets IPP, meets Denominator, IPC applied not done PatRfsl a - during OBS\n"}],"modifierExtension":[{"url":"http://hl7.org/fhir/us/cqfmeasures/StructureDefinition/cqfm-isTestCase","valueBoolean":true}],"status":"complete","type":"individual","measure":"https://madie.cms.gov/Measure/CMS190VTEProphylaxisICUFHIR","period":{"start":"2026-01-01","end":"2026-12-31"},"group":[{"population":[{"code":{"coding":[{"system":"http://terminology.hl7.org/CodeSystem/measure-population","code":"initial-population","display":"Initial Population"}]},"count":1},{"code":{"coding":[{"system":"http://terminology.hl7.org/CodeSystem/measure-population","code":"denominator","display":"Denominator"}]},"count":1},{"code":{"coding":[{"system":"http://terminology.hl7.org/CodeSystem/measure-population","code":"denominator-exclusion","display":"Denominator Exclusion"}]},"count":0},{"code":{"coding":[{"system":"http://terminology.hl7.org/CodeSystem/measure-population","code":"numerator","display":"Numerator"}]},"count":1},{"code":{"coding":[{"system":"http://terminology.hl7.org/CodeSystem/measure-population","code":"denominator-exception","display":"Denominator Exception"}]},"count":0}]}]},"request":{"method":"PUT","url":"MeasureReport/647b229f-e866-4a9e-9fe5-e327fca1321b"}}]}