{"resourceType":"Bundle","id":"tests-39215b49-af59-45a7-a773-65e8353dfafd-bundle","type":"transaction","entry":[{"fullUrl":"https://madie.cms.gov/Patient/39215b49-af59-45a7-a773-65e8353dfafd","resource":{"resourceType":"Patient","id":"39215b49-af59-45a7-a773-65e8353dfafd","meta":{"profile":["http://hl7.org/fhir/us/qicore/StructureDefinition/qicore-patient"]},"text":{"status":"generated","div":"<div xmlns=\"http://www.w3.org/1999/xhtml\"><div class=\"hapiHeaderText\">EncDxObstetrics <b>IPFAIL </b></div><table class=\"hapiPropertyTable\"><tbody><tr><td>Identifier</td><td>73dfd43c47660281c0a5408728e85897</td></tr><tr><td>Date of birth</td><td><span>03 March 1974</span></td></tr></tbody></table></div>"},"extension":[{"url":"http://hl7.org/fhir/us/core/StructureDefinition/us-core-race","extension":[{"url":"ombCategory","valueCoding":{"system":"urn:oid:2.16.840.1.113883.6.238","code":"1002-5","display":"American Indian or Alaska Native","userSelected":true}},{"url":"text","valueString":"American Indian or Alaska Native"}]},{"url":"http://hl7.org/fhir/us/core/StructureDefinition/us-core-ethnicity","extension":[{"url":"ombCategory","valueCoding":{"system":"urn:oid:2.16.840.1.113883.6.238","code":"2186-5","display":"Not Hispanic or Latino","userSelected":true}},{"url":"text","valueString":"Not Hispanic or Latino"}]}],"identifier":[{"type":{"coding":[{"system":"http://terminology.hl7.org/CodeSystem/v2-0203","code":"MR"}]},"system":"https://bonnie-fhir.healthit.gov/","value":"612e6f1402c62a011f2f0ad8"}],"active":true,"name":[{"use":"usual","family":"IPFail","given":["EncDxObstetrics"]}],"gender":"female","birthDate":"1975-03-03"},"request":{"method":"PUT","url":"Patient/39215b49-af59-45a7-a773-65e8353dfafd"}},{"fullUrl":"https://madie.cms.gov/Encounter/d92512c7-e6b5-466c-94ac-59ecd89d72bf","resource":{"resourceType":"Encounter","id":"d92512c7-e6b5-466c-94ac-59ecd89d72bf","meta":{"profile":["http://hl7.org/fhir/us/qicore/StructureDefinition/qicore-encounter"]},"status":"finished","class":{"system":"http://terminology.hl7.org/CodeSystem/v3-ActCode","code":"IMP","display":"inpatient encounter"},"type":[{"coding":[{"system":"http://snomed.info/sct","code":"8715000"}]}],"subject":{"reference":"Patient/39215b49-af59-45a7-a773-65e8353dfafd"},"period":{"start":"2026-12-04T08:00:00+00:00","end":"2026-12-30T08:15:00+00:00"},"length":{"value":26,"unit":"days"},"diagnosis":[{"condition":{"reference":"Condition/9d9ececf-b268-4dc6-aa48-a9a3efd21f63"},"use":{"coding":[{"system":"http://terminology.hl7.org/CodeSystem/diagnosis-role","code":"billing"}]},"rank":1}],"location":[{"location":{"reference":"Location/db54aed0-d2c1-4c74-ad1a-dcf74a84396e"},"period":{"start":"2026-12-06T08:00:00.000+00:00","end":"2026-12-08T08:15:00.000+00:00"}}]},"request":{"method":"PUT","url":"Encounter/d92512c7-e6b5-466c-94ac-59ecd89d72bf"}},{"fullUrl":"https://madie.cms.gov/Coverage/7ac93d5f-fbff-4371-b9e6-e53e19114f61","resource":{"resourceType":"Coverage","id":"7ac93d5f-fbff-4371-b9e6-e53e19114f61","status":"active","beneficiary":{"reference":"Patient/39215b49-af59-45a7-a773-65e8353dfafd"},"period":{"start":"1975-03-03T08:00:00+00:00"},"payor":[{"reference":"Organization/18ca435c-cae6-4c34-8033-af717477f9fc"}]},"request":{"method":"PUT","url":"Coverage/7ac93d5f-fbff-4371-b9e6-e53e19114f61"}},{"fullUrl":"https://madie.cms.gov/Condition/9d9ececf-b268-4dc6-aa48-a9a3efd21f63","resource":{"resourceType":"Condition","id":"9d9ececf-b268-4dc6-aa48-a9a3efd21f63","meta":{"profile":["http://hl7.org/fhir/us/qicore/StructureDefinition/qicore-condition"]},"category":[{"coding":[{"system":"http://terminology.hl7.org/CodeSystem/condition-category","code":"encounter-diagnosis","display":"Encounter Diagnosis"}]}],"code":{"coding":[{"system":"http://snomed.info/sct","code":"10217006","display":"Third degree perineal laceration (disorder)","userSelected":true}]},"subject":{"reference":"Patient/39215b49-af59-45a7-a773-65e8353dfafd"},"recordedDate":"2026-09-09T08:00:00.000+00:00"},"request":{"method":"PUT","url":"Condition/9d9ececf-b268-4dc6-aa48-a9a3efd21f63"}},{"fullUrl":"https://madie.cms.gov/Location/db54aed0-d2c1-4c74-ad1a-dcf74a84396e","resource":{"resourceType":"Location","id":"db54aed0-d2c1-4c74-ad1a-dcf74a84396e","meta":{"profile":["http://hl7.org/fhir/us/qicore/StructureDefinition/qicore-location"]},"identifier":[{"use":"usual","system":"http://exampleoflocation.com","value":"B1-S.F2"}],"name":"Medical Surgical East, first floor","type":[{"coding":[{"system":"https://www.cdc.gov/nhsn/cdaportal/terminology/codesystem/hsloc.html","code":"1025-6","display":"Trauma Critical Care","userSelected":true}]}]},"request":{"method":"PUT","url":"Location/db54aed0-d2c1-4c74-ad1a-dcf74a84396e"}},{"fullUrl":"https://madie.cms.gov/Organization/24e3d8fa-4498-4200-aba5-363c880623e6","resource":{"resourceType":"Organization","id":"18ca435c-cae6-4c34-8033-af717477f9fc","meta":{"profile":["http://hl7.org/fhir/us/qicore/StructureDefinition/qicore-organization"]},"identifier":[{"use":"temp","system":"urn:oid:2.16.840.1.113883.4.4","value":"21-3259825"}],"active":true,"type":[{"coding":[{"system":"http://terminology.hl7.org/CodeSystem/organization-type","code":"pay","display":"Payer"}]}],"name":"Blue Cross Blue Shield of Texas","telecom":[{"system":"phone","value":"(+1) 972-766-6900"}],"address":[{"use":"billing","type":"postal","line":["P.O. Box 660044"],"city":"Dallas","state":"TX","postalCode":"75266-0044","country":"USA"}]},"request":{"method":"PUT","url":"Organization/18ca435c-cae6-4c34-8033-af717477f9fc"}},{"fullUrl":"https://madie.cms.gov/Practitioner/3d87ce8a-f771-49ff-b1d3-8c9e9ac4f52f","resource":{"resourceType":"Practitioner","id":"3d87ce8a-f771-49ff-b1d3-8c9e9ac4f52f","identifier":[{"system":"http://hl7.org/fhir/sid/us-npi","value":"123456"}],"name":[{"family":"Evil","prefix":["Dr"]}]},"request":{"method":"PUT","url":"Practitioner/3d87ce8a-f771-49ff-b1d3-8c9e9ac4f52f"}},{"fullUrl":"https://madie.cms.gov/MeasureReport/08bea4b2-aed6-4515-9694-7c1b04a41691","resource":{"resourceType":"MeasureReport","id":"08bea4b2-aed6-4515-9694-7c1b04a41691","meta":{"profile":["http://hl7.org/fhir/us/cqfmeasures/StructureDefinition/test-case-cqfm"]},"contained":[{"resourceType":"Parameters","id":"59858e68-aee3-4d78-8637-3b8a50556806-parameters","parameter":[{"name":"subject","valueString":"39215b49-af59-45a7-a773-65e8353dfafd"}]}],"extension":[{"url":"http://hl7.org/fhir/us/cqfmeasures/StructureDefinition/cqfm-inputParameters","valueReference":{"reference":"#59858e68-aee3-4d78-8637-3b8a50556806-parameters"}},{"url":"http://hl7.org/fhir/us/cqfmeasures/StructureDefinition/cqfm-testCaseDescription","valueMarkdown":"To test if EncIP PrinDxObstetrics . should be treated as same as Encounter Dx as well\n"}],"modifierExtension":[{"url":"http://hl7.org/fhir/us/cqfmeasures/StructureDefinition/cqfm-isTestCase","valueBoolean":true}],"status":"complete","type":"individual","measure":"https://madie.cms.gov/Measure/CMS190VTEProphylaxisICUFHIR","period":{"start":"2026-01-01","end":"2026-12-31"},"group":[{"population":[{"code":{"coding":[{"system":"http://terminology.hl7.org/CodeSystem/measure-population","code":"initial-population","display":"Initial Population"}]},"count":0},{"code":{"coding":[{"system":"http://terminology.hl7.org/CodeSystem/measure-population","code":"denominator","display":"Denominator"}]},"count":0},{"code":{"coding":[{"system":"http://terminology.hl7.org/CodeSystem/measure-population","code":"denominator-exclusion","display":"Denominator Exclusion"}]},"count":0},{"code":{"coding":[{"system":"http://terminology.hl7.org/CodeSystem/measure-population","code":"numerator","display":"Numerator"}]},"count":0},{"code":{"coding":[{"system":"http://terminology.hl7.org/CodeSystem/measure-population","code":"denominator-exception","display":"Denominator Exception"}]},"count":0}]}]},"request":{"method":"PUT","url":"MeasureReport/08bea4b2-aed6-4515-9694-7c1b04a41691"}}]}