{"resourceType":"Bundle","id":"tests-e35371bf-1c00-4581-b217-4f98f1d779ec-bundle","type":"transaction","entry":[{"fullUrl":"https://madie.cms.gov/Patient/e35371bf-1c00-4581-b217-4f98f1d779ec","resource":{"resourceType":"Patient","id":"e35371bf-1c00-4581-b217-4f98f1d779ec","meta":{"profile":["http://hl7.org/fhir/us/qicore/StructureDefinition/qicore-patient"]},"text":{"status":"generated","div":"<div xmlns=\"http://www.w3.org/1999/xhtml\"><div class=\"hapiHeaderText\">CMODuringObsLT1hrBFAdm <b>DENEXPASS </b></div><table class=\"hapiPropertyTable\"><tbody><tr><td>Identifier</td><td>b76722bfa8b7247c1f4f231ad8af146a5c30960d16e3961ba6c562fdeac74b10</td></tr><tr><td>Date of birth</td><td><span>03 March 1970</span></td></tr></tbody></table></div>"},"extension":[{"url":"http://hl7.org/fhir/us/core/StructureDefinition/us-core-race","extension":[{"url":"ombCategory","valueCoding":{"system":"urn:oid:2.16.840.1.113883.6.238","code":"1002-5","display":"American Indian or Alaska Native","userSelected":true}},{"url":"text","valueString":"American Indian or Alaska Native"}]},{"url":"http://hl7.org/fhir/us/core/StructureDefinition/us-core-ethnicity","extension":[{"url":"ombCategory","valueCoding":{"system":"urn:oid:2.16.840.1.113883.6.238","code":"2135-2","display":"Hispanic or Latino","userSelected":true}},{"url":"text","valueString":"Hispanic or Latino"}]}],"identifier":[{"type":{"coding":[{"system":"http://terminology.hl7.org/CodeSystem/v2-0203","code":"MR"}]},"system":"https://bonnie-fhir.healthit.gov/","value":"612e6f6802c62a011f2f1b7a"}],"active":true,"name":[{"use":"usual","family":"DENEXPass","given":["CMODuringObsLT1hrBFAdm"]}],"gender":"female","birthDate":"1971-03-03"},"request":{"method":"PUT","url":"Patient/e35371bf-1c00-4581-b217-4f98f1d779ec"}},{"fullUrl":"https://madie.cms.gov/Encounter/b5b7addb-1dd0-4aaa-b3bf-74bffaceab2f","resource":{"resourceType":"Encounter","id":"b5b7addb-1dd0-4aaa-b3bf-74bffaceab2f","meta":{"profile":["http://hl7.org/fhir/us/qicore/StructureDefinition/qicore-encounter"]},"status":"finished","class":{"system":"http://terminology.hl7.org/CodeSystem/v3-ActCode","code":"EMER","display":"emergency"},"type":[{"coding":[{"system":"http://snomed.info/sct","code":"4525004"}]}],"subject":{"reference":"Patient/e35371bf-1c00-4581-b217-4f98f1d779ec"},"period":{"start":"2026-12-04T04:00:00+00:00","end":"2026-12-04T05:00:00+00:00"},"length":{"value":0.0,"unit":"days"}},"request":{"method":"PUT","url":"Encounter/b5b7addb-1dd0-4aaa-b3bf-74bffaceab2f"}},{"fullUrl":"https://madie.cms.gov/Encounter/a656af4b-817f-4548-a872-e75bf52c4177","resource":{"resourceType":"Encounter","id":"a656af4b-817f-4548-a872-e75bf52c4177","meta":{"profile":["http://hl7.org/fhir/us/qicore/StructureDefinition/qicore-encounter"]},"status":"finished","class":{"system":"http://terminology.hl7.org/CodeSystem/v3-ActCode","code":"OBSENC","display":"observation encounter"},"type":[{"coding":[{"system":"http://snomed.info/sct","code":"448951000124107"}]}],"subject":{"reference":"Patient/e35371bf-1c00-4581-b217-4f98f1d779ec"},"period":{"start":"2026-12-04T05:15:00+00:00","end":"2026-12-04T07:15:00+00:00"}},"request":{"method":"PUT","url":"Encounter/a656af4b-817f-4548-a872-e75bf52c4177"}},{"fullUrl":"https://madie.cms.gov/Encounter/5da7518e-1fff-4db4-a2ec-a45d2397fc12","resource":{"resourceType":"Encounter","id":"5da7518e-1fff-4db4-a2ec-a45d2397fc12","meta":{"profile":["http://hl7.org/fhir/us/qicore/StructureDefinition/qicore-encounter"]},"status":"finished","class":{"system":"http://terminology.hl7.org/CodeSystem/v3-ActCode","code":"IMP","display":"inpatient encounter"},"type":[{"coding":[{"system":"http://snomed.info/sct","code":"8715000"}]}],"subject":{"reference":"Patient/e35371bf-1c00-4581-b217-4f98f1d779ec"},"period":{"start":"2026-12-04T08:00:00+00:00","end":"2026-12-30T08:15:00+00:00"},"length":{"value":26.0,"unit":"days"},"location":[{"location":{"reference":"Location/6ed31b60-0c50-4d66-9e67-69e31e595c4f"},"period":{"start":"2026-12-26T08:00:00.000+00:00","end":"2026-12-28T08:15:00.000+00:00"}}]},"request":{"method":"PUT","url":"Encounter/5da7518e-1fff-4db4-a2ec-a45d2397fc12"}},{"fullUrl":"https://madie.cms.gov/ServiceRequest/ee181ecb-2f44-45c7-ab38-5a84b82411bd","resource":{"resourceType":"ServiceRequest","id":"ee181ecb-2f44-45c7-ab38-5a84b82411bd","meta":{"profile":["http://hl7.org/fhir/us/qicore/StructureDefinition/qicore-servicerequest"]},"status":"completed","intent":"order","code":{"coding":[{"system":"http://snomed.info/sct","code":"133918004"}]},"subject":{"reference":"Patient/e35371bf-1c00-4581-b217-4f98f1d779ec"},"authoredOn":"2026-12-04T06:00:00+00:00"},"request":{"method":"PUT","url":"ServiceRequest/ee181ecb-2f44-45c7-ab38-5a84b82411bd"}},{"fullUrl":"https://madie.cms.gov/Coverage/f3733d97-f693-49fe-8904-629a01e86a3b","resource":{"resourceType":"Coverage","id":"f3733d97-f693-49fe-8904-629a01e86a3b","status":"active","beneficiary":{"reference":"Patient/e35371bf-1c00-4581-b217-4f98f1d779ec"},"period":{"start":"1975-03-03T08:00:00+00:00"},"payor":[{"reference":"Organization/890316dc-a4ad-43b4-ba6f-9fb9e6eca282"}]},"request":{"method":"PUT","url":"Coverage/f3733d97-f693-49fe-8904-629a01e86a3b"}},{"fullUrl":"https://madie.cms.gov/Location/6ed31b60-0c50-4d66-9e67-69e31e595c4f","resource":{"resourceType":"Location","id":"6ed31b60-0c50-4d66-9e67-69e31e595c4f","meta":{"profile":["http://hl7.org/fhir/us/qicore/StructureDefinition/qicore-location"]},"identifier":[{"use":"usual","system":"http://exampleoflocation.com","value":"B1-S.F2"}],"name":"Medical Surgical East, first floor","type":[{"coding":[{"system":"https://www.cdc.gov/nhsn/cdaportal/terminology/codesystem/hsloc.html","code":"1025-6","display":"Trauma Critical Care","userSelected":true}]}]},"request":{"method":"PUT","url":"Location/6ed31b60-0c50-4d66-9e67-69e31e595c4f"}},{"fullUrl":"https://madie.cms.gov/Organization/b9ed23fc-e727-48c7-8214-f5b47787efa1","resource":{"resourceType":"Organization","id":"890316dc-a4ad-43b4-ba6f-9fb9e6eca282","meta":{"profile":["http://hl7.org/fhir/us/qicore/StructureDefinition/qicore-organization"]},"identifier":[{"use":"temp","system":"urn:oid:2.16.840.1.113883.4.4","value":"21-3259825"}],"active":true,"type":[{"coding":[{"system":"http://terminology.hl7.org/CodeSystem/organization-type","code":"pay","display":"Payer"}]}],"name":"Blue Cross Blue Shield of Texas","telecom":[{"system":"phone","value":"(+1) 972-766-6900"}],"address":[{"use":"billing","type":"postal","line":["P.O. Box 660044"],"city":"Dallas","state":"TX","postalCode":"75266-0044","country":"USA"}]},"request":{"method":"PUT","url":"Organization/890316dc-a4ad-43b4-ba6f-9fb9e6eca282"}},{"fullUrl":"https://madie.cms.gov/Practitioner/9f4e78a5-eb5e-4caa-b6a2-0b5a6ce4fdc9","resource":{"resourceType":"Practitioner","id":"9f4e78a5-eb5e-4caa-b6a2-0b5a6ce4fdc9","identifier":[{"system":"http://hl7.org/fhir/sid/us-npi","value":"123456"}],"name":[{"family":"Evil","prefix":["Dr"]}]},"request":{"method":"PUT","url":"Practitioner/9f4e78a5-eb5e-4caa-b6a2-0b5a6ce4fdc9"}},{"fullUrl":"https://madie.cms.gov/MeasureReport/c3dc40ff-d64b-4244-b7c2-39e06252abfc","resource":{"resourceType":"MeasureReport","id":"c3dc40ff-d64b-4244-b7c2-39e06252abfc","meta":{"profile":["http://hl7.org/fhir/us/cqfmeasures/StructureDefinition/test-case-cqfm"]},"contained":[{"resourceType":"Parameters","id":"7c785cdb-1461-4abf-b97f-1993e4eff783-parameters","parameter":[{"name":"subject","valueString":"e35371bf-1c00-4581-b217-4f98f1d779ec"}]}],"extension":[{"url":"http://hl7.org/fhir/us/cqfmeasures/StructureDefinition/cqfm-inputParameters","valueReference":{"reference":"#7c785cdb-1461-4abf-b97f-1993e4eff783-parameters"}},{"url":"http://hl7.org/fhir/us/cqfmeasures/StructureDefinition/cqfm-testCaseDescription","valueMarkdown":"meets IPP and Denominator and DenExcl, inpatient visit starts <=1 hour after the end of Observation AND Comfort Measures are ordered during Obs\n"}],"modifierExtension":[{"url":"http://hl7.org/fhir/us/cqfmeasures/StructureDefinition/cqfm-isTestCase","valueBoolean":true}],"status":"complete","type":"individual","measure":"https://madie.cms.gov/Measure/CMS190VTEProphylaxisICUFHIR","period":{"start":"2026-01-01","end":"2026-12-31"},"group":[{"population":[{"code":{"coding":[{"system":"http://terminology.hl7.org/CodeSystem/measure-population","code":"initial-population","display":"Initial Population"}]},"count":1},{"code":{"coding":[{"system":"http://terminology.hl7.org/CodeSystem/measure-population","code":"denominator","display":"Denominator"}]},"count":1},{"code":{"coding":[{"system":"http://terminology.hl7.org/CodeSystem/measure-population","code":"denominator-exclusion","display":"Denominator Exclusion"}]},"count":1},{"code":{"coding":[{"system":"http://terminology.hl7.org/CodeSystem/measure-population","code":"numerator","display":"Numerator"}]},"count":0},{"code":{"coding":[{"system":"http://terminology.hl7.org/CodeSystem/measure-population","code":"denominator-exception","display":"Denominator Exception"}]},"count":0}]}]},"request":{"method":"PUT","url":"MeasureReport/c3dc40ff-d64b-4244-b7c2-39e06252abfc"}}]}