{"resourceType":"Bundle","id":"tests-f4ff5419-ce35-4a19-9a6e-7e69977d51b8-bundle","type":"transaction","entry":[{"fullUrl":"https://madie.cms.gov/Patient/f4ff5419-ce35-4a19-9a6e-7e69977d51b8","resource":{"resourceType":"Patient","id":"f4ff5419-ce35-4a19-9a6e-7e69977d51b8","meta":{"profile":["http://hl7.org/fhir/us/qicore/StructureDefinition/qicore-patient"]},"text":{"status":"generated","div":"<div xmlns=\"http://www.w3.org/1999/xhtml\"><div class=\"hapiHeaderText\">PtRefDOIPC2DayAFEncBFICU <b>NUMERPASS </b></div><table class=\"hapiPropertyTable\"><tbody><tr><td>Identifier</td><td>24fc1ce85ce14557dd4d9eba17df9f17</td></tr><tr><td>Date of birth</td><td><span>02 January 1974</span></td></tr></tbody></table></div>"},"extension":[{"url":"http://hl7.org/fhir/us/core/StructureDefinition/us-core-race","extension":[{"url":"ombCategory","valueCoding":{"system":"urn:oid:2.16.840.1.113883.6.238","code":"1002-5","display":"American Indian or Alaska Native","userSelected":true}},{"url":"text","valueString":"American Indian or Alaska Native"}]},{"url":"http://hl7.org/fhir/us/core/StructureDefinition/us-core-ethnicity","extension":[{"url":"ombCategory","valueCoding":{"system":"urn:oid:2.16.840.1.113883.6.238","code":"2135-2","display":"Hispanic or Latino","userSelected":true}},{"url":"text","valueString":"Hispanic or Latino"}]}],"identifier":[{"type":{"coding":[{"system":"http://terminology.hl7.org/CodeSystem/v2-0203","code":"MR"}]},"system":"https://bonnie-fhir.healthit.gov/","value":"612e6b9302c62a011f2ee63c"}],"active":true,"name":[{"use":"usual","family":"NUMERPass","given":["PtRefDOIPC2DayAFEncBFICU"]}],"gender":"male","birthDate":"1975-01-02"},"request":{"method":"PUT","url":"Patient/f4ff5419-ce35-4a19-9a6e-7e69977d51b8"}},{"fullUrl":"https://madie.cms.gov/Encounter/d49068fe-63f8-4d4d-9bc9-9b94d61c8137","resource":{"resourceType":"Encounter","id":"d49068fe-63f8-4d4d-9bc9-9b94d61c8137","meta":{"profile":["http://hl7.org/fhir/us/qicore/StructureDefinition/qicore-encounter"]},"status":"finished","class":{"system":"http://terminology.hl7.org/CodeSystem/v3-ActCode","code":"IMP","display":"inpatient encounter"},"type":[{"coding":[{"system":"http://snomed.info/sct","code":"8715000"}]}],"subject":{"reference":"Patient/f4ff5419-ce35-4a19-9a6e-7e69977d51b8"},"period":{"start":"2026-11-01T08:00:00+00:00","end":"2026-11-26T08:15:00+00:00"},"length":{"value":25,"unit":"days"},"location":[{"location":{"reference":"Location/eefa95cb-34f4-4894-b261-6c27e9c3f5b5"},"period":{"start":"2026-11-04T09:00:00.000+00:00","end":"2026-11-06T08:15:00.000+00:00"}}]},"request":{"method":"PUT","url":"Encounter/d49068fe-63f8-4d4d-9bc9-9b94d61c8137"}},{"fullUrl":"https://madie.cms.gov/Coverage/74950403-f8cc-480f-a649-929ad6188228","resource":{"resourceType":"Coverage","id":"74950403-f8cc-480f-a649-929ad6188228","status":"active","beneficiary":{"reference":"Patient/f4ff5419-ce35-4a19-9a6e-7e69977d51b8"},"period":{"start":"1975-01-02T08:00:00+00:00"},"payor":[{"reference":"Organization/5ad6ea38-07e9-4482-9e1b-c09eee595be9"}]},"request":{"method":"PUT","url":"Coverage/74950403-f8cc-480f-a649-929ad6188228"}},{"fullUrl":"https://madie.cms.gov/ServiceRequest/695f93a5-b9cf-41d7-abbc-6c6751fd03f0","resource":{"resourceType":"ServiceRequest","id":"695f93a5-b9cf-41d7-abbc-6c6751fd03f0","meta":{"profile":["http://hl7.org/fhir/us/qicore/StructureDefinition/qicore-servicenotrequested"]},"extension":[{"url":"http://hl7.org/fhir/us/qicore/StructureDefinition/qicore-doNotPerformReason","valueCodeableConcept":{"coding":[{"system":"http://snomed.info/sct","code":"443390004","display":"Refusal of treatment by patient (situation)"}]}}],"status":"completed","intent":"order","doNotPerform":true,"code":{"coding":[{"system":"http://snomed.info/sct","code":"428411000124104","display":"Intermittent pneumatic compression boot (physical object)","userSelected":true}]},"subject":{"reference":"Patient/f4ff5419-ce35-4a19-9a6e-7e69977d51b8"},"authoredOn":"2026-11-03T11:00:00.000+00:00"},"request":{"method":"PUT","url":"ServiceRequest/695f93a5-b9cf-41d7-abbc-6c6751fd03f0"}},{"fullUrl":"https://madie.cms.gov/Location/eefa95cb-34f4-4894-b261-6c27e9c3f5b5","resource":{"resourceType":"Location","id":"eefa95cb-34f4-4894-b261-6c27e9c3f5b5","meta":{"profile":["http://hl7.org/fhir/us/qicore/StructureDefinition/qicore-location"]},"identifier":[{"use":"usual","system":"http://exampleoflocation.com","value":"B1-S.F2"}],"name":"Medical Surgical East, first floor","type":[{"coding":[{"system":"https://www.cdc.gov/nhsn/cdaportal/terminology/codesystem/hsloc.html","code":"1025-6","display":"Trauma Critical Care","userSelected":true}]}]},"request":{"method":"PUT","url":"Location/eefa95cb-34f4-4894-b261-6c27e9c3f5b5"}},{"fullUrl":"https://madie.cms.gov/Organization/ef805c5f-133b-446a-9ac6-a95d05f428c5","resource":{"resourceType":"Organization","id":"5ad6ea38-07e9-4482-9e1b-c09eee595be9","meta":{"profile":["http://hl7.org/fhir/us/qicore/StructureDefinition/qicore-organization"]},"identifier":[{"use":"temp","system":"urn:oid:2.16.840.1.113883.4.4","value":"21-3259825"}],"active":true,"type":[{"coding":[{"system":"http://terminology.hl7.org/CodeSystem/organization-type","code":"pay","display":"Payer"}]}],"name":"Blue Cross Blue Shield of Texas","telecom":[{"system":"phone","value":"(+1) 972-766-6900"}],"address":[{"use":"billing","type":"postal","line":["P.O. Box 660044"],"city":"Dallas","state":"TX","postalCode":"75266-0044","country":"USA"}]},"request":{"method":"PUT","url":"Organization/5ad6ea38-07e9-4482-9e1b-c09eee595be9"}},{"fullUrl":"https://madie.cms.gov/Practitioner/794281ce-2df2-4e76-85e4-e20ba8768551","resource":{"resourceType":"Practitioner","id":"794281ce-2df2-4e76-85e4-e20ba8768551","identifier":[{"system":"http://hl7.org/fhir/sid/us-npi","value":"123456"}],"name":[{"family":"Evil","prefix":["Dr"]}]},"request":{"method":"PUT","url":"Practitioner/794281ce-2df2-4e76-85e4-e20ba8768551"}},{"fullUrl":"https://madie.cms.gov/MeasureReport/c1635032-6660-477a-b9cf-44b886667ed2","resource":{"resourceType":"MeasureReport","id":"c1635032-6660-477a-b9cf-44b886667ed2","meta":{"profile":["http://hl7.org/fhir/us/cqfmeasures/StructureDefinition/test-case-cqfm"]},"contained":[{"resourceType":"Parameters","id":"c7e6bbca-eb8f-42d3-8cca-b3ff65cc515f-parameters","parameter":[{"name":"subject","valueString":"f4ff5419-ce35-4a19-9a6e-7e69977d51b8"}]}],"extension":[{"url":"http://hl7.org/fhir/us/cqfmeasures/StructureDefinition/cqfm-inputParameters","valueReference":{"reference":"#c7e6bbca-eb8f-42d3-8cca-b3ff65cc515f-parameters"}},{"url":"http://hl7.org/fhir/us/cqfmeasures/StructureDefinition/cqfm-testCaseDescription","valueMarkdown":"meets IPP, meets Denominator, IPC ordered not done PatRfsl 12day after Encounter  before ICU start\n"}],"modifierExtension":[{"url":"http://hl7.org/fhir/us/cqfmeasures/StructureDefinition/cqfm-isTestCase","valueBoolean":true}],"status":"complete","type":"individual","measure":"https://madie.cms.gov/Measure/CMS190VTEProphylaxisICUFHIR","period":{"start":"2026-01-01","end":"2026-12-31"},"group":[{"population":[{"code":{"coding":[{"system":"http://terminology.hl7.org/CodeSystem/measure-population","code":"initial-population","display":"Initial Population"}]},"count":1},{"code":{"coding":[{"system":"http://terminology.hl7.org/CodeSystem/measure-population","code":"denominator","display":"Denominator"}]},"count":1},{"code":{"coding":[{"system":"http://terminology.hl7.org/CodeSystem/measure-population","code":"denominator-exclusion","display":"Denominator Exclusion"}]},"count":0},{"code":{"coding":[{"system":"http://terminology.hl7.org/CodeSystem/measure-population","code":"numerator","display":"Numerator"}]},"count":1},{"code":{"coding":[{"system":"http://terminology.hl7.org/CodeSystem/measure-population","code":"denominator-exception","display":"Denominator Exception"}]},"count":0}]}]},"request":{"method":"PUT","url":"MeasureReport/c1635032-6660-477a-b9cf-44b886667ed2"}}]}