{"resourceType":"Bundle","id":"tests-48c37537-acc1-41a7-865e-254194f4cffa-bundle","type":"transaction","entry":[{"fullUrl":"https://madie.cms.gov/Patient/48c37537-acc1-41a7-865e-254194f4cffa","resource":{"resourceType":"Patient","id":"48c37537-acc1-41a7-865e-254194f4cffa","meta":{"profile":["http://hl7.org/fhir/us/qicore/StructureDefinition/qicore-patient"]},"text":{"status":"generated","div":"<div xmlns=\"http://www.w3.org/1999/xhtml\"><div class=\"hapiHeaderText\">EncB4MP <b>IPFAIL </b></div><table class=\"hapiPropertyTable\"><tbody><tr><td>Identifier</td><td>1971749ced0366ba55946d4deb756887</td></tr><tr><td>Date of birth</td><td><span>03 March 1974</span></td></tr></tbody></table></div>"},"extension":[{"url":"http://hl7.org/fhir/us/core/StructureDefinition/us-core-race","extension":[{"url":"ombCategory","valueCoding":{"system":"urn:oid:2.16.840.1.113883.6.238","code":"1002-5","display":"American Indian or Alaska Native","userSelected":true}},{"url":"text","valueString":"American Indian or Alaska Native"}]},{"url":"http://hl7.org/fhir/us/core/StructureDefinition/us-core-ethnicity","extension":[{"url":"ombCategory","valueCoding":{"system":"urn:oid:2.16.840.1.113883.6.238","code":"2186-5","display":"Not Hispanic or Latino","userSelected":true}},{"url":"text","valueString":"Not Hispanic or Latino"}]}],"identifier":[{"type":{"coding":[{"system":"http://terminology.hl7.org/CodeSystem/v2-0203","code":"MR"}]},"system":"https://bonnie-fhir.healthit.gov/","value":"612e6eac02c62a011f2ef380"}],"active":true,"name":[{"use":"usual","family":"IPFail","given":["EncB4MP"]}],"gender":"female","birthDate":"1975-03-03"},"request":{"method":"PUT","url":"Patient/48c37537-acc1-41a7-865e-254194f4cffa"}},{"fullUrl":"https://madie.cms.gov/Encounter/3b2f0bdd-8c8c-4dc6-bd5a-53c090ec002c","resource":{"resourceType":"Encounter","id":"3b2f0bdd-8c8c-4dc6-bd5a-53c090ec002c","meta":{"profile":["http://hl7.org/fhir/us/qicore/StructureDefinition/qicore-encounter"]},"status":"finished","class":{"system":"http://terminology.hl7.org/CodeSystem/v3-ActCode","code":"IMP","display":"inpatient encounter"},"type":[{"coding":[{"system":"http://snomed.info/sct","code":"8715000"}]}],"subject":{"reference":"Patient/48c37537-acc1-41a7-865e-254194f4cffa"},"period":{"start":"2021-12-04T08:00:00+00:00","end":"2021-12-30T08:15:00+00:00"},"length":{"value":26.0,"unit":"days"}},"request":{"method":"PUT","url":"Encounter/3b2f0bdd-8c8c-4dc6-bd5a-53c090ec002c"}},{"fullUrl":"https://madie.cms.gov/Coverage/cac5e345-c971-403c-bb8e-38f78e86b6a6","resource":{"resourceType":"Coverage","id":"cac5e345-c971-403c-bb8e-38f78e86b6a6","status":"active","beneficiary":{"reference":"Patient/48c37537-acc1-41a7-865e-254194f4cffa"},"period":{"start":"1975-03-03T08:00:00+00:00"},"payor":[{"reference":"Organization/3e899f33-84eb-4634-a770-a5a0bd7a80e7"}]},"request":{"method":"PUT","url":"Coverage/cac5e345-c971-403c-bb8e-38f78e86b6a6"}},{"fullUrl":"https://madie.cms.gov/Condition/991c7cac-9e06-4aaa-9ffa-d9019780c522","resource":{"resourceType":"Condition","id":"991c7cac-9e06-4aaa-9ffa-d9019780c522","category":[{"coding":[{"system":"http://terminology.hl7.org/CodeSystem/condition-category","code":"problem-list-item","display":"Problem List Item"}]}],"code":{"coding":[{"system":"http://hl7.org/fhir/sid/icd-10-cm","code":"I26.09"},{"system":"http://hl7.org/fhir/sid/icd-9-cm","code":"415.11"},{"system":"http://snomed.info/sct","code":"132251000119101"}]},"subject":{"reference":"Patient/48c37537-acc1-41a7-865e-254194f4cffa"},"onsetPeriod":{"start":"2026-10-04T08:00:00+00:00","end":"2026-10-05T08:15:00+00:00"}},"request":{"method":"PUT","url":"Condition/991c7cac-9e06-4aaa-9ffa-d9019780c522"}},{"fullUrl":"https://madie.cms.gov/Organization/25edcc01-43c4-4043-aff4-bdc61d8bfc10","resource":{"resourceType":"Organization","id":"3e899f33-84eb-4634-a770-a5a0bd7a80e7","meta":{"profile":["http://hl7.org/fhir/us/qicore/StructureDefinition/qicore-organization"]},"identifier":[{"use":"temp","system":"urn:oid:2.16.840.1.113883.4.4","value":"21-3259825"}],"active":true,"type":[{"coding":[{"system":"http://terminology.hl7.org/CodeSystem/organization-type","code":"pay","display":"Payer"}]}],"name":"Blue Cross Blue Shield of Texas","telecom":[{"system":"phone","value":"(+1) 972-766-6900"}],"address":[{"use":"billing","type":"postal","line":["P.O. Box 660044"],"city":"Dallas","state":"TX","postalCode":"75266-0044","country":"USA"}]},"request":{"method":"PUT","url":"Organization/3e899f33-84eb-4634-a770-a5a0bd7a80e7"}},{"fullUrl":"https://madie.cms.gov/Practitioner/6188de32-d1a4-4ba0-af6d-9da7ab0e535d","resource":{"resourceType":"Practitioner","id":"6188de32-d1a4-4ba0-af6d-9da7ab0e535d","identifier":[{"system":"http://hl7.org/fhir/sid/us-npi","value":"123456"}],"name":[{"family":"Evil","prefix":["Dr"]}]},"request":{"method":"PUT","url":"Practitioner/6188de32-d1a4-4ba0-af6d-9da7ab0e535d"}},{"fullUrl":"https://madie.cms.gov/MeasureReport/489f1984-474f-4a25-96bf-63a62d9f6c33","resource":{"resourceType":"MeasureReport","id":"489f1984-474f-4a25-96bf-63a62d9f6c33","meta":{"profile":["http://hl7.org/fhir/us/cqfmeasures/StructureDefinition/test-case-cqfm"]},"contained":[{"resourceType":"Parameters","id":"a483f567-a1a6-492b-9ad1-a35ef27a014c-parameters","parameter":[{"name":"subject","valueString":"48c37537-acc1-41a7-865e-254194f4cffa"}]}],"extension":[{"url":"http://hl7.org/fhir/us/cqfmeasures/StructureDefinition/cqfm-inputParameters","valueReference":{"reference":"#a483f567-a1a6-492b-9ad1-a35ef27a014c-parameters"}},{"url":"http://hl7.org/fhir/us/cqfmeasures/StructureDefinition/cqfm-testCaseDescription","valueMarkdown":"encounter before MP\n"}],"modifierExtension":[{"url":"http://hl7.org/fhir/us/cqfmeasures/StructureDefinition/cqfm-isTestCase","valueBoolean":true}],"status":"complete","type":"individual","measure":"https://madie.cms.gov/Measure/CMS190VTEProphylaxisICUFHIR","period":{"start":"2026-01-01","end":"2026-12-31"},"group":[{"population":[{"code":{"coding":[{"system":"http://terminology.hl7.org/CodeSystem/measure-population","code":"initial-population","display":"Initial Population"}]},"count":0},{"code":{"coding":[{"system":"http://terminology.hl7.org/CodeSystem/measure-population","code":"denominator","display":"Denominator"}]},"count":0},{"code":{"coding":[{"system":"http://terminology.hl7.org/CodeSystem/measure-population","code":"denominator-exclusion","display":"Denominator Exclusion"}]},"count":0},{"code":{"coding":[{"system":"http://terminology.hl7.org/CodeSystem/measure-population","code":"numerator","display":"Numerator"}]},"count":0},{"code":{"coding":[{"system":"http://terminology.hl7.org/CodeSystem/measure-population","code":"denominator-exception","display":"Denominator Exception"}]},"count":0}]}]},"request":{"method":"PUT","url":"MeasureReport/489f1984-474f-4a25-96bf-63a62d9f6c33"}}]}