{
  "resourceType": "Bundle",
  "id": "6129132a02c62a011f2e61b4",
  "type": "transaction",
  "entry": [ {
    "fullUrl": "https://madie.cms.gov/Patient/0edb029c-ae5a-492a-ad4c-79ea0f8059d4",
    "resource": {
      "resourceType": "Patient",
      "id": "0edb029c-ae5a-492a-ad4c-79ea0f8059d4",
      "meta": {
        "profile": [ "http://hl7.org/fhir/us/qicore/StructureDefinition/qicore-patient" ]
      },
      "text": {
        "status": "generated",
        "div": "<div xmlns=\"http://www.w3.org/1999/xhtml\"><div class=\"hapiHeaderText\">DischargeHomeHospice <b>DENEXPASS </b></div><table class=\"hapiPropertyTable\"><tbody><tr><td>Identifier</td><td>29f41b75b21b90d293fcbaa4c71bd6e0</td></tr><tr><td>Date of birth</td><td><span>21 August 1994</span></td></tr></tbody></table></div>"
      },
      "extension": [ {
        "url": "http://hl7.org/fhir/us/core/StructureDefinition/us-core-race",
        "extension": [ {
          "url": "ombCategory",
          "valueCoding": {
            "system": "urn:oid:2.16.840.1.113883.6.238",
            "code": "1002-5",
            "display": "American Indian or Alaska Native",
            "userSelected": true
          }
        }, {
          "url": "text",
          "valueString": "American Indian or Alaska Native"
        } ]
      }, {
        "url": "http://hl7.org/fhir/us/core/StructureDefinition/us-core-ethnicity",
        "extension": [ {
          "url": "ombCategory",
          "valueCoding": {
            "system": "urn:oid:2.16.840.1.113883.6.238",
            "code": "2135-2",
            "display": "Hispanic or Latino",
            "userSelected": true
          }
        }, {
          "url": "text",
          "valueString": "Hispanic or Latino"
        } ]
      } ],
      "identifier": [ {
        "type": {
          "coding": [ {
            "system": "http://terminology.hl7.org/CodeSystem/v2-0203",
            "code": "MR"
          } ]
        },
        "system": "https://bonnie-fhir.healthit.gov/",
        "value": "6129132a02c62a011f2e61b4"
      } ],
      "active": true,
      "name": [ {
        "use": "usual",
        "family": "DENEXPass",
        "given": [ "DischargeHomeHospice" ]
      } ],
      "gender": "male",
      "birthDate": "1995-08-21"
    },
    "request": {
      "method": "PUT",
      "url": "Patient/0edb029c-ae5a-492a-ad4c-79ea0f8059d4"
    }
  }, {
    "fullUrl": "https://madie.cms.gov/Encounter/b2fbde5e-9bd0-45df-b554-bd25c702091e",
    "resource": {
      "resourceType": "Encounter",
      "id": "b2fbde5e-9bd0-45df-b554-bd25c702091e",
      "meta": {
        "profile": [ "http://hl7.org/fhir/us/qicore/StructureDefinition/qicore-encounter" ]
      },
      "status": "finished",
      "class": {
        "system": "http://terminology.hl7.org/CodeSystem/v3-ActCode",
        "code": "IMP",
        "display": "inpatient encounter",
        "userSelected": true
      },
      "type": [ {
        "coding": [ {
          "system": "http://snomed.info/sct",
          "code": "32485007"
        } ]
      } ],
      "subject": {
        "reference": "Patient/0edb029c-ae5a-492a-ad4c-79ea0f8059d4"
      },
      "period": {
        "start": "2026-10-10T09:30:00.000+00:00",
        "end": "2026-10-12T10:30:00.000+00:00"
      },
      "length": {
        "value": 2,
        "unit": "days"
      },
      "diagnosis": [ {
        "condition": {
          "reference": "Condition/74fdaefc-16c6-49fb-b5a1-ddcf21f2321e"
        },
        "use": {
          "coding": [ {
            "system": "http://terminology.hl7.org/CodeSystem/diagnosis-role",
            "code": "billing",
            "display": "Billing"
          } ]
        },
        "rank": 1
      } ],
      "hospitalization": {
        "dischargeDisposition": {
          "coding": [ {
            "system": "http://snomed.info/sct",
            "code": "428361000124107",
            "display": "Discharged to Home for Hospice Care"
          } ]
        }
      }
    },
    "request": {
      "method": "PUT",
      "url": "Encounter/b2fbde5e-9bd0-45df-b554-bd25c702091e"
    }
  }, {
    "fullUrl": "https://madie.cms.gov/Condition/74fdaefc-16c6-49fb-b5a1-ddcf21f2321e",
    "resource": {
      "resourceType": "Condition",
      "id": "74fdaefc-16c6-49fb-b5a1-ddcf21f2321e",
      "meta": {
        "profile": [ "http://hl7.org/fhir/us/qicore/StructureDefinition/qicore-condition" ]
      },
      "clinicalStatus": {
        "coding": [ {
          "system": "http://terminology.hl7.org/CodeSystem/condition-clinical",
          "code": "active"
        } ]
      },
      "verificationStatus": {
        "coding": [ {
          "system": "http://terminology.hl7.org/CodeSystem/condition-ver-status",
          "code": "confirmed"
        } ]
      },
      "category": [ {
        "coding": [ {
          "system": "http://terminology.hl7.org/CodeSystem/condition-category",
          "code": "encounter-diagnosis",
          "display": "Encounter Diagnosis"
        } ]
      } ],
      "code": {
        "coding": [ {
          "system": "http://snomed.info/sct",
          "version": "2020-09",
          "code": "111297002",
          "display": "Nonparalytic stroke (disorder)",
          "userSelected": true
        } ]
      },
      "subject": {
        "reference": "Patient/0edb029c-ae5a-492a-ad4c-79ea0f8059d4"
      },
      "recordedDate": "2026-07-15T08:00:00.000+00:00"
    },
    "request": {
      "method": "PUT",
      "url": "Condition/74fdaefc-16c6-49fb-b5a1-ddcf21f2321e"
    }
  }, {
    "fullUrl": "https://madie.cms.gov/Coverage/04641643-505e-4e12-98c5-4ec5e473231b",
    "resource": {
      "resourceType": "Coverage",
      "id": "04641643-505e-4e12-98c5-4ec5e473231b",
      "meta": {
        "profile": [ "http://hl7.org/fhir/us/qicore/StructureDefinition/qicore-coverage" ]
      },
      "status": "active",
      "beneficiary": {
        "reference": "Patient/0edb029c-ae5a-492a-ad4c-79ea0f8059d4"
      },
      "payor": [ {
        "reference": "Organization/135ea9d3-b065-4677-8314-3fcc5ecc5e45"
      } ]
    },
    "request": {
      "method": "PUT",
      "url": "Coverage/04641643-505e-4e12-98c5-4ec5e473231b"
    }
  }, {
    "fullUrl": "https://madie.cms.gov/Organization/135ea9d3-b065-4677-8314-3fcc5ecc5e45",
    "resource": {
      "resourceType": "Organization",
      "id": "135ea9d3-b065-4677-8314-3fcc5ecc5e45",
      "meta": {
        "profile": [ "http://hl7.org/fhir/us/qicore/StructureDefinition/qicore-organization" ]
      },
      "identifier": [ {
        "use": "temp",
        "system": "urn:oid:2.16.840.1.113883.4.4",
        "value": "21-3259825"
      } ],
      "active": true,
      "type": [ {
        "coding": [ {
          "system": "http://terminology.hl7.org/CodeSystem/organization-type",
          "code": "pay",
          "display": "Payer"
        } ]
      } ],
      "name": "Blue Cross Blue Shield of Texas",
      "telecom": [ {
        "system": "phone",
        "value": "(+1) 972-766-6900"
      } ],
      "address": [ {
        "use": "billing",
        "type": "postal",
        "line": [ "P.O. Box 660044" ],
        "city": "Dallas",
        "state": "TX",
        "postalCode": "75266-0044",
        "country": "USA"
      } ]
    },
    "request": {
      "method": "PUT",
      "url": "Organization/135ea9d3-b065-4677-8314-3fcc5ecc5e45"
    }
  }, {
    "fullUrl": "https://madie.cms.gov/MeasureReport/94c3400e-676f-42a3-bb41-6888ab3d9f38",
    "resource": {
      "resourceType": "MeasureReport",
      "id": "94c3400e-676f-42a3-bb41-6888ab3d9f38",
      "meta": {
        "profile": [ "http://hl7.org/fhir/us/cqfmeasures/StructureDefinition/test-case-cqfm" ]
      },
      "contained": [ {
        "resourceType": "Parameters",
        "id": "d3c99433-ba1f-43ee-80e6-b2df17d90efa-parameters",
        "parameter": [ {
          "name": "subject",
          "valueString": "0edb029c-ae5a-492a-ad4c-79ea0f8059d4"
        } ]
      } ],
      "extension": [ {
        "url": "http://hl7.org/fhir/us/cqfmeasures/StructureDefinition/cqfm-inputParameters",
        "valueReference": {
          "reference": "#d3c99433-ba1f-43ee-80e6-b2df17d90efa-parameters"
        }
      }, {
        "url": "http://hl7.org/fhir/us/cqfmeasures/StructureDefinition/cqfm-testCaseDescription",
        "valueMarkdown": "Patient is 18 with Non-Elective Inpatient Encounter with principal diagnosis of ischemic stroke ends during MP discharged to home for hospice care"
      } ],
      "modifierExtension": [ {
        "url": "http://hl7.org/fhir/us/cqfmeasures/StructureDefinition/cqfm-isTestCase",
        "valueBoolean": true
      } ],
      "status": "complete",
      "type": "individual",
      "measure": "https://madie.cms.gov/Measure/CMS104FHIRSTKDCAntithrombotic",
      "period": {
        "start": "2026-01-01",
        "end": "2026-12-31"
      },
      "group": [ {
        "population": [ {
          "code": {
            "coding": [ {
              "system": "http://terminology.hl7.org/CodeSystem/measure-population",
              "code": "initial-population",
              "display": "Initial Population"
            } ]
          },
          "count": 1
        }, {
          "code": {
            "coding": [ {
              "system": "http://terminology.hl7.org/CodeSystem/measure-population",
              "code": "denominator",
              "display": "Denominator"
            } ]
          },
          "count": 1
        }, {
          "code": {
            "coding": [ {
              "system": "http://terminology.hl7.org/CodeSystem/measure-population",
              "code": "denominator-exclusion",
              "display": "Denominator Exclusion"
            } ]
          },
          "count": 1
        }, {
          "code": {
            "coding": [ {
              "system": "http://terminology.hl7.org/CodeSystem/measure-population",
              "code": "numerator",
              "display": "Numerator"
            } ]
          },
          "count": 0
        }, {
          "code": {
            "coding": [ {
              "system": "http://terminology.hl7.org/CodeSystem/measure-population",
              "code": "denominator-exception",
              "display": "Denominator Exception"
            } ]
          },
          "count": 0
        } ]
      } ],
      "evaluatedResource": [ {
        "reference": "Patient/0edb029c-ae5a-492a-ad4c-79ea0f8059d4"
      }, {
        "reference": "Encounter/b2fbde5e-9bd0-45df-b554-bd25c702091e"
      }, {
        "reference": "Condition/74fdaefc-16c6-49fb-b5a1-ddcf21f2321e"
      }, {
        "reference": "Coverage/04641643-505e-4e12-98c5-4ec5e473231b"
      }, {
        "reference": "Organization/135ea9d3-b065-4677-8314-3fcc5ecc5e45"
      } ]
    },
    "request": {
      "method": "PUT",
      "url": "MeasureReport/94c3400e-676f-42a3-bb41-6888ab3d9f38"
    }
  } ]
}