{"resourceType":"Bundle","id":"tests-7a38f99c-a713-4631-9a05-13cfe1a21e5a-bundle","type":"transaction","entry":[{"fullUrl":"https://madie.cms.gov/Patient/7a38f99c-a713-4631-9a05-13cfe1a21e5a","resource":{"resourceType":"Patient","id":"7a38f99c-a713-4631-9a05-13cfe1a21e5a","meta":{"profile":["http://hl7.org/fhir/us/qicore/StructureDefinition/qicore-patient"]},"extension":[{"url":"http://hl7.org/fhir/us/core/StructureDefinition/us-core-race","extension":[{"url":"ombCategory","valueCoding":{"system":"urn:oid:2.16.840.1.113883.6.238","code":"2028-9","display":"Asian","userSelected":true}},{"url":"text","valueString":"Asian"}]},{"url":"http://hl7.org/fhir/us/core/StructureDefinition/us-core-ethnicity","extension":[{"url":"ombCategory","valueCoding":{"system":"urn:oid:2.16.840.1.113883.6.238","code":"2135-2","display":"Hispanic or Latino","userSelected":true}},{"url":"text","valueString":"Hispanic or Latino"}]}],"identifier":[{"type":{"coding":[{"system":"http://terminology.hl7.org/CodeSystem/v2-0203","code":"MR"}]},"system":"http://hospital.smarthealthit.org","value":"999999995"}],"name":[{"family":"Bertha","given":["Betty"]}],"gender":"female","birthDate":"2007-12-31"},"request":{"method":"PUT","url":"Patient/7a38f99c-a713-4631-9a05-13cfe1a21e5a"}},{"fullUrl":"https://madie.cms.gov/Encounter/Encounter-29","resource":{"resourceType":"Encounter","id":"c0fdef83-7e11-44ed-a92a-69d922a5d46e","meta":{"profile":["http://hl7.org/fhir/us/qicore/StructureDefinition/qicore-encounter"]},"status":"finished","class":{"system":"http://terminology.hl7.org/CodeSystem/v3-ActCode","code":"AMB","display":"ambulatory"},"type":[{"coding":[{"system":"http://snomed.info/sct","code":"185463005","display":"Visit out of hours (procedure)"}]}],"subject":{"reference":"Patient/7a38f99c-a713-4631-9a05-13cfe1a21e5a"},"period":{"start":"2025-01-01T00:00:00.000Z","end":"2025-01-01T00:00:00.000Z"}},"request":{"method":"PUT","url":"Encounter/c0fdef83-7e11-44ed-a92a-69d922a5d46e"}},{"fullUrl":"https://madie.cms.gov/Condition/Condition-29","resource":{"resourceType":"Condition","id":"3b978651-bbce-4846-94e7-17d603348b8b","meta":{"profile":["http://hl7.org/fhir/us/qicore/StructureDefinition/qicore-condition"]},"clinicalStatus":{"coding":[{"system":"http://terminology.hl7.org/CodeSystem/condition-clinical","code":"active"}]},"category":[{"coding":[{"system":"http://terminology.hl7.org/CodeSystem/condition-category","code":"problem-list-item","display":"Problem List Item"}]}],"code":{"coding":[{"system":"http://snomed.info/sct","code":"102781000119107","display":"Sensory neuropathy due to type 1 diabetes mellitus (disorder)"}]},"subject":{"reference":"Patient/7a38f99c-a713-4631-9a05-13cfe1a21e5a"},"onsetDateTime":"2025-01-01T00:00:00.000Z"},"request":{"method":"PUT","url":"Condition/3b978651-bbce-4846-94e7-17d603348b8b"}},{"fullUrl":"https://madie.cms.gov/Condition/Condition-29.1","resource":{"resourceType":"Condition","id":"37bc08a5-5ffe-4f3e-adf6-3b12cf6afd18","meta":{"profile":["http://hl7.org/fhir/us/qicore/StructureDefinition/qicore-condition"]},"clinicalStatus":{"coding":[{"system":"http://terminology.hl7.org/CodeSystem/condition-clinical","code":"active"}]},"category":[{"coding":[{"system":"http://terminology.hl7.org/CodeSystem/condition-category","code":"problem-list-item","display":"Problem List Item"}]}],"code":{"coding":[{"system":"http://snomed.info/sct","code":"193349004","display":"Preproliferative retinopathy due to diabetes mellitus (disorder)"}]},"subject":{"reference":"Patient/7a38f99c-a713-4631-9a05-13cfe1a21e5a"},"onsetDateTime":"2024-12-31T23:59:59.000Z"},"request":{"method":"PUT","url":"Condition/37bc08a5-5ffe-4f3e-adf6-3b12cf6afd18"}},{"fullUrl":"https://madie.cms.gov/Observation/Observation-29","resource":{"resourceType":"Observation","id":"089a0b41-a117-42b0-9aeb-92c409c3a82a","meta":{"profile":["http://hl7.org/fhir/us/qicore/StructureDefinition/qicore-observation"]},"status":"final","category":[{"coding":[{"system":"http://terminology.hl7.org/CodeSystem/observation-category","code":"exam"}]}],"code":{"coding":[{"system":"http://snomed.info/sct","code":"252779009","display":"Single bright white flash electroretinography (procedure)"}]},"subject":{"reference":"Patient/7a38f99c-a713-4631-9a05-13cfe1a21e5a"},"effectivePeriod":{"start":"2024-12-31T23:59:59.000Z","end":"2024-12-31T23:59:59.000Z"}},"request":{"method":"PUT","url":"Observation/089a0b41-a117-42b0-9aeb-92c409c3a82a"}},{"fullUrl":"https://madie.cms.gov/MeasureReport/6c56ae10-cd41-4ebe-9f62-35a2538926c0","resource":{"resourceType":"MeasureReport","id":"6c56ae10-cd41-4ebe-9f62-35a2538926c0","meta":{"profile":["http://hl7.org/fhir/us/cqfmeasures/StructureDefinition/test-case-cqfm"]},"contained":[{"resourceType":"Parameters","id":"3d4e4665-e0c7-4a81-8644-e26d909bd65c-parameters","parameter":[{"name":"subject","valueString":"7a38f99c-a713-4631-9a05-13cfe1a21e5a"}]}],"extension":[{"url":"http://hl7.org/fhir/us/cqfmeasures/StructureDefinition/cqfm-inputParameters","valueReference":{"reference":"#3d4e4665-e0c7-4a81-8644-e26d909bd65c-parameters"}},{"url":"http://hl7.org/fhir/us/cqfmeasures/StructureDefinition/cqfm-testCaseDescription","valueMarkdown":"Patient 18yo w/ an Office Visit Encounter, Diabetes Condition ending 1/1 during the MP, and Retinopathy Condition 12/31 of the year before the MP, with an Eye Exam Observation 12/31 of year before the MP."}],"modifierExtension":[{"url":"http://hl7.org/fhir/us/cqfmeasures/StructureDefinition/cqfm-isTestCase","valueBoolean":true}],"status":"complete","type":"individual","measure":"https://madie.cms.gov/Measure/DiabetesEyeExamFHIR","period":{"start":"2025-01-01","end":"2025-12-31"},"group":[{"population":[{"code":{"coding":[{"system":"http://terminology.hl7.org/CodeSystem/measure-population","code":"initial-population","display":"Initial Population"}]},"count":1},{"code":{"coding":[{"system":"http://terminology.hl7.org/CodeSystem/measure-population","code":"denominator","display":"Denominator"}]},"count":1},{"code":{"coding":[{"system":"http://terminology.hl7.org/CodeSystem/measure-population","code":"denominator-exclusion","display":"Denominator Exclusion"}]},"count":0},{"code":{"coding":[{"system":"http://terminology.hl7.org/CodeSystem/measure-population","code":"numerator","display":"Numerator"}]},"count":0}]}]},"request":{"method":"PUT","url":"MeasureReport/6c56ae10-cd41-4ebe-9f62-35a2538926c0"}}]}