{"resourceType":"Bundle","id":"tests-b3ab1c89-76bd-4914-8c95-430e8601afad-bundle","type":"transaction","entry":[{"fullUrl":"https://madie.cms.gov/Patient/b3ab1c89-76bd-4914-8c95-430e8601afad","resource":{"resourceType":"Patient","id":"b3ab1c89-76bd-4914-8c95-430e8601afad","meta":{"profile":["http://hl7.org/fhir/us/qicore/StructureDefinition/qicore-patient"]},"extension":[{"url":"http://hl7.org/fhir/us/core/StructureDefinition/us-core-race","extension":[{"url":"ombCategory","valueCoding":{"system":"urn:oid:2.16.840.1.113883.6.238","code":"2028-9","display":"Asian"}},{"url":"text","valueString":"Asian"}]},{"url":"http://hl7.org/fhir/us/core/StructureDefinition/us-core-ethnicity","extension":[{"url":"ombCategory","valueCoding":{"system":"urn:oid:2.16.840.1.113883.6.238","code":"2135-2","display":"Hispanic or Latino"}},{"url":"text","valueString":"Hispanic or Latino"}]}],"identifier":[{"system":"http://hospital.smarthealthit.org","value":"999999995"}],"name":[{"family":"Bertha","given":["Betty"]}],"gender":"female","birthDate":"1959-12-31"},"request":{"method":"PUT","url":"Patient/b3ab1c89-76bd-4914-8c95-430e8601afad"}},{"fullUrl":"https://madie.cms.gov/Encounter/Encounter-19","resource":{"resourceType":"Encounter","id":"Encounter-19","meta":{"profile":["http://hl7.org/fhir/us/qicore/StructureDefinition/qicore-encounter"]},"status":"finished","class":{"system":"http://terminology.hl7.org/CodeSystem/v3-ActCode","code":"AMB","display":"ambulatory"},"type":[{"coding":[{"system":"http://snomed.info/sct","code":"185463005","display":"Visit out of hours (procedure)"}]}],"subject":{"reference":"Patient/b3ab1c89-76bd-4914-8c95-430e8601afad"},"period":{"start":"2025-01-01T00:00:00.000Z","end":"2025-01-01T00:00:00.000Z"}},"request":{"method":"PUT","url":"Encounter/Encounter-19"}},{"fullUrl":"https://madie.cms.gov/Condition/Condition-19","resource":{"resourceType":"Condition","id":"Condition-19","meta":{"profile":["http://hl7.org/fhir/us/qicore/StructureDefinition/qicore-condition"]},"clinicalStatus":{"coding":[{"system":"http://terminology.hl7.org/CodeSystem/condition-clinical","code":"active"}]},"category":[{"coding":[{"system":"http://terminology.hl7.org/CodeSystem/condition-category","code":"problem-list-item","display":"Problem List Item"}]}],"code":{"coding":[{"system":"http://snomed.info/sct","code":"102781000119107","display":"Sensory neuropathy due to type 1 diabetes mellitus (disorder)"}]},"subject":{"reference":"Patient/b3ab1c89-76bd-4914-8c95-430e8601afad"},"onsetDateTime":"2025-01-01T00:00:00.000Z"},"request":{"method":"PUT","url":"Condition/Condition-19"}},{"fullUrl":"https://madie.cms.gov/Encounter/Encounter-19.1","resource":{"resourceType":"Encounter","id":"Encounter-19.1","meta":{"profile":["http://hl7.org/fhir/us/qicore/StructureDefinition/qicore-encounter"]},"status":"finished","class":{"system":"http://terminology.hl7.org/CodeSystem/v3-ActCode","code":"AMB","display":"ambulatory"},"type":[{"coding":[{"system":"http://snomed.info/sct","code":"10378005","display":"Hospital admission, emergency, from emergency room, accidental injury (procedure)"}]}],"subject":{"reference":"Patient/b3ab1c89-76bd-4914-8c95-430e8601afad"},"period":{"start":"2026-01-01T00:00:00.000Z","end":"2026-01-01T00:00:00.000Z"},"diagnosis":[{"condition":{"reference":"Condition/19.1"}}]},"request":{"method":"PUT","url":"Encounter/Encounter-19.1"}},{"fullUrl":"https://madie.cms.gov/Condition/19.1","resource":{"resourceType":"Condition","id":"19.1","meta":{"profile":["http://hl7.org/fhir/us/qicore/StructureDefinition/qicore-condition"]},"clinicalStatus":{"coding":[{"system":"http://terminology.hl7.org/CodeSystem/condition-clinical","code":"active"}]},"category":[{"coding":[{"system":"http://terminology.hl7.org/CodeSystem/condition-category","code":"problem-list-item","display":"Problem List Item"}]}],"code":{"coding":[{"system":"http://snomed.info/sct","code":"100721000119109","display":"High grade astrocytoma of brain (disorder)"}]},"subject":{"reference":"Patient/b3ab1c89-76bd-4914-8c95-430e8601afad"},"onsetDateTime":"2025-01-01T00:00:00.000Z"},"request":{"method":"PUT","url":"Condition/19.1"}},{"fullUrl":"https://madie.cms.gov/DeviceRequest/DeviceRequest-19","resource":{"resourceType":"DeviceRequest","id":"DeviceRequest-19","meta":{"profile":["http://hl7.org/fhir/us/qicore/StructureDefinition/qicore-devicerequest"]},"modifierExtension":[{"url":"http://hl7.org/fhir/us/qicore/StructureDefinition/qicore-doNotPeform","valueBoolean":false}],"status":"completed","intent":"order","codeCodeableConcept":{"coding":[{"system":"http://snomed.info/sct","code":"183240000","display":"Self-propelled wheelchair (physical object)"}]},"subject":{"reference":"Patient/b3ab1c89-76bd-4914-8c95-430e8601afad"},"authoredOn":"2025-01-01T00:00:00.000Z"},"request":{"method":"PUT","url":"DeviceRequest/DeviceRequest-19"}},{"fullUrl":"https://madie.cms.gov/MeasureReport/2384ab61-dc4d-48b3-8958-a36ff3ad51a6","resource":{"resourceType":"MeasureReport","id":"2384ab61-dc4d-48b3-8958-a36ff3ad51a6","meta":{"profile":["http://hl7.org/fhir/us/cqfmeasures/StructureDefinition/test-case-cqfm"]},"contained":[{"resourceType":"Parameters","id":"ca4c07d5-e17a-482c-872a-a5247d26606d-parameters","parameter":[{"name":"subject","valueString":"b3ab1c89-76bd-4914-8c95-430e8601afad"}]}],"extension":[{"url":"http://hl7.org/fhir/us/cqfmeasures/StructureDefinition/cqfm-inputParameters","valueReference":{"reference":"#ca4c07d5-e17a-482c-872a-a5247d26606d-parameters"}},{"url":"http://hl7.org/fhir/us/cqfmeasures/StructureDefinition/cqfm-testCaseDescription","valueMarkdown":"Patient 66yo w/ an Office Visit  Encounter 1/1 of the MP, & Diabetes Condition ending 1/1 during the MP, & an Advanced Illness & Frailty Encounter that starts on 1/1 of the year after the MP and prcedure Interval."}],"modifierExtension":[{"url":"http://hl7.org/fhir/us/cqfmeasures/StructureDefinition/cqfm-isTestCase","valueBoolean":true}],"status":"complete","type":"individual","measure":"https://madie.cms.gov/Measure/DiabetesEyeExamFHIR","period":{"start":"2025-01-01","end":"2025-12-31"},"group":[{"population":[{"code":{"coding":[{"system":"http://terminology.hl7.org/CodeSystem/measure-population","code":"initial-population","display":"Initial Population"}]},"count":1},{"code":{"coding":[{"system":"http://terminology.hl7.org/CodeSystem/measure-population","code":"denominator","display":"Denominator"}]},"count":1},{"code":{"coding":[{"system":"http://terminology.hl7.org/CodeSystem/measure-population","code":"denominator-exclusion","display":"Denominator Exclusion"}]},"count":0},{"code":{"coding":[{"system":"http://terminology.hl7.org/CodeSystem/measure-population","code":"numerator","display":"Numerator"}]},"count":0}]}],"evaluatedResource":[{"reference":"Patient/b3ab1c89-76bd-4914-8c95-430e8601afad"},{"reference":"Encounter/Encounter-19"},{"reference":"Condition/Condition-19"},{"reference":"Encounter/Encounter-19.1"},{"reference":"Condition/19.1"},{"reference":"DeviceRequest/DeviceRequest-19"}]},"request":{"method":"PUT","url":"MeasureReport/2384ab61-dc4d-48b3-8958-a36ff3ad51a6"}}]}