{"resourceType":"Bundle","id":"tests-5ef4acf3-4b42-41fd-8793-7d1a9342865a-bundle","type":"transaction","entry":[{"fullUrl":"https://madie.cms.gov/Patient/5ef4acf3-4b42-41fd-8793-7d1a9342865a","resource":{"resourceType":"Patient","id":"5ef4acf3-4b42-41fd-8793-7d1a9342865a","meta":{"profile":["http://hl7.org/fhir/us/qicore/StructureDefinition/qicore-patient"]},"extension":[{"url":"http://hl7.org/fhir/us/core/StructureDefinition/us-core-race","extension":[{"url":"ombCategory","valueCoding":{"system":"urn:oid:2.16.840.1.113883.6.238","code":"2106-3","display":"White","userSelected":true}},{"url":"text","valueString":"White"}]},{"url":"http://hl7.org/fhir/us/core/StructureDefinition/us-core-ethnicity","extension":[{"url":"ombCategory","valueCoding":{"system":"urn:oid:2.16.840.1.113883.6.238","code":"2186-5","display":"Not Hispanic or Latino","userSelected":true}},{"url":"text","valueString":"Not Hispanic or Latino"}]}],"identifier":[{"type":{"coding":[{"system":"http://terminology.hl7.org/CodeSystem/v2-0203","code":"MR"}]},"system":"https://bonnie-fhir.healthit.gov/","value":"62fbef57bf5132f90ee35d41"}],"name":[{"family":"DENEXPass","given":["HospiceCondition"]}],"gender":"unknown","birthDate":"1956-11-07"},"request":{"method":"PUT","url":"Patient/5ef4acf3-4b42-41fd-8793-7d1a9342865a"}},{"fullUrl":"https://madie.cms.gov/Encounter/encounter-to-evaluate-bmi-533b","resource":{"resourceType":"Encounter","id":"33c1ede1-b9fb-41fa-9419-f5e7faa20420","meta":{"profile":["http://hl7.org/fhir/us/qicore/StructureDefinition/qicore-encounter"]},"status":"finished","class":{"system":"http://terminology.hl7.org/CodeSystem/v3-ActCode","code":"AMB","display":"ambulatory"},"type":[{"coding":[{"system":"http://snomed.info/sct","version":"2022-03","code":"10197000","display":"Psychiatric interview and evaluation (procedure)","userSelected":true}]}],"subject":{"reference":"Patient/5ef4acf3-4b42-41fd-8793-7d1a9342865a"},"period":{"start":"2025-12-31T23:30:00.000+00:00","end":"2025-12-31T23:59:00.000+00:00"}},"request":{"method":"PUT","url":"Encounter/33c1ede1-b9fb-41fa-9419-f5e7faa20420"}},{"fullUrl":"https://madie.cms.gov/Procedure/follow-up-for-above-normal-bmi-5350","resource":{"resourceType":"Procedure","id":"d45221df-ee26-4d91-bfbb-2d692e3f35f4","meta":{"profile":["http://hl7.org/fhir/us/qicore/StructureDefinition/qicore-procedure"]},"extension":[{"url":"http://hl7.org/fhir/us/qicore/StructureDefinition/qicore-recorded","valueDateTime":"2025-12-31T23:59:00.000+00:00"}],"status":"completed","code":{"coding":[{"system":"http://snomed.info/sct","version":"2022-03","code":"182922004","display":"Dietary regime (regime/therapy)","userSelected":true}]},"subject":{"reference":"Patient/5ef4acf3-4b42-41fd-8793-7d1a9342865a"},"performedDateTime":"2025-12-31T23:59:00.000+00:00"},"request":{"method":"PUT","url":"Procedure/d45221df-ee26-4d91-bfbb-2d692e3f35f4"}},{"fullUrl":"https://madie.cms.gov/Condition/hospice-diagnosisa-908","resource":{"resourceType":"Condition","id":"901564cc-e4d8-4955-b9a4-6d540e54b447","meta":{"profile":["http://hl7.org/fhir/us/qicore/StructureDefinition/qicore-condition"]},"clinicalStatus":{"coding":[{"system":"http://terminology.hl7.org/CodeSystem/condition-clinical","code":"active","display":"Active","userSelected":true}]},"category":[{"coding":[{"system":"http://terminology.hl7.org/CodeSystem/condition-category","code":"problem-list-item","display":"Problem List Item"},{"system":"http://snomed.info/sct","code":"439401001","display":"Diagnosis"}]}],"code":{"coding":[{"system":"http://snomed.info/sct","version":"2022-03","code":"170936009","display":"Shared care - hospice and general practitioner (finding)","userSelected":true}]},"subject":{"reference":"Patient/5ef4acf3-4b42-41fd-8793-7d1a9342865a"},"onsetDateTime":"2023-07-25T08:00:00.000+00:00"},"request":{"method":"PUT","url":"Condition/901564cc-e4d8-4955-b9a4-6d540e54b447"}},{"fullUrl":"https://madie.cms.gov/Coverage/1","resource":{"resourceType":"Coverage","id":"e9292cdc-4eb8-4a01-8b2f-86539c590746","meta":{"profile":["http://hl7.org/fhir/us/qicore/StructureDefinition/qicore-coverage"]},"status":"active","beneficiary":{"reference":"Patient/5ef4acf3-4b42-41fd-8793-7d1a9342865a"},"payor":[{"reference":"Organization/aeb2c6be-6577-4bba-a6b6-6eab95111f1b"}]},"request":{"method":"PUT","url":"Coverage/e9292cdc-4eb8-4a01-8b2f-86539c590746"}},{"fullUrl":"https://madie.cms.gov/Organization/123456","resource":{"resourceType":"Organization","id":"aeb2c6be-6577-4bba-a6b6-6eab95111f1b","meta":{"profile":["http://hl7.org/fhir/us/qicore/StructureDefinition/qicore-organization"]},"identifier":[{"use":"temp","system":"urn:oid:2.16.840.1.113883.4.4","value":"21-3259825"}],"active":true,"type":[{"coding":[{"system":"http://terminology.hl7.org/CodeSystem/organization-type","code":"pay","display":"Payer"}]}],"name":"Blue Cross Blue Shield of Texas","telecom":[{"system":"phone","value":"(+1) 972-766-6900"}],"address":[{"use":"billing","type":"postal","line":["P.O. Box 660044"],"city":"Dallas","state":"TX","postalCode":"75266-0044","country":"USA"}]},"request":{"method":"PUT","url":"Organization/aeb2c6be-6577-4bba-a6b6-6eab95111f1b"}},{"fullUrl":"https://madie.cms.gov/MeasureReport/d5681756-e37f-411d-a23a-750c7d7207eb","resource":{"resourceType":"MeasureReport","id":"d5681756-e37f-411d-a23a-750c7d7207eb","meta":{"profile":["http://hl7.org/fhir/us/cqfmeasures/StructureDefinition/test-case-cqfm"]},"contained":[{"resourceType":"Parameters","id":"cc345ceb-034b-4d42-881e-347453b0823f-parameters","parameter":[{"name":"subject","valueString":"5ef4acf3-4b42-41fd-8793-7d1a9342865a"}]}],"extension":[{"url":"http://hl7.org/fhir/us/cqfmeasures/StructureDefinition/cqfm-inputParameters","valueReference":{"reference":"#cc345ceb-034b-4d42-881e-347453b0823f-parameters"}},{"url":"http://hl7.org/fhir/us/cqfmeasures/StructureDefinition/cqfm-testCaseDescription","valueMarkdown":"Enc last day of MP, pt has hospice condition"}],"modifierExtension":[{"url":"http://hl7.org/fhir/us/cqfmeasures/StructureDefinition/cqfm-isTestCase","valueBoolean":true}],"status":"complete","type":"individual","measure":"https://madie.cms.gov/Measure/PCSBMIScreenAndFollowUpFHIR","period":{"start":"2025-01-01","end":"2025-12-31"},"group":[{"population":[{"code":{"coding":[{"system":"http://terminology.hl7.org/CodeSystem/measure-population","code":"initial-population","display":"Initial Population"}]},"count":1},{"code":{"coding":[{"system":"http://terminology.hl7.org/CodeSystem/measure-population","code":"denominator","display":"Denominator"}]},"count":1},{"code":{"coding":[{"system":"http://terminology.hl7.org/CodeSystem/measure-population","code":"denominator-exclusion","display":"Denominator Exclusion"}]},"count":1},{"code":{"coding":[{"system":"http://terminology.hl7.org/CodeSystem/measure-population","code":"numerator","display":"Numerator"}]},"count":0},{"code":{"coding":[{"system":"http://terminology.hl7.org/CodeSystem/measure-population","code":"denominator-exception","display":"Denominator Exception"}]},"count":0}]}]},"request":{"method":"PUT","url":"MeasureReport/d5681756-e37f-411d-a23a-750c7d7207eb"}}]}