{"resourceType":"Bundle","id":"tests-8e38b797-4dec-437d-8bf0-6f0fc78f8ea7-bundle","type":"transaction","entry":[{"fullUrl":"https://madie.cms.gov/Patient/8e38b797-4dec-437d-8bf0-6f0fc78f8ea7","resource":{"resourceType":"Patient","id":"8e38b797-4dec-437d-8bf0-6f0fc78f8ea7","meta":{"profile":["http://hl7.org/fhir/us/qicore/StructureDefinition/qicore-patient"]},"extension":[{"url":"http://hl7.org/fhir/us/core/StructureDefinition/us-core-race","extension":[{"url":"ombCategory","valueCoding":{"system":"urn:oid:2.16.840.1.113883.6.238","code":"2106-3","display":"White","userSelected":true}},{"url":"text","valueString":"White"}]},{"url":"http://hl7.org/fhir/us/core/StructureDefinition/us-core-ethnicity","extension":[{"url":"ombCategory","valueCoding":{"system":"urn:oid:2.16.840.1.113883.6.238","code":"2186-5","display":"Not Hispanic or Latino","userSelected":true}},{"url":"text","valueString":"Not Hispanic or Latino"}]}],"identifier":[{"type":{"coding":[{"system":"http://terminology.hl7.org/CodeSystem/v2-0203","code":"MR"}]},"system":"https://bonnie-fhir.healthit.gov/","value":"62df045c5db91778f87ca900"}],"name":[{"family":"NUMERPass","given":["HighBMIAndInterventionOrderedFollowUp"]}],"gender":"male","birthDate":"1956-11-07"},"request":{"method":"PUT","url":"Patient/8e38b797-4dec-437d-8bf0-6f0fc78f8ea7"}},{"fullUrl":"https://madie.cms.gov/Encounter/encounter-to-evaluate-bmi-533b","resource":{"resourceType":"Encounter","id":"2ba2d162-5f99-43e5-a7b5-19fa72363f85","meta":{"profile":["http://hl7.org/fhir/us/qicore/StructureDefinition/qicore-encounter"]},"status":"finished","class":{"system":"http://terminology.hl7.org/CodeSystem/v3-ActCode","code":"AMB","display":"ambulatory"},"type":[{"coding":[{"system":"http://snomed.info/sct","version":"2022-03","code":"10197000","display":"Psychiatric interview and evaluation (procedure)","userSelected":true}]}],"subject":{"reference":"Patient/8e38b797-4dec-437d-8bf0-6f0fc78f8ea7"},"period":{"start":"2025-01-01T00:00:00.000+00:00","end":"2025-01-01T00:30:00.000+00:00"}},"request":{"method":"PUT","url":"Encounter/2ba2d162-5f99-43e5-a7b5-19fa72363f85"}},{"fullUrl":"https://madie.cms.gov/Observation/body-mass-index-bmi-ratio-534c","resource":{"resourceType":"Observation","id":"99281248-bd2f-45a3-a1fe-3e5cda0a845a","meta":{"profile":["http://hl7.org/fhir/StructureDefinition/bmi"]},"status":"final","category":[{"coding":[{"system":"http://terminology.hl7.org/CodeSystem/observation-category","code":"vital-signs","display":"Vital Signs"}]}],"code":{"coding":[{"system":"http://loinc.org","code":"39156-5","display":"Body mass index (BMI) [Ratio]","userSelected":true}]},"subject":{"reference":"Patient/8e38b797-4dec-437d-8bf0-6f0fc78f8ea7"},"effectiveDateTime":"2025-01-01T00:30:00.000+00:00","valueQuantity":{"value":30.0,"unit":"kg/m2","system":"http://unitsofmeasure.org","code":"kg/m2"}},"request":{"method":"PUT","url":"Observation/99281248-bd2f-45a3-a1fe-3e5cda0a845a"}},{"fullUrl":"https://madie.cms.gov/Condition/overweight-or-obese-a901","resource":{"resourceType":"Condition","id":"74da18ac-d5ac-4439-bc43-b9afa1f90ff4","meta":{"profile":["http://hl7.org/fhir/us/qicore/StructureDefinition/qicore-condition"]},"clinicalStatus":{"coding":[{"system":"http://terminology.hl7.org/CodeSystem/condition-clinical","code":"active","display":"active","userSelected":true}]},"category":[{"coding":[{"system":"http://hl7.org/fhir/us/core/CodeSystem/condition-category","code":"health-concern","display":"Health Concern"},{"system":"http://snomed.info/sct","code":"439401001","display":"Diagnosis"}]}],"code":{"coding":[{"system":"http://hl7.org/fhir/sid/icd-10-cm","version":"2023","code":"E66.01","display":"Morbid (severe) obesity due to excess calories","userSelected":true}]},"subject":{"reference":"Patient/8e38b797-4dec-437d-8bf0-6f0fc78f8ea7"},"onsetDateTime":"2025-01-01T00:05:00.000+00:00"},"request":{"method":"PUT","url":"Condition/74da18ac-d5ac-4439-bc43-b9afa1f90ff4"}},{"fullUrl":"https://madie.cms.gov/ServiceRequest/follow-up-for-above-normal-bmi-a902","resource":{"resourceType":"ServiceRequest","id":"21481012-d830-438f-9105-166ed6cc758a","meta":{"profile":["http://hl7.org/fhir/us/qicore/StructureDefinition/qicore-servicerequest"]},"status":"active","intent":"order","code":{"coding":[{"system":"http://snomed.info/sct","version":"2022-03","code":"182922004","display":"Dietary regime (regime/therapy)","userSelected":true}]},"subject":{"reference":"Patient/8e38b797-4dec-437d-8bf0-6f0fc78f8ea7"},"authoredOn":"2025-01-01T00:30:00.000+00:00","reasonCode":[{"coding":[{"system":"http://hl7.org/fhir/sid/icd-10-cm","version":"2023","code":"E66.01","display":"Morbid (severe) obesity due to excess calories","userSelected":true}]}]},"request":{"method":"PUT","url":"ServiceRequest/21481012-d830-438f-9105-166ed6cc758a"}},{"fullUrl":"https://madie.cms.gov/Coverage/1","resource":{"resourceType":"Coverage","id":"26b80e57-f84c-4189-9c64-3a3d4f84c821","meta":{"profile":["http://hl7.org/fhir/us/qicore/StructureDefinition/qicore-coverage"]},"status":"active","beneficiary":{"reference":"Patient/8e38b797-4dec-437d-8bf0-6f0fc78f8ea7"},"payor":[{"reference":"Organization/607fdef9-3983-4cef-ab1a-95434d29b463"}]},"request":{"method":"PUT","url":"Coverage/26b80e57-f84c-4189-9c64-3a3d4f84c821"}},{"fullUrl":"https://madie.cms.gov/Organization/123456","resource":{"resourceType":"Organization","id":"607fdef9-3983-4cef-ab1a-95434d29b463","meta":{"profile":["http://hl7.org/fhir/us/qicore/StructureDefinition/qicore-organization"]},"identifier":[{"use":"temp","system":"urn:oid:2.16.840.1.113883.4.4","value":"21-3259825"}],"active":true,"type":[{"coding":[{"system":"http://terminology.hl7.org/CodeSystem/organization-type","code":"pay","display":"Payer"}]}],"name":"Blue Cross Blue Shield of Texas","telecom":[{"system":"phone","value":"(+1) 972-766-6900"}],"address":[{"use":"billing","type":"postal","line":["P.O. Box 660044"],"city":"Dallas","state":"TX","postalCode":"75266-0044","country":"USA"}]},"request":{"method":"PUT","url":"Organization/607fdef9-3983-4cef-ab1a-95434d29b463"}},{"fullUrl":"https://madie.cms.gov/MeasureReport/f8bb58ef-2b87-473c-a748-8c8c660b4ad0","resource":{"resourceType":"MeasureReport","id":"f8bb58ef-2b87-473c-a748-8c8c660b4ad0","meta":{"profile":["http://hl7.org/fhir/us/cqfmeasures/StructureDefinition/test-case-cqfm"]},"contained":[{"resourceType":"Parameters","id":"73eaeb25-11a9-497a-b1d8-8b2564ebc62e-parameters","parameter":[{"name":"subject","valueString":"8e38b797-4dec-437d-8bf0-6f0fc78f8ea7"}]}],"extension":[{"url":"http://hl7.org/fhir/us/cqfmeasures/StructureDefinition/cqfm-inputParameters","valueReference":{"reference":"#73eaeb25-11a9-497a-b1d8-8b2564ebc62e-parameters"}},{"url":"http://hl7.org/fhir/us/cqfmeasures/StructureDefinition/cqfm-testCaseDescription","valueMarkdown":"High BMI with dietary intervention ordered - f/u for above normal BMI, condition overweight"}],"modifierExtension":[{"url":"http://hl7.org/fhir/us/cqfmeasures/StructureDefinition/cqfm-isTestCase","valueBoolean":true}],"status":"complete","type":"individual","measure":"https://madie.cms.gov/Measure/PCSBMIScreenAndFollowUpFHIR","period":{"start":"2025-01-01","end":"2025-12-31"},"group":[{"population":[{"code":{"coding":[{"system":"http://terminology.hl7.org/CodeSystem/measure-population","code":"initial-population","display":"Initial Population"}]},"count":1},{"code":{"coding":[{"system":"http://terminology.hl7.org/CodeSystem/measure-population","code":"denominator","display":"Denominator"}]},"count":1},{"code":{"coding":[{"system":"http://terminology.hl7.org/CodeSystem/measure-population","code":"denominator-exclusion","display":"Denominator Exclusion"}]},"count":0},{"code":{"coding":[{"system":"http://terminology.hl7.org/CodeSystem/measure-population","code":"denominator-exception","display":"Denominator Exception"}]},"count":0},{"code":{"coding":[{"system":"http://terminology.hl7.org/CodeSystem/measure-population","code":"numerator","display":"Numerator"}]},"count":1}]}]},"request":{"method":"PUT","url":"MeasureReport/f8bb58ef-2b87-473c-a748-8c8c660b4ad0"}}]}