{
  "resourceType": "Bundle",
  "id": "63487c2f0968f801225401a4",
  "type": "transaction",
  "entry": [ {
    "fullUrl": "https://madie.cms.gov/Patient/9ce43862-05d8-43a6-a1d6-d270f65e318e",
    "resource": {
      "resourceType": "Patient",
      "id": "9ce43862-05d8-43a6-a1d6-d270f65e318e",
      "meta": {
        "profile": [ "http://hl7.org/fhir/us/qicore/StructureDefinition/qicore-patient" ]
      },
      "text": {
        "status": "generated",
        "div": "<div xmlns=\"http://www.w3.org/1999/xhtml\"><div class=\"hapiHeaderText\">CalcEGALastIsTimeOfDelivNull <b>DENPASS </b></div><table class=\"hapiPropertyTable\"><tbody><tr><td>Identifier</td><td>b00b06f67015bda652373741cca10f65466d828e3a674df9528f73ec417ce0bb</td></tr><tr><td>Date of birth</td><td><span>14 February 1985</span></td></tr></tbody></table></div>"
      },
      "extension": [ {
        "url": "http://hl7.org/fhir/us/core/StructureDefinition/us-core-race",
        "extension": [ {
          "url": "ombCategory",
          "valueCoding": {
            "system": "urn:oid:2.16.840.1.113883.6.238",
            "code": "1002-5",
            "display": "American Indian or Alaska Native",
            "userSelected": true
          }
        }, {
          "url": "text",
          "valueString": "American Indian or Alaska Native"
        } ]
      }, {
        "url": "http://hl7.org/fhir/us/core/StructureDefinition/us-core-ethnicity",
        "extension": [ {
          "url": "ombCategory",
          "valueCoding": {
            "system": "urn:oid:2.16.840.1.113883.6.238",
            "code": "2135-2",
            "display": "Hispanic or Latino",
            "userSelected": true
          }
        }, {
          "url": "text",
          "valueString": "Hispanic or Latino"
        } ]
      } ],
      "identifier": [ {
        "type": {
          "coding": [ {
            "system": "http://terminology.hl7.org/CodeSystem/v2-0203",
            "code": "MR"
          } ]
        },
        "system": "https://bonnie-fhir.healthit.gov/",
        "value": "63487c2f0968f801225401a4"
      } ],
      "active": true,
      "name": [ {
        "use": "usual",
        "family": "DENPass",
        "given": [ "CalcEGALastIsTimeOfDelivNull" ]
      } ],
      "gender": "female",
      "birthDate": "1998-02-14"
    },
    "request": {
      "method": "PUT",
      "url": "Patient/9ce43862-05d8-43a6-a1d6-d270f65e318e"
    }
  }, {
    "fullUrl": "https://madie.cms.gov/Observation/c92fb9d0-0fad-4fa7-afd4-179d10a95409",
    "resource": {
      "resourceType": "Observation",
      "id": "c92fb9d0-0fad-4fa7-afd4-179d10a95409",
      "meta": {
        "profile": [ "http://hl7.org/fhir/us/qicore/StructureDefinition/qicore-observation" ]
      },
      "status": "final",
      "category": [ {
        "coding": [ {
          "system": "http://terminology.hl7.org/CodeSystem/observation-category",
          "code": "exam",
          "display": "exam",
          "userSelected": true
        } ]
      } ],
      "code": {
        "coding": [ {
          "system": "http://loinc.org",
          "code": "93857-1"
        } ]
      },
      "subject": {
        "reference": "Patient/9ce43862-05d8-43a6-a1d6-d270f65e318e"
      },
      "effectiveDateTime": "2026-01-15T08:00:00.000+00:00",
      "valueDateTime": "2026-01-15T08:00:00+00:00"
    },
    "request": {
      "method": "PUT",
      "url": "Observation/c92fb9d0-0fad-4fa7-afd4-179d10a95409"
    }
  }, {
    "fullUrl": "https://madie.cms.gov/Observation/36787086-cc14-4cc3-809a-ea6f581c6da6",
    "resource": {
      "resourceType": "Observation",
      "id": "36787086-cc14-4cc3-809a-ea6f581c6da6",
      "meta": {
        "profile": [ "http://hl7.org/fhir/us/qicore/StructureDefinition/qicore-observation" ]
      },
      "status": "final",
      "category": [ {
        "coding": [ {
          "system": "http://terminology.hl7.org/CodeSystem/observation-category",
          "code": "exam",
          "display": "exam",
          "userSelected": true
        } ]
      } ],
      "code": {
        "coding": [ {
          "system": "http://loinc.org",
          "code": "11778-8"
        } ]
      },
      "subject": {
        "reference": "Patient/9ce43862-05d8-43a6-a1d6-d270f65e318e"
      },
      "effectiveDateTime": "2026-01-15T07:00:00.000+00:00",
      "valueDateTime": "2026-02-04T08:00:00+00:00"
    },
    "request": {
      "method": "PUT",
      "url": "Observation/36787086-cc14-4cc3-809a-ea6f581c6da6"
    }
  }, {
    "fullUrl": "https://madie.cms.gov/Observation/4f68971a-293f-45a9-8f2e-8ffaf95461ee",
    "resource": {
      "resourceType": "Observation",
      "id": "4f68971a-293f-45a9-8f2e-8ffaf95461ee",
      "meta": {
        "profile": [ "http://hl7.org/fhir/us/qicore/StructureDefinition/qicore-observation" ]
      },
      "status": "final",
      "category": [ {
        "coding": [ {
          "system": "http://terminology.hl7.org/CodeSystem/observation-category",
          "code": "exam",
          "display": "exam",
          "userSelected": true
        } ]
      } ],
      "code": {
        "coding": [ {
          "system": "http://loinc.org",
          "code": "11996-6"
        } ]
      },
      "subject": {
        "reference": "Patient/9ce43862-05d8-43a6-a1d6-d270f65e318e"
      },
      "effectiveDateTime": "2026-01-15T07:59:00.000+00:00",
      "valueInteger": 1
    },
    "request": {
      "method": "PUT",
      "url": "Observation/4f68971a-293f-45a9-8f2e-8ffaf95461ee"
    }
  }, {
    "fullUrl": "https://madie.cms.gov/Observation/c91a2bd8-a402-4345-940e-5e8ea9b537bf",
    "resource": {
      "resourceType": "Observation",
      "id": "c91a2bd8-a402-4345-940e-5e8ea9b537bf",
      "meta": {
        "profile": [ "http://hl7.org/fhir/us/qicore/StructureDefinition/qicore-observation" ]
      },
      "status": "final",
      "category": [ {
        "coding": [ {
          "system": "http://terminology.hl7.org/CodeSystem/observation-category",
          "code": "exam",
          "display": "exam",
          "userSelected": true
        } ]
      } ],
      "code": {
        "coding": [ {
          "system": "http://loinc.org",
          "code": "93857-1"
        } ]
      },
      "subject": {
        "reference": "Patient/9ce43862-05d8-43a6-a1d6-d270f65e318e"
      }
    },
    "request": {
      "method": "PUT",
      "url": "Observation/c91a2bd8-a402-4345-940e-5e8ea9b537bf"
    }
  }, {
    "fullUrl": "https://madie.cms.gov/Encounter/7b035384-bfb8-40a7-8e16-3af8b080d4ae",
    "resource": {
      "resourceType": "Encounter",
      "id": "7b035384-bfb8-40a7-8e16-3af8b080d4ae",
      "meta": {
        "profile": [ "http://hl7.org/fhir/us/qicore/StructureDefinition/qicore-encounter" ]
      },
      "status": "finished",
      "class": {
        "system": "http://terminology.hl7.org/CodeSystem/v3-ActCode",
        "code": "IMP",
        "display": "inpatient encounter"
      },
      "type": [ {
        "coding": [ {
          "system": "http://snomed.info/sct",
          "code": "183452005"
        } ]
      } ],
      "subject": {
        "reference": "Patient/9ce43862-05d8-43a6-a1d6-d270f65e318e"
      },
      "period": {
        "start": "2026-01-15T08:00:00.000Z",
        "end": "2026-01-20T08:15:00.000Z"
      },
      "diagnosis": [ {
        "condition": {
          "reference": "Condition/delivery-of-singleton-f83c"
        },
        "use": {
          "coding": [ {
            "system": "http://snomed.info/sct",
            "code": "169826009",
            "display": "Delivery of Singleton"
          } ]
        }
      }, {
        "condition": {
          "reference": "Condition/e30096bb-fe32-4d55-8999-f5aba1314cce"
        }
      } ]
    },
    "request": {
      "method": "PUT",
      "url": "Encounter/7b035384-bfb8-40a7-8e16-3af8b080d4ae"
    }
  }, {
    "fullUrl": "https://madie.cms.gov/Procedure/9879959c-0141-4603-b28f-aa5c16bffe08",
    "resource": {
      "resourceType": "Procedure",
      "id": "9879959c-0141-4603-b28f-aa5c16bffe08",
      "meta": {
        "profile": [ "http://hl7.org/fhir/us/qicore/StructureDefinition/qicore-procedure" ]
      },
      "extension": [ {
        "url": "http://hl7.org/fhir/us/qicore/StructureDefinition/qicore-recorded",
        "valueDateTime": "2014-04-05T09:35:00-04:00"
      } ],
      "status": "completed",
      "code": {
        "coding": [ {
          "system": "http://www.cms.gov/Medicare/Coding/ICD10",
          "code": "10D07Z3"
        }, {
          "system": "http://www.icd10data.com/icd10pcs",
          "code": "10D07Z3",
          "userSelected": true
        } ]
      },
      "subject": {
        "reference": "Patient/9ce43862-05d8-43a6-a1d6-d270f65e318e"
      },
      "performedPeriod": {
        "start": "2026-01-15T08:10:00.000Z",
        "end": "2026-01-15T09:14:00.000Z"
      }
    },
    "request": {
      "method": "PUT",
      "url": "Procedure/9879959c-0141-4603-b28f-aa5c16bffe08"
    }
  }, {
    "fullUrl": "https://madie.cms.gov/Condition/e30096bb-fe32-4d55-8999-f5aba1314cce",
    "resource": {
      "resourceType": "Condition",
      "id": "e30096bb-fe32-4d55-8999-f5aba1314cce",
      "meta": {
        "profile": [ "http://hl7.org/fhir/us/qicore/StructureDefinition/qicore-condition" ]
      },
      "category": [ {
        "coding": [ {
          "system": "http://terminology.hl7.org/CodeSystem/condition-category",
          "code": "encounter-diagnosis",
          "display": "Encounter Diagnosis"
        } ]
      } ],
      "code": {
        "coding": [ {
          "system": "http://snomed.info/sct",
          "version": "2022-09",
          "code": "169826009",
          "display": "Single live birth (finding)",
          "userSelected": true
        } ]
      },
      "subject": {
        "reference": "Patient/9ce43862-05d8-43a6-a1d6-d270f65e318e"
      },
      "recordedDate": "2026-10-20T08:00:00.000+00:00"
    },
    "request": {
      "method": "PUT",
      "url": "Condition/e30096bb-fe32-4d55-8999-f5aba1314cce"
    }
  }, {
    "fullUrl": "https://madie.cms.gov/Coverage/d99ea4e1-1852-45b4-a79d-cf3ad806e05c",
    "resource": {
      "resourceType": "Coverage",
      "id": "d99ea4e1-1852-45b4-a79d-cf3ad806e05c",
      "meta": {
        "profile": [ "http://hl7.org/fhir/us/qicore/StructureDefinition/qicore-coverage" ]
      },
      "status": "active",
      "beneficiary": {
        "reference": "Patient/9ce43862-05d8-43a6-a1d6-d270f65e318e"
      },
      "payor": [ {
        "reference": "Organization/d6a2165b-c1d6-4530-b66f-1aac27e2567e"
      } ]
    },
    "request": {
      "method": "PUT",
      "url": "Coverage/d99ea4e1-1852-45b4-a79d-cf3ad806e05c"
    }
  }, {
    "fullUrl": "https://madie.cms.gov/Organization/d6a2165b-c1d6-4530-b66f-1aac27e2567e",
    "resource": {
      "resourceType": "Organization",
      "id": "d6a2165b-c1d6-4530-b66f-1aac27e2567e",
      "meta": {
        "profile": [ "http://hl7.org/fhir/us/qicore/StructureDefinition/qicore-organization" ]
      },
      "identifier": [ {
        "use": "temp",
        "system": "urn:oid:2.16.840.1.113883.4.4",
        "value": "21-3259825"
      } ],
      "active": true,
      "type": [ {
        "coding": [ {
          "system": "http://terminology.hl7.org/CodeSystem/organization-type",
          "code": "pay",
          "display": "Payer"
        } ]
      } ],
      "name": "Blue Cross Blue Shield of Texas",
      "telecom": [ {
        "system": "phone",
        "value": "(+1) 972-766-6900"
      } ],
      "address": [ {
        "use": "billing",
        "type": "postal",
        "line": [ "P.O. Box 660044" ],
        "city": "Dallas",
        "state": "TX",
        "postalCode": "75266-0044",
        "country": "USA"
      } ]
    },
    "request": {
      "method": "PUT",
      "url": "Organization/d6a2165b-c1d6-4530-b66f-1aac27e2567e"
    }
  }, {
    "fullUrl": "https://madie.cms.gov/Practitioner/333bf647-5e2a-4ca0-9326-038c562c2387",
    "resource": {
      "resourceType": "Practitioner",
      "id": "333bf647-5e2a-4ca0-9326-038c562c2387",
      "identifier": [ {
        "system": "http://hl7.org/fhir/sid/us-npi",
        "value": "123456"
      } ],
      "name": [ {
        "family": "Evil",
        "prefix": [ "Dr" ]
      } ]
    },
    "request": {
      "method": "PUT",
      "url": "Practitioner/333bf647-5e2a-4ca0-9326-038c562c2387"
    }
  }, {
    "fullUrl": "https://madie.cms.gov/MeasureReport/e4a22198-6ce9-4cc9-9d9b-1a524d4c199e",
    "resource": {
      "resourceType": "MeasureReport",
      "id": "e4a22198-6ce9-4cc9-9d9b-1a524d4c199e",
      "meta": {
        "profile": [ "http://hl7.org/fhir/us/cqfmeasures/StructureDefinition/test-case-cqfm" ]
      },
      "contained": [ {
        "resourceType": "Parameters",
        "id": "1e5756b3-a08d-4348-8d89-17bfc92df27a-parameters",
        "parameter": [ {
          "name": "subject",
          "valueString": "9ce43862-05d8-43a6-a1d6-d270f65e318e"
        } ]
      } ],
      "extension": [ {
        "url": "http://hl7.org/fhir/us/cqfmeasures/StructureDefinition/cqfm-inputParameters",
        "valueReference": {
          "reference": "#1e5756b3-a08d-4348-8d89-17bfc92df27a-parameters"
        }
      }, {
        "url": "http://hl7.org/fhir/us/cqfmeasures/StructureDefinition/cqfm-testCaseDescription",
        "valueMarkdown": "Pt is 27 years of age,  encounter dx delivery of singleton, gravida=1authored less than 42 weeks prior to delivery,  Last Time of Delivery assessment is null, however, previous one passes.\n"
      } ],
      "modifierExtension": [ {
        "url": "http://hl7.org/fhir/us/cqfmeasures/StructureDefinition/cqfm-isTestCase",
        "valueBoolean": true
      } ],
      "status": "complete",
      "type": "individual",
      "measure": "https://madie.cms.gov/Measure/CMS334FHIRPCCesareanBirth",
      "period": {
        "start": "2026-01-01",
        "end": "2026-12-31"
      },
      "group": [ {
        "population": [ {
          "code": {
            "coding": [ {
              "system": "http://terminology.hl7.org/CodeSystem/measure-population",
              "code": "initial-population",
              "display": "Initial Population"
            } ]
          },
          "count": 1
        }, {
          "code": {
            "coding": [ {
              "system": "http://terminology.hl7.org/CodeSystem/measure-population",
              "code": "denominator",
              "display": "Denominator"
            } ]
          },
          "count": 1
        }, {
          "code": {
            "coding": [ {
              "system": "http://terminology.hl7.org/CodeSystem/measure-population",
              "code": "denominator-exclusion",
              "display": "Denominator Exclusion"
            } ]
          },
          "count": 0
        }, {
          "code": {
            "coding": [ {
              "system": "http://terminology.hl7.org/CodeSystem/measure-population",
              "code": "numerator",
              "display": "Numerator"
            } ]
          },
          "count": 0
        } ]
      } ],
      "evaluatedResource": [ {
        "reference": "Patient/9ce43862-05d8-43a6-a1d6-d270f65e318e"
      }, {
        "reference": "Observation/c92fb9d0-0fad-4fa7-afd4-179d10a95409"
      }, {
        "reference": "Observation/36787086-cc14-4cc3-809a-ea6f581c6da6"
      }, {
        "reference": "Observation/4f68971a-293f-45a9-8f2e-8ffaf95461ee"
      }, {
        "reference": "Observation/c91a2bd8-a402-4345-940e-5e8ea9b537bf"
      }, {
        "reference": "Encounter/7b035384-bfb8-40a7-8e16-3af8b080d4ae"
      }, {
        "reference": "Procedure/9879959c-0141-4603-b28f-aa5c16bffe08"
      }, {
        "reference": "Condition/e30096bb-fe32-4d55-8999-f5aba1314cce"
      }, {
        "reference": "Coverage/d99ea4e1-1852-45b4-a79d-cf3ad806e05c"
      }, {
        "reference": "Organization/d6a2165b-c1d6-4530-b66f-1aac27e2567e"
      }, {
        "reference": "Practitioner/333bf647-5e2a-4ca0-9326-038c562c2387"
      } ]
    },
    "request": {
      "method": "PUT",
      "url": "MeasureReport/e4a22198-6ce9-4cc9-9d9b-1a524d4c199e"
    }
  } ]
}