{
  "resourceType": "Bundle",
  "id": "6129134d02c62a011f2e7130",
  "type": "transaction",
  "entry": [ {
    "fullUrl": "https://madie.cms.gov/Patient/52a258e1-0a79-4bb7-8f50-1aa519aa4e00",
    "resource": {
      "resourceType": "Patient",
      "id": "52a258e1-0a79-4bb7-8f50-1aa519aa4e00",
      "meta": {
        "profile": [ "http://hl7.org/fhir/us/qicore/StructureDefinition/qicore-patient" ]
      },
      "text": {
        "status": "generated",
        "div": "<div xmlns=\"http://www.w3.org/1999/xhtml\"><div class=\"hapiHeaderText\">CMOdurED_ED&lt;1hrObs&lt;1hrBFEnc <b>DENEXPASS </b></div><table class=\"hapiPropertyTable\"><tbody><tr><td>Identifier</td><td>9f33229f87c10a35f78ce016aca297879ccda928800ebb32cb3005131188e0c3</td></tr><tr><td>Date of birth</td><td><span>21 August 1994</span></td></tr></tbody></table></div>"
      },
      "extension": [ {
        "url": "http://hl7.org/fhir/us/core/StructureDefinition/us-core-race",
        "extension": [ {
          "url": "ombCategory",
          "valueCoding": {
            "system": "urn:oid:2.16.840.1.113883.6.238",
            "code": "1002-5",
            "display": "American Indian or Alaska Native",
            "userSelected": true
          }
        }, {
          "url": "text",
          "valueString": "American Indian or Alaska Native"
        } ]
      }, {
        "url": "http://hl7.org/fhir/us/core/StructureDefinition/us-core-ethnicity",
        "extension": [ {
          "url": "ombCategory",
          "valueCoding": {
            "system": "urn:oid:2.16.840.1.113883.6.238",
            "code": "2135-2",
            "display": "Hispanic or Latino",
            "userSelected": true
          }
        }, {
          "url": "text",
          "valueString": "Hispanic or Latino"
        } ]
      } ],
      "identifier": [ {
        "type": {
          "coding": [ {
            "system": "http://terminology.hl7.org/CodeSystem/v2-0203",
            "code": "MR"
          } ]
        },
        "system": "https://bonnie-fhir.healthit.gov/",
        "value": "6129134d02c62a011f2e7130"
      } ],
      "active": true,
      "name": [ {
        "use": "usual",
        "family": "DENEXPass",
        "given": [ "CMOdurED_ED<1hrObs<1hrBFEnc" ]
      } ],
      "gender": "male",
      "birthDate": "1995-08-21"
    },
    "request": {
      "method": "PUT",
      "url": "Patient/52a258e1-0a79-4bb7-8f50-1aa519aa4e00"
    }
  }, {
    "fullUrl": "https://madie.cms.gov/Encounter/5f631d04-59e1-465b-9977-1d7f4da03a3a",
    "resource": {
      "resourceType": "Encounter",
      "id": "5f631d04-59e1-465b-9977-1d7f4da03a3a",
      "meta": {
        "profile": [ "http://hl7.org/fhir/us/qicore/StructureDefinition/qicore-encounter" ]
      },
      "status": "finished",
      "class": {
        "system": "http://terminology.hl7.org/CodeSystem/v3-ActCode",
        "code": "EMER",
        "display": "emergency",
        "userSelected": true
      },
      "type": [ {
        "coding": [ {
          "system": "http://snomed.info/sct",
          "code": "4525004"
        } ]
      } ],
      "subject": {
        "reference": "Patient/52a258e1-0a79-4bb7-8f50-1aa519aa4e00"
      },
      "period": {
        "start": "2026-10-10T09:30:00.000+00:00",
        "end": "2026-10-10T10:30:00.000+00:00"
      },
      "length": {
        "value": 0,
        "unit": "days"
      }
    },
    "request": {
      "method": "PUT",
      "url": "Encounter/5f631d04-59e1-465b-9977-1d7f4da03a3a"
    }
  }, {
    "fullUrl": "https://madie.cms.gov/Encounter/d94ccab2-6797-40d8-83d2-b0f9d6fcd32a",
    "resource": {
      "resourceType": "Encounter",
      "id": "d94ccab2-6797-40d8-83d2-b0f9d6fcd32a",
      "meta": {
        "profile": [ "http://hl7.org/fhir/us/qicore/StructureDefinition/qicore-encounter" ]
      },
      "status": "finished",
      "class": {
        "system": "http://terminology.hl7.org/CodeSystem/v3-ActCode",
        "code": "OBSENC",
        "display": "observation encounter",
        "userSelected": true
      },
      "type": [ {
        "coding": [ {
          "system": "http://snomed.info/sct",
          "code": "448851000124103"
        } ]
      } ],
      "subject": {
        "reference": "Patient/52a258e1-0a79-4bb7-8f50-1aa519aa4e00"
      },
      "period": {
        "start": "2026-10-10T10:31:00.000+00:00",
        "end": "2026-10-10T10:35:00.000+00:00"
      },
      "length": {
        "value": 0,
        "unit": "days"
      }
    },
    "request": {
      "method": "PUT",
      "url": "Encounter/d94ccab2-6797-40d8-83d2-b0f9d6fcd32a"
    }
  }, {
    "fullUrl": "https://madie.cms.gov/Encounter/a6342e6d-c381-4554-b66b-f894ce8a4823",
    "resource": {
      "resourceType": "Encounter",
      "id": "a6342e6d-c381-4554-b66b-f894ce8a4823",
      "meta": {
        "profile": [ "http://hl7.org/fhir/us/qicore/StructureDefinition/qicore-encounter" ]
      },
      "status": "finished",
      "class": {
        "system": "http://terminology.hl7.org/CodeSystem/v3-ActCode",
        "code": "IMP",
        "display": "inpatient encounter",
        "userSelected": true
      },
      "type": [ {
        "coding": [ {
          "system": "http://snomed.info/sct",
          "code": "32485007"
        } ]
      } ],
      "subject": {
        "reference": "Patient/52a258e1-0a79-4bb7-8f50-1aa519aa4e00"
      },
      "period": {
        "start": "2026-10-10T10:36:00.000+00:00",
        "end": "2026-10-12T11:30:00.000+00:00"
      },
      "length": {
        "value": 2,
        "unit": "days"
      },
      "diagnosis": [ {
        "condition": {
          "reference": "Condition/4ec7a3a1-87a7-45ff-b441-94e1f87770b9"
        },
        "use": {
          "coding": [ {
            "system": "http://terminology.hl7.org/CodeSystem/diagnosis-role",
            "code": "billing",
            "display": "Billing"
          } ]
        },
        "rank": 1
      } ]
    },
    "request": {
      "method": "PUT",
      "url": "Encounter/a6342e6d-c381-4554-b66b-f894ce8a4823"
    }
  }, {
    "fullUrl": "https://madie.cms.gov/ServiceRequest/4c1f52f2-bcdb-42a8-9d35-57d4a303807c",
    "resource": {
      "resourceType": "ServiceRequest",
      "id": "4c1f52f2-bcdb-42a8-9d35-57d4a303807c",
      "meta": {
        "profile": [ "http://hl7.org/fhir/us/qicore/StructureDefinition/qicore-servicerequest" ]
      },
      "status": "active",
      "intent": "order",
      "code": {
        "coding": [ {
          "system": "http://snomed.info/sct",
          "code": "133918004"
        } ]
      },
      "subject": {
        "reference": "Patient/52a258e1-0a79-4bb7-8f50-1aa519aa4e00"
      },
      "authoredOn": "2026-10-10T09:30:00.000+00:00"
    },
    "request": {
      "method": "PUT",
      "url": "ServiceRequest/4c1f52f2-bcdb-42a8-9d35-57d4a303807c"
    }
  }, {
    "fullUrl": "https://madie.cms.gov/Condition/4ec7a3a1-87a7-45ff-b441-94e1f87770b9",
    "resource": {
      "resourceType": "Condition",
      "id": "4ec7a3a1-87a7-45ff-b441-94e1f87770b9",
      "meta": {
        "profile": [ "http://hl7.org/fhir/us/qicore/StructureDefinition/qicore-condition" ]
      },
      "clinicalStatus": {
        "coding": [ {
          "system": "http://terminology.hl7.org/CodeSystem/condition-clinical",
          "code": "active"
        } ]
      },
      "verificationStatus": {
        "coding": [ {
          "system": "http://terminology.hl7.org/CodeSystem/condition-ver-status",
          "code": "confirmed"
        } ]
      },
      "category": [ {
        "coding": [ {
          "system": "http://terminology.hl7.org/CodeSystem/condition-category",
          "code": "encounter-diagnosis",
          "display": "Encounter Diagnosis"
        } ]
      } ],
      "code": {
        "coding": [ {
          "system": "http://snomed.info/sct",
          "version": "2020-09",
          "code": "111297002",
          "display": "Nonparalytic stroke (disorder)",
          "userSelected": true
        } ]
      },
      "subject": {
        "reference": "Patient/52a258e1-0a79-4bb7-8f50-1aa519aa4e00"
      },
      "recordedDate": "2026-07-14T08:00:00.000+00:00"
    },
    "request": {
      "method": "PUT",
      "url": "Condition/4ec7a3a1-87a7-45ff-b441-94e1f87770b9"
    }
  }, {
    "fullUrl": "https://madie.cms.gov/Coverage/1220b645-f5a0-4f23-8980-2e4a9520a9d6",
    "resource": {
      "resourceType": "Coverage",
      "id": "1220b645-f5a0-4f23-8980-2e4a9520a9d6",
      "meta": {
        "profile": [ "http://hl7.org/fhir/us/qicore/StructureDefinition/qicore-coverage" ]
      },
      "status": "active",
      "beneficiary": {
        "reference": "Patient/52a258e1-0a79-4bb7-8f50-1aa519aa4e00"
      },
      "payor": [ {
        "reference": "Organization/2a1036fa-04ec-4191-8f6c-e6fedb9bd9de"
      } ]
    },
    "request": {
      "method": "PUT",
      "url": "Coverage/1220b645-f5a0-4f23-8980-2e4a9520a9d6"
    }
  }, {
    "fullUrl": "https://madie.cms.gov/Organization/2a1036fa-04ec-4191-8f6c-e6fedb9bd9de",
    "resource": {
      "resourceType": "Organization",
      "id": "2a1036fa-04ec-4191-8f6c-e6fedb9bd9de",
      "meta": {
        "profile": [ "http://hl7.org/fhir/us/qicore/StructureDefinition/qicore-organization" ]
      },
      "identifier": [ {
        "use": "temp",
        "system": "urn:oid:2.16.840.1.113883.4.4",
        "value": "21-3259825"
      } ],
      "active": true,
      "type": [ {
        "coding": [ {
          "system": "http://terminology.hl7.org/CodeSystem/organization-type",
          "code": "pay",
          "display": "Payer"
        } ]
      } ],
      "name": "Blue Cross Blue Shield of Texas",
      "telecom": [ {
        "system": "phone",
        "value": "(+1) 972-766-6900"
      } ],
      "address": [ {
        "use": "billing",
        "type": "postal",
        "line": [ "P.O. Box 660044" ],
        "city": "Dallas",
        "state": "TX",
        "postalCode": "75266-0044",
        "country": "USA"
      } ]
    },
    "request": {
      "method": "PUT",
      "url": "Organization/2a1036fa-04ec-4191-8f6c-e6fedb9bd9de"
    }
  }, {
    "fullUrl": "https://madie.cms.gov/MeasureReport/ea6909a4-8f96-4a65-94c5-7d17d7466b9d",
    "resource": {
      "resourceType": "MeasureReport",
      "id": "ea6909a4-8f96-4a65-94c5-7d17d7466b9d",
      "meta": {
        "profile": [ "http://hl7.org/fhir/us/cqfmeasures/StructureDefinition/test-case-cqfm" ]
      },
      "contained": [ {
        "resourceType": "Parameters",
        "id": "9751245e-ea63-4c1f-951e-eb2e0652a622-parameters",
        "parameter": [ {
          "name": "subject",
          "valueString": "52a258e1-0a79-4bb7-8f50-1aa519aa4e00"
        } ]
      } ],
      "extension": [ {
        "url": "http://hl7.org/fhir/us/cqfmeasures/StructureDefinition/cqfm-inputParameters",
        "valueReference": {
          "reference": "#9751245e-ea63-4c1f-951e-eb2e0652a622-parameters"
        }
      }, {
        "url": "http://hl7.org/fhir/us/cqfmeasures/StructureDefinition/cqfm-testCaseDescription",
        "valueMarkdown": "Patient receives CMO during ED. ED ends 1 minute before Observation. Obs ends 1 min before IP start. Testing day of operator with HospitalizationWithObservation function."
      } ],
      "modifierExtension": [ {
        "url": "http://hl7.org/fhir/us/cqfmeasures/StructureDefinition/cqfm-isTestCase",
        "valueBoolean": true
      } ],
      "status": "complete",
      "type": "individual",
      "measure": "https://madie.cms.gov/Measure/CMS104FHIRSTKDCAntithrombotic",
      "period": {
        "start": "2026-01-01",
        "end": "2026-12-31"
      },
      "group": [ {
        "population": [ {
          "code": {
            "coding": [ {
              "system": "http://terminology.hl7.org/CodeSystem/measure-population",
              "code": "initial-population",
              "display": "Initial Population"
            } ]
          },
          "count": 1
        }, {
          "code": {
            "coding": [ {
              "system": "http://terminology.hl7.org/CodeSystem/measure-population",
              "code": "denominator",
              "display": "Denominator"
            } ]
          },
          "count": 1
        }, {
          "code": {
            "coding": [ {
              "system": "http://terminology.hl7.org/CodeSystem/measure-population",
              "code": "denominator-exclusion",
              "display": "Denominator Exclusion"
            } ]
          },
          "count": 1
        }, {
          "code": {
            "coding": [ {
              "system": "http://terminology.hl7.org/CodeSystem/measure-population",
              "code": "numerator",
              "display": "Numerator"
            } ]
          },
          "count": 0
        }, {
          "code": {
            "coding": [ {
              "system": "http://terminology.hl7.org/CodeSystem/measure-population",
              "code": "denominator-exception",
              "display": "Denominator Exception"
            } ]
          },
          "count": 0
        } ]
      } ],
      "evaluatedResource": [ {
        "reference": "Patient/52a258e1-0a79-4bb7-8f50-1aa519aa4e00"
      }, {
        "reference": "Encounter/5f631d04-59e1-465b-9977-1d7f4da03a3a"
      }, {
        "reference": "Encounter/d94ccab2-6797-40d8-83d2-b0f9d6fcd32a"
      }, {
        "reference": "Encounter/a6342e6d-c381-4554-b66b-f894ce8a4823"
      }, {
        "reference": "ServiceRequest/4c1f52f2-bcdb-42a8-9d35-57d4a303807c"
      }, {
        "reference": "Condition/4ec7a3a1-87a7-45ff-b441-94e1f87770b9"
      }, {
        "reference": "Coverage/1220b645-f5a0-4f23-8980-2e4a9520a9d6"
      }, {
        "reference": "Organization/2a1036fa-04ec-4191-8f6c-e6fedb9bd9de"
      } ]
    },
    "request": {
      "method": "PUT",
      "url": "MeasureReport/ea6909a4-8f96-4a65-94c5-7d17d7466b9d"
    }
  } ]
}