{
  "resourceType": "Bundle",
  "id": "63487c2f0968f801225401b2",
  "type": "transaction",
  "entry": [ {
    "fullUrl": "https://madie.cms.gov/Patient/c5af304c-319a-4b77-89e9-e51d5db99832",
    "resource": {
      "resourceType": "Patient",
      "id": "c5af304c-319a-4b77-89e9-e51d5db99832",
      "meta": {
        "profile": [ "http://hl7.org/fhir/us/qicore/StructureDefinition/qicore-patient" ]
      },
      "text": {
        "status": "generated",
        "div": "<div xmlns=\"http://www.w3.org/1999/xhtml\"><div class=\"hapiHeaderText\">NoEncDx <b>DENFAIL </b></div><table class=\"hapiPropertyTable\"><tbody><tr><td>Identifier</td><td>71189d70ba3427612f2a418107466ed1652ec9a0e76c1b9c30a1691a1d91b34c</td></tr><tr><td>Date of birth</td><td><span>14 February 1985</span></td></tr></tbody></table></div>"
      },
      "extension": [ {
        "url": "http://hl7.org/fhir/us/core/StructureDefinition/us-core-race",
        "extension": [ {
          "url": "ombCategory",
          "valueCoding": {
            "system": "urn:oid:2.16.840.1.113883.6.238",
            "code": "1002-5",
            "display": "American Indian or Alaska Native",
            "userSelected": true
          }
        }, {
          "url": "text",
          "valueString": "American Indian or Alaska Native"
        } ]
      }, {
        "url": "http://hl7.org/fhir/us/core/StructureDefinition/us-core-ethnicity",
        "extension": [ {
          "url": "ombCategory",
          "valueCoding": {
            "system": "urn:oid:2.16.840.1.113883.6.238",
            "code": "2135-2",
            "display": "Hispanic or Latino",
            "userSelected": true
          }
        }, {
          "url": "text",
          "valueString": "Hispanic or Latino"
        } ]
      } ],
      "identifier": [ {
        "type": {
          "coding": [ {
            "system": "http://terminology.hl7.org/CodeSystem/v2-0203",
            "code": "MR"
          } ]
        },
        "system": "https://bonnie-fhir.healthit.gov/",
        "value": "63487c2f0968f801225401b2"
      } ],
      "active": true,
      "name": [ {
        "use": "usual",
        "family": "DENFail",
        "given": [ "NoEncDx" ]
      } ],
      "gender": "female",
      "birthDate": "1998-02-14"
    },
    "request": {
      "method": "PUT",
      "url": "Patient/c5af304c-319a-4b77-89e9-e51d5db99832"
    }
  }, {
    "fullUrl": "https://madie.cms.gov/Observation/41f48a27-1268-4db2-b88b-28896f112c4f",
    "resource": {
      "resourceType": "Observation",
      "id": "41f48a27-1268-4db2-b88b-28896f112c4f",
      "meta": {
        "profile": [ "http://hl7.org/fhir/us/qicore/StructureDefinition/qicore-observation" ]
      },
      "status": "final",
      "category": [ {
        "coding": [ {
          "system": "http://terminology.hl7.org/CodeSystem/observation-category",
          "code": "exam",
          "display": "exam",
          "userSelected": true
        } ]
      } ],
      "code": {
        "coding": [ {
          "system": "http://loinc.org",
          "code": "11996-6"
        } ]
      },
      "subject": {
        "reference": "Patient/c5af304c-319a-4b77-89e9-e51d5db99832"
      },
      "effectiveDateTime": "2026-02-09T08:00:00.000+00:00",
      "valueInteger": 1
    },
    "request": {
      "method": "PUT",
      "url": "Observation/41f48a27-1268-4db2-b88b-28896f112c4f"
    }
  }, {
    "fullUrl": "https://madie.cms.gov/Observation/298a611d-3fe1-406a-8a80-a5964e3707de",
    "resource": {
      "resourceType": "Observation",
      "id": "298a611d-3fe1-406a-8a80-a5964e3707de",
      "meta": {
        "profile": [ "http://hl7.org/fhir/us/qicore/StructureDefinition/qicore-observation" ]
      },
      "status": "final",
      "category": [ {
        "coding": [ {
          "system": "http://terminology.hl7.org/CodeSystem/observation-category",
          "code": "exam",
          "display": "exam",
          "userSelected": true
        } ]
      } ],
      "code": {
        "coding": [ {
          "system": "http://loinc.org",
          "code": "11884-4"
        } ]
      },
      "subject": {
        "reference": "Patient/c5af304c-319a-4b77-89e9-e51d5db99832"
      },
      "effectiveDateTime": "2026-11-28T21:15:00.000+00:00",
      "valueQuantity": {
        "value": 40,
        "system": "http://unitsofmeasure.org",
        "code": "wk"
      }
    },
    "request": {
      "method": "PUT",
      "url": "Observation/298a611d-3fe1-406a-8a80-a5964e3707de"
    }
  }, {
    "fullUrl": "https://madie.cms.gov/Observation/6ce3fb00-f873-4adc-b9f3-2c7e82630b7c",
    "resource": {
      "resourceType": "Observation",
      "id": "6ce3fb00-f873-4adc-b9f3-2c7e82630b7c",
      "meta": {
        "profile": [ "http://hl7.org/fhir/us/qicore/StructureDefinition/qicore-observation" ]
      },
      "status": "final",
      "category": [ {
        "coding": [ {
          "system": "http://terminology.hl7.org/CodeSystem/observation-category",
          "code": "exam",
          "display": "exam",
          "userSelected": true
        } ]
      } ],
      "code": {
        "coding": [ {
          "system": "http://loinc.org",
          "code": "93857-1"
        } ]
      },
      "subject": {
        "reference": "Patient/c5af304c-319a-4b77-89e9-e51d5db99832"
      },
      "effectiveDateTime": "2026-11-28T21:15:00.000+00:00",
      "valueDateTime": "2026-11-28T21:15:00+00:00"
    },
    "request": {
      "method": "PUT",
      "url": "Observation/6ce3fb00-f873-4adc-b9f3-2c7e82630b7c"
    }
  }, {
    "fullUrl": "https://madie.cms.gov/Encounter/f6b26d92-8796-4d55-9ec3-5ae2ae4142e2",
    "resource": {
      "resourceType": "Encounter",
      "id": "f6b26d92-8796-4d55-9ec3-5ae2ae4142e2",
      "meta": {
        "profile": [ "http://hl7.org/fhir/us/qicore/StructureDefinition/qicore-encounter" ]
      },
      "status": "finished",
      "class": {
        "system": "http://terminology.hl7.org/CodeSystem/v3-ActCode",
        "code": "IMP",
        "display": "inpatient encounter"
      },
      "type": [ {
        "coding": [ {
          "system": "http://snomed.info/sct",
          "code": "8715000"
        } ]
      } ],
      "subject": {
        "reference": "Patient/c5af304c-319a-4b77-89e9-e51d5db99832"
      },
      "period": {
        "start": "2026-11-28T08:00:00.000Z",
        "end": "2026-11-30T08:15:00.000Z"
      },
      "length": {
        "value": 2,
        "unit": "days"
      }
    },
    "request": {
      "method": "PUT",
      "url": "Encounter/f6b26d92-8796-4d55-9ec3-5ae2ae4142e2"
    }
  }, {
    "fullUrl": "https://madie.cms.gov/Procedure/7be0230b-7f4f-4f44-9ae7-4b5fa39c8898",
    "resource": {
      "resourceType": "Procedure",
      "id": "7be0230b-7f4f-4f44-9ae7-4b5fa39c8898",
      "meta": {
        "profile": [ "http://hl7.org/fhir/us/qicore/StructureDefinition/qicore-procedure" ]
      },
      "extension": [ {
        "url": "http://hl7.org/fhir/us/qicore/StructureDefinition/qicore-recorded",
        "valueDateTime": "2014-04-05T09:35:00-04:00"
      } ],
      "status": "completed",
      "code": {
        "coding": [ {
          "system": "http://snomed.info/sct",
          "code": "22633006"
        } ]
      },
      "subject": {
        "reference": "Patient/c5af304c-319a-4b77-89e9-e51d5db99832"
      },
      "performedPeriod": {
        "start": "2026-11-28T20:00:00.000Z",
        "end": "2026-11-28T20:15:00.000Z"
      }
    },
    "request": {
      "method": "PUT",
      "url": "Procedure/7be0230b-7f4f-4f44-9ae7-4b5fa39c8898"
    }
  }, {
    "fullUrl": "https://madie.cms.gov/Coverage/84f5afb7-03fb-42c9-8ab0-b45773481402",
    "resource": {
      "resourceType": "Coverage",
      "id": "84f5afb7-03fb-42c9-8ab0-b45773481402",
      "meta": {
        "profile": [ "http://hl7.org/fhir/us/qicore/StructureDefinition/qicore-coverage" ]
      },
      "status": "active",
      "beneficiary": {
        "reference": "Patient/c5af304c-319a-4b77-89e9-e51d5db99832"
      },
      "payor": [ {
        "reference": "Organization/81716600-0fbe-4be9-9403-3994c0a1080d"
      } ]
    },
    "request": {
      "method": "PUT",
      "url": "Coverage/84f5afb7-03fb-42c9-8ab0-b45773481402"
    }
  }, {
    "fullUrl": "https://madie.cms.gov/Organization/81716600-0fbe-4be9-9403-3994c0a1080d",
    "resource": {
      "resourceType": "Organization",
      "id": "81716600-0fbe-4be9-9403-3994c0a1080d",
      "meta": {
        "profile": [ "http://hl7.org/fhir/us/qicore/StructureDefinition/qicore-organization" ]
      },
      "identifier": [ {
        "use": "temp",
        "system": "urn:oid:2.16.840.1.113883.4.4",
        "value": "21-3259825"
      } ],
      "active": true,
      "type": [ {
        "coding": [ {
          "system": "http://terminology.hl7.org/CodeSystem/organization-type",
          "code": "pay",
          "display": "Payer"
        } ]
      } ],
      "name": "Blue Cross Blue Shield of Texas",
      "telecom": [ {
        "system": "phone",
        "value": "(+1) 972-766-6900"
      } ],
      "address": [ {
        "use": "billing",
        "type": "postal",
        "line": [ "P.O. Box 660044" ],
        "city": "Dallas",
        "state": "TX",
        "postalCode": "75266-0044",
        "country": "USA"
      } ]
    },
    "request": {
      "method": "PUT",
      "url": "Organization/81716600-0fbe-4be9-9403-3994c0a1080d"
    }
  }, {
    "fullUrl": "https://madie.cms.gov/Practitioner/289c9849-c4b9-42a6-b8fd-35c39e54fd59",
    "resource": {
      "resourceType": "Practitioner",
      "id": "289c9849-c4b9-42a6-b8fd-35c39e54fd59",
      "identifier": [ {
        "system": "http://hl7.org/fhir/sid/us-npi",
        "value": "123456"
      } ],
      "name": [ {
        "family": "Evil",
        "prefix": [ "Dr" ]
      } ]
    },
    "request": {
      "method": "PUT",
      "url": "Practitioner/289c9849-c4b9-42a6-b8fd-35c39e54fd59"
    }
  }, {
    "fullUrl": "https://madie.cms.gov/MeasureReport/98c3055b-cbe5-4ae2-b957-468966951aba",
    "resource": {
      "resourceType": "MeasureReport",
      "id": "98c3055b-cbe5-4ae2-b957-468966951aba",
      "meta": {
        "profile": [ "http://hl7.org/fhir/us/cqfmeasures/StructureDefinition/test-case-cqfm" ]
      },
      "contained": [ {
        "resourceType": "Parameters",
        "id": "cb9573ae-e28b-457a-9e83-42fda1a1123a-parameters",
        "parameter": [ {
          "name": "subject",
          "valueString": "c5af304c-319a-4b77-89e9-e51d5db99832"
        } ]
      } ],
      "extension": [ {
        "url": "http://hl7.org/fhir/us/cqfmeasures/StructureDefinition/cqfm-inputParameters",
        "valueReference": {
          "reference": "#cb9573ae-e28b-457a-9e83-42fda1a1123a-parameters"
        }
      }, {
        "url": "http://hl7.org/fhir/us/cqfmeasures/StructureDefinition/cqfm-testCaseDescription",
        "valueMarkdown": "Passes IP, Fails DENOM and fails NUM; Gravida 1(auth 42 weeks)  and EGA 40 weeks;  No EncDx for Singleton Birth \n"
      } ],
      "modifierExtension": [ {
        "url": "http://hl7.org/fhir/us/cqfmeasures/StructureDefinition/cqfm-isTestCase",
        "valueBoolean": true
      } ],
      "status": "complete",
      "type": "individual",
      "measure": "https://madie.cms.gov/Measure/CMS334FHIRPCCesareanBirth",
      "period": {
        "start": "2026-01-01",
        "end": "2026-12-31"
      },
      "group": [ {
        "population": [ {
          "code": {
            "coding": [ {
              "system": "http://terminology.hl7.org/CodeSystem/measure-population",
              "code": "initial-population",
              "display": "Initial Population"
            } ]
          },
          "count": 1
        }, {
          "code": {
            "coding": [ {
              "system": "http://terminology.hl7.org/CodeSystem/measure-population",
              "code": "denominator",
              "display": "Denominator"
            } ]
          },
          "count": 0
        }, {
          "code": {
            "coding": [ {
              "system": "http://terminology.hl7.org/CodeSystem/measure-population",
              "code": "denominator-exclusion",
              "display": "Denominator Exclusion"
            } ]
          },
          "count": 0
        }, {
          "code": {
            "coding": [ {
              "system": "http://terminology.hl7.org/CodeSystem/measure-population",
              "code": "numerator",
              "display": "Numerator"
            } ]
          },
          "count": 0
        } ]
      } ],
      "evaluatedResource": [ {
        "reference": "Patient/c5af304c-319a-4b77-89e9-e51d5db99832"
      }, {
        "reference": "Observation/41f48a27-1268-4db2-b88b-28896f112c4f"
      }, {
        "reference": "Observation/298a611d-3fe1-406a-8a80-a5964e3707de"
      }, {
        "reference": "Observation/6ce3fb00-f873-4adc-b9f3-2c7e82630b7c"
      }, {
        "reference": "Encounter/f6b26d92-8796-4d55-9ec3-5ae2ae4142e2"
      }, {
        "reference": "Procedure/7be0230b-7f4f-4f44-9ae7-4b5fa39c8898"
      }, {
        "reference": "Coverage/84f5afb7-03fb-42c9-8ab0-b45773481402"
      }, {
        "reference": "Organization/81716600-0fbe-4be9-9403-3994c0a1080d"
      }, {
        "reference": "Practitioner/289c9849-c4b9-42a6-b8fd-35c39e54fd59"
      } ]
    },
    "request": {
      "method": "PUT",
      "url": "MeasureReport/98c3055b-cbe5-4ae2-b957-468966951aba"
    }
  } ]
}