{
  "resourceType": "Bundle",
  "id": "b1f044ef3e654daa2265",
  "type": "transaction",
  "entry": [ {
    "fullUrl": "https://madie.cms.gov/Patient/99858043-4084-4412-b66c-dfb830097aa8",
    "resource": {
      "resourceType": "Patient",
      "id": "99858043-4084-4412-b66c-dfb830097aa8",
      "meta": {
        "profile": [ "http://hl7.org/fhir/us/qicore/StructureDefinition/qicore-patient" ]
      },
      "extension": [ {
        "url": "http://hl7.org/fhir/us/core/StructureDefinition/us-core-race",
        "extension": [ {
          "url": "ombCategory",
          "valueCoding": {
            "system": "urn:oid:2.16.840.1.113883.6.238",
            "code": "1002-5",
            "display": "American Indian or Alaska Native",
            "userSelected": true
          }
        }, {
          "url": "text",
          "valueString": "American Indian or Alaska Native"
        } ]
      }, {
        "url": "http://hl7.org/fhir/us/core/StructureDefinition/us-core-ethnicity",
        "extension": [ {
          "url": "ombCategory",
          "valueCoding": {
            "system": "urn:oid:2.16.840.1.113883.6.238",
            "code": "2135-2",
            "display": "Hispanic or Latino",
            "userSelected": true
          }
        }, {
          "url": "text",
          "valueString": "Hispanic or Latino"
        } ]
      } ],
      "identifier": [ {
        "type": {
          "coding": [ {
            "system": "http://terminology.hl7.org/CodeSystem/v2-0203",
            "code": "MR"
          } ]
        },
        "system": "https://bonnie-fhir.healthit.gov/",
        "value": "175a508c-e65e-4469-85c8-d475d57b124e"
      } ],
      "name": [ {
        "family": "DENEXCL11FAIL",
        "given": [ "HospiceAssessmentAfterED" ]
      } ],
      "gender": "female",
      "birthDate": "1963-04-20"
    },
    "request": {
      "method": "PUT",
      "url": "Patient/99858043-4084-4412-b66c-dfb830097aa8"
    }
  }, {
    "fullUrl": "https://madie.cms.gov/Encounter/41b45859-5e7d-47af-bbbe-d2a7e4a5ca75",
    "resource": {
      "resourceType": "Encounter",
      "id": "41b45859-5e7d-47af-bbbe-d2a7e4a5ca75",
      "meta": {
        "profile": [ "http://hl7.org/fhir/us/qicore/StructureDefinition/qicore-encounter" ]
      },
      "status": "finished",
      "class": {
        "system": "http://terminology.hl7.org/CodeSystem/v3-ActCode",
        "code": "EMER",
        "display": "emergency",
        "userSelected": true
      },
      "type": [ {
        "coding": [ {
          "system": "http://snomed.info/sct",
          "version": "2020-09",
          "code": "4525004",
          "display": "Emergency department patient visit",
          "userSelected": true
        } ]
      } ],
      "subject": {
        "reference": "Patient/99858043-4084-4412-b66c-dfb830097aa8"
      },
      "period": {
        "start": "2026-10-09T05:00:00.000+00:00",
        "end": "2026-10-13T17:00:00.000+00:00"
      },
      "reasonCode": [ {
        "coding": [ {
          "system": "http://hl7.org/fhir/sid/icd-10-cm",
          "code": "I21.21",
          "display": "ST elevation (STEMI) myocardial infarction involving left circumflex coronary artery",
          "userSelected": true
        } ]
      } ]
    },
    "request": {
      "method": "PUT",
      "url": "Encounter/41b45859-5e7d-47af-bbbe-d2a7e4a5ca75"
    }
  }, {
    "fullUrl": "https://madie.cms.gov/Observation/c31a0b34-dce1-4ae3-840e-ee9108080551",
    "resource": {
      "resourceType": "Observation",
      "id": "c31a0b34-dce1-4ae3-840e-ee9108080551",
      "meta": {
        "profile": [ "http://hl7.org/fhir/us/qicore/StructureDefinition/qicore-observation" ]
      },
      "status": "final",
      "category": [ {
        "coding": [ {
          "system": "http://terminology.hl7.org/CodeSystem/observation-category",
          "code": "survey",
          "display": "Survey",
          "userSelected": true
        } ]
      } ],
      "code": {
        "coding": [ {
          "system": "http://loinc.org",
          "code": "45755-6",
          "display": "Hospice care [Minimum Data Set]",
          "userSelected": true
        } ]
      },
      "subject": {
        "reference": "Patient/99858043-4084-4412-b66c-dfb830097aa8"
      },
      "effectivePeriod": {
        "start": "2026-10-16T02:00:00.000+00:00",
        "end": "2026-10-16T06:00:00.000+00:00"
      },
      "valueCodeableConcept": {
        "coding": [ {
          "system": "http://snomed.info/sct",
          "code": "373066001",
          "display": "Yes (qualifier value)",
          "userSelected": true
        } ]
      }
    },
    "request": {
      "method": "PUT",
      "url": "Observation/c31a0b34-dce1-4ae3-840e-ee9108080551"
    }
  }, {
    "fullUrl": "https://madie.cms.gov/MeasureReport/ea3c5d96-c9f6-41c0-be58-c1c64b6bb013",
    "resource": {
      "resourceType": "MeasureReport",
      "id": "ea3c5d96-c9f6-41c0-be58-c1c64b6bb013",
      "meta": {
        "profile": [ "http://hl7.org/fhir/us/cqfmeasures/StructureDefinition/test-case-cqfm" ]
      },
      "contained": [ {
        "resourceType": "Parameters",
        "id": "30a46e59-3438-4c14-a834-7f623a167237-parameters",
        "parameter": [ {
          "name": "subject",
          "valueString": "99858043-4084-4412-b66c-dfb830097aa8"
        } ]
      } ],
      "extension": [ {
        "url": "http://hl7.org/fhir/us/cqfmeasures/StructureDefinition/cqfm-inputParameters",
        "valueReference": {
          "reference": "#30a46e59-3438-4c14-a834-7f623a167237-parameters"
        }
      }, {
        "url": "http://hl7.org/fhir/us/cqfmeasures/StructureDefinition/cqfm-testCaseDescription",
        "valueMarkdown": "Hospice Assessment after ED stay, but during the measurement period"
      } ],
      "modifierExtension": [ {
        "url": "http://hl7.org/fhir/us/cqfmeasures/StructureDefinition/cqfm-isTestCase",
        "valueBoolean": true
      } ],
      "status": "complete",
      "type": "individual",
      "measure": "https://madie.cms.gov/Measure/CMS996FHIRAptTxforSTEMI",
      "period": {
        "start": "2026-01-01",
        "end": "2026-12-31"
      },
      "group": [ {
        "population": [ {
          "code": {
            "coding": [ {
              "system": "http://terminology.hl7.org/CodeSystem/measure-population",
              "code": "initial-population",
              "display": "Initial Population"
            } ]
          },
          "count": 1
        }, {
          "code": {
            "coding": [ {
              "system": "http://terminology.hl7.org/CodeSystem/measure-population",
              "code": "denominator",
              "display": "Denominator"
            } ]
          },
          "count": 1
        }, {
          "code": {
            "coding": [ {
              "system": "http://terminology.hl7.org/CodeSystem/measure-population",
              "code": "denominator-exclusion",
              "display": "Denominator Exclusion"
            } ]
          },
          "count": 0
        }, {
          "code": {
            "coding": [ {
              "system": "http://terminology.hl7.org/CodeSystem/measure-population",
              "code": "numerator",
              "display": "Numerator"
            } ]
          },
          "count": 0
        }, {
          "code": {
            "coding": [ {
              "system": "http://terminology.hl7.org/CodeSystem/measure-population",
              "code": "denominator-exception",
              "display": "Denominator Exception"
            } ]
          },
          "count": 0
        } ]
      } ],
      "evaluatedResource": [ {
        "reference": "Patient/99858043-4084-4412-b66c-dfb830097aa8"
      }, {
        "reference": "Encounter/41b45859-5e7d-47af-bbbe-d2a7e4a5ca75"
      }, {
        "reference": "Observation/c31a0b34-dce1-4ae3-840e-ee9108080551"
      } ]
    },
    "request": {
      "method": "PUT",
      "url": "MeasureReport/ea3c5d96-c9f6-41c0-be58-c1c64b6bb013"
    }
  } ]
}