{"resourceType":"Bundle","id":"tests-92f09d8f-c916-4030-9dc3-14844a50c7cb-bundle","type":"transaction","entry":[{"fullUrl":"https://madie.cms.gov/Patient/92f09d8f-c916-4030-9dc3-14844a50c7cb","resource":{"resourceType":"Patient","id":"92f09d8f-c916-4030-9dc3-14844a50c7cb","meta":{"profile":["http://hl7.org/fhir/us/qicore/StructureDefinition/qicore-patient"]},"text":{"status":"generated","div":"<div xmlns=\"http://www.w3.org/1999/xhtml\"><div class=\"hapiHeaderText\">3Enc1WithAntithrombic2WithtPA <b>NUMER&amp;DENEXPASS-LCG </b></div><table class=\"hapiPropertyTable\"><tbody><tr><td>Identifier</td><td>020dc4464ac8810d734b6702e424d7c5d535f8554cec1d7976a2fc68ac0b3268</td></tr><tr><td>Date of birth</td><td><span>26 September 1975</span></td></tr></tbody></table></div>"},"extension":[{"url":"http://hl7.org/fhir/us/core/StructureDefinition/us-core-race","extension":[{"url":"ombCategory","valueCoding":{"system":"urn:oid:2.16.840.1.113883.6.238","code":"2054-5","display":"Black or African American","userSelected":true}},{"url":"text","valueString":"Black or African American"}]},{"url":"http://hl7.org/fhir/us/core/StructureDefinition/us-core-ethnicity","extension":[{"url":"ombCategory","valueCoding":{"system":"urn:oid:2.16.840.1.113883.6.238","code":"2186-5","display":"Not Hispanic or Latino","userSelected":true}},{"url":"text","valueString":"Not Hispanic or Latino"}]}],"identifier":[{"type":{"coding":[{"system":"http://terminology.hl7.org/CodeSystem/v2-0203","code":"MR"}]},"system":"https://bonnie-fhir.healthit.gov/","value":"60f82c2f98086b570510e2cb"}],"active":true,"name":[{"use":"usual","family":"NUMER&DENEXPass-LCG","given":["3Enc1WithAntithrombic2WithtPA"]}],"gender":"female","birthDate":"1975-09-26"},"request":{"method":"PUT","url":"Patient/92f09d8f-c916-4030-9dc3-14844a50c7cb"}},{"fullUrl":"https://madie.cms.gov/Encounter/5c9e2f10b8484633ef4da92b","resource":{"resourceType":"Encounter","id":"ff3036cb-6cd0-422c-bff8-78ac125e4cb3","meta":{"profile":["http://hl7.org/fhir/us/qicore/StructureDefinition/qicore-encounter"]},"status":"finished","class":{"system":"http://terminology.hl7.org/CodeSystem/v3-ActCode","code":"IMP","display":"inpatient encounter"},"type":[{"coding":[{"system":"http://snomed.info/sct","code":"183452005"}]}],"subject":{"reference":"Patient/92f09d8f-c916-4030-9dc3-14844a50c7cb"},"period":{"start":"2025-09-09T09:00:00+00:00","end":"2025-09-12T11:15:00+00:00"},"length":{"value":0,"unit":"days"},"diagnosis":[{"condition":{"reference":"Condition/ischemic-stroke-7d50"},"use":{"coding":[{"system":"http://terminology.hl7.org/CodeSystem/diagnosis-role","code":"billing","display":"Billing"}]},"rank":1}]},"request":{"method":"PUT","url":"Encounter/ff3036cb-6cd0-422c-bff8-78ac125e4cb3"}},{"fullUrl":"https://madie.cms.gov/Encounter/5c9e2f10b8484633ef4da92c","resource":{"resourceType":"Encounter","id":"dcc88899-1bc2-49f1-977e-a13864db6c09","meta":{"profile":["http://hl7.org/fhir/us/qicore/StructureDefinition/qicore-encounter"]},"status":"finished","class":{"system":"http://terminology.hl7.org/CodeSystem/v3-ActCode","code":"IMP","display":"inpatient encounter"},"type":[{"coding":[{"system":"http://snomed.info/sct","code":"32485007"}]}],"subject":{"reference":"Patient/92f09d8f-c916-4030-9dc3-14844a50c7cb"},"period":{"start":"2025-10-10T09:00:00+00:00","end":"2025-10-12T11:15:00+00:00"},"length":{"value":2,"unit":"days"},"diagnosis":[{"condition":{"reference":"Condition/ischemic-stroke-7d51"},"use":{"coding":[{"system":"http://terminology.hl7.org/CodeSystem/diagnosis-role","code":"billing","display":"Billing"}]},"rank":1}]},"request":{"method":"PUT","url":"Encounter/dcc88899-1bc2-49f1-977e-a13864db6c09"}},{"fullUrl":"https://madie.cms.gov/Encounter/5e271f5229969c0000f91fbc","resource":{"resourceType":"Encounter","id":"a96c15d4-49f3-4759-93c6-35f476606ee7","meta":{"profile":["http://hl7.org/fhir/us/qicore/StructureDefinition/qicore-encounter"]},"status":"finished","class":{"system":"http://terminology.hl7.org/CodeSystem/v3-ActCode","code":"IMP","display":"inpatient encounter"},"type":[{"coding":[{"system":"http://snomed.info/sct","code":"183452005"}]}],"subject":{"reference":"Patient/92f09d8f-c916-4030-9dc3-14844a50c7cb"},"period":{"start":"2025-07-09T09:00:00+00:00","end":"2025-07-17T11:15:00+00:00"},"diagnosis":[{"condition":{"reference":"Condition/ischemic-stroke-7d52"},"use":{"coding":[{"system":"http://terminology.hl7.org/CodeSystem/diagnosis-role","code":"billing","display":"Billing"}]},"rank":1}]},"request":{"method":"PUT","url":"Encounter/a96c15d4-49f3-4759-93c6-35f476606ee7"}},{"fullUrl":"https://madie.cms.gov/MedicationAdministration/5e271f4229969c0000f91fad","resource":{"resourceType":"MedicationAdministration","id":"6bc0b89f-260a-43e3-8ea4-2bcaec7f78f6","meta":{"profile":["http://hl7.org/fhir/us/qicore/StructureDefinition/qicore-medicationadministration"]},"extension":[{"url":"http://hl7.org/fhir/us/qicore/StructureDefinition/qicore-recorded","valueDateTime":"2025-10-10T09:00:00+00:00"}],"status":"completed","medicationCodeableConcept":{"coding":[{"system":"http://www.nlm.nih.gov/research/umls/rxnorm","code":"1037045"}]},"subject":{"reference":"Patient/92f09d8f-c916-4030-9dc3-14844a50c7cb"},"effectivePeriod":{"start":"2025-10-10T09:00:00+00:00","end":"2025-10-12T11:15:00+00:00"}},"request":{"method":"PUT","url":"MedicationAdministration/6bc0b89f-260a-43e3-8ea4-2bcaec7f78f6"}},{"fullUrl":"https://madie.cms.gov/MedicationAdministration/5e442a533afe5d000044bd64","resource":{"resourceType":"MedicationAdministration","id":"85654279-a4e1-41dc-8a25-bebda80cca15","meta":{"profile":["http://hl7.org/fhir/us/qicore/StructureDefinition/qicore-medicationadministration"]},"status":"completed","medicationCodeableConcept":{"coding":[{"system":"http://www.nlm.nih.gov/research/umls/rxnorm","code":"1804799"}]},"subject":{"reference":"Patient/92f09d8f-c916-4030-9dc3-14844a50c7cb"},"effectivePeriod":{"start":"2025-09-09T11:00:00+00:00"}},"request":{"method":"PUT","url":"MedicationAdministration/85654279-a4e1-41dc-8a25-bebda80cca15"}},{"fullUrl":"https://madie.cms.gov/Coverage/5e20a3721c76ba6c5896ec1e","resource":{"resourceType":"Coverage","id":"fba3541c-14f7-4ae3-8150-badcecc9cf0b","status":"active","beneficiary":{"reference":"Patient/92f09d8f-c916-4030-9dc3-14844a50c7cb"},"period":{"start":"1975-09-26T08:00:00+00:00"},"payor":[{"reference":"Organization/806b0255-13cb-4f2b-9412-571554dd2169"}]},"request":{"method":"PUT","url":"Coverage/fba3541c-14f7-4ae3-8150-badcecc9cf0b"}},{"fullUrl":"https://madie.cms.gov/Procedure/5e271f9c29969c0000f92027","resource":{"resourceType":"Procedure","id":"0c79aa71-858a-4087-b6a4-425b46378db8","meta":{"profile":["http://hl7.org/fhir/us/qicore/StructureDefinition/qicore-procedure"]},"extension":[{"url":"http://hl7.org/fhir/us/qicore/StructureDefinition/qicore-recorded","valueDateTime":"2025-11-19T09:35:00-04:00"}],"status":"completed","code":{"coding":[{"system":"http://snomed.info/sct","code":"307521008"}]},"subject":{"reference":"Patient/92f09d8f-c916-4030-9dc3-14844a50c7cb"},"performedPeriod":{"start":"2025-07-10T09:00:00+00:00"}},"request":{"method":"PUT","url":"Procedure/0c79aa71-858a-4087-b6a4-425b46378db8"}},{"fullUrl":"https://madie.cms.gov/Condition/ischemic-stroke-7d50","resource":{"resourceType":"Condition","id":"127ea1b9-6e70-4589-97de-22b10d24e1e2","meta":{"profile":["http://hl7.org/fhir/us/qicore/StructureDefinition/qicore-condition"]},"clinicalStatus":{"coding":[{"system":"http://terminology.hl7.org/CodeSystem/condition-clinical","code":"active"}]},"verificationStatus":{"coding":[{"system":"http://terminology.hl7.org/CodeSystem/condition-ver-status","code":"confirmed"}]},"category":[{"coding":[{"system":"http://terminology.hl7.org/CodeSystem/condition-category","code":"encounter-diagnosis","display":"Encounter Diagnosis"}]}],"code":{"coding":[{"system":"http://snomed.info/sct","version":"2020-09","code":"111297002","display":"Nonparalytic stroke (disorder)","userSelected":true}]},"subject":{"reference":"Patient/92f09d8f-c916-4030-9dc3-14844a50c7cb"},"recordedDate":"2025-08-16T08:00:00.000+00:00"},"request":{"method":"PUT","url":"Condition/127ea1b9-6e70-4589-97de-22b10d24e1e2"}},{"fullUrl":"https://madie.cms.gov/Condition/ischemic-stroke-7d51","resource":{"resourceType":"Condition","id":"c6f33aa1-69b0-4ca6-95ea-e8e93a15c3a1","meta":{"profile":["http://hl7.org/fhir/us/qicore/StructureDefinition/qicore-condition"]},"clinicalStatus":{"coding":[{"system":"http://terminology.hl7.org/CodeSystem/condition-clinical","code":"active"}]},"verificationStatus":{"coding":[{"system":"http://terminology.hl7.org/CodeSystem/condition-ver-status","code":"confirmed"}]},"category":[{"coding":[{"system":"http://terminology.hl7.org/CodeSystem/condition-category","code":"encounter-diagnosis","display":"Encounter Diagnosis"}]}],"code":{"coding":[{"system":"http://snomed.info/sct","version":"2020-09","code":"111297002","display":"Nonparalytic stroke (disorder)","userSelected":true}]},"subject":{"reference":"Patient/92f09d8f-c916-4030-9dc3-14844a50c7cb"},"recordedDate":"2025-08-16T08:00:00.000+00:00"},"request":{"method":"PUT","url":"Condition/c6f33aa1-69b0-4ca6-95ea-e8e93a15c3a1"}},{"fullUrl":"https://madie.cms.gov/Condition/ischemic-stroke-7d52","resource":{"resourceType":"Condition","id":"ac47df8c-74f0-46a2-88ab-5398fdd4b35d","meta":{"profile":["http://hl7.org/fhir/us/qicore/StructureDefinition/qicore-condition"]},"clinicalStatus":{"coding":[{"system":"http://terminology.hl7.org/CodeSystem/condition-clinical","code":"active"}]},"verificationStatus":{"coding":[{"system":"http://terminology.hl7.org/CodeSystem/condition-ver-status","code":"confirmed"}]},"category":[{"coding":[{"system":"http://terminology.hl7.org/CodeSystem/condition-category","code":"encounter-diagnosis","display":"Encounter Diagnosis"}]}],"code":{"coding":[{"system":"http://snomed.info/sct","version":"2020-09","code":"111297002","display":"Nonparalytic stroke (disorder)","userSelected":true}]},"subject":{"reference":"Patient/92f09d8f-c916-4030-9dc3-14844a50c7cb"},"recordedDate":"2025-08-16T08:00:00.000+00:00"},"request":{"method":"PUT","url":"Condition/ac47df8c-74f0-46a2-88ab-5398fdd4b35d"}},{"fullUrl":"https://madie.cms.gov/Organization/123456","resource":{"resourceType":"Organization","id":"806b0255-13cb-4f2b-9412-571554dd2169","meta":{"profile":["http://hl7.org/fhir/us/qicore/StructureDefinition/qicore-organization"]},"identifier":[{"use":"temp","system":"urn:oid:2.16.840.1.113883.4.4","value":"21-3259825"}],"active":true,"type":[{"coding":[{"system":"http://terminology.hl7.org/CodeSystem/organization-type","code":"pay","display":"Payer"}]}],"name":"Blue Cross Blue Shield of Texas","telecom":[{"system":"phone","value":"(+1) 972-766-6900"}],"address":[{"use":"billing","type":"postal","line":["P.O. Box 660044"],"city":"Dallas","state":"TX","postalCode":"75266-0044","country":"USA"}]},"request":{"method":"PUT","url":"Organization/806b0255-13cb-4f2b-9412-571554dd2169"}},{"fullUrl":"https://madie.cms.gov/Practitioner/practitioner-123456","resource":{"resourceType":"Practitioner","id":"b8e4432a-eb43-4ded-81ec-baca84e0933d","identifier":[{"system":"http://hl7.org/fhir/sid/us-npi","value":"123456"}],"name":[{"family":"Evil","prefix":["Dr"]}]},"request":{"method":"PUT","url":"Practitioner/b8e4432a-eb43-4ded-81ec-baca84e0933d"}},{"fullUrl":"https://madie.cms.gov/MeasureReport/e814a86b-b0b5-47ad-a163-13ac771a1e6a","resource":{"resourceType":"MeasureReport","id":"e814a86b-b0b5-47ad-a163-13ac771a1e6a","meta":{"profile":["http://hl7.org/fhir/us/cqfmeasures/StructureDefinition/test-case-cqfm"]},"contained":[{"resourceType":"Parameters","id":"77932f0c-a816-4a14-9e7a-03e41c4fe452-parameters","parameter":[{"name":"subject","valueString":"92f09d8f-c916-4030-9dc3-14844a50c7cb"}]}],"extension":[{"url":"http://hl7.org/fhir/us/cqfmeasures/StructureDefinition/cqfm-inputParameters","valueReference":{"reference":"#77932f0c-a816-4a14-9e7a-03e41c4fe452-parameters"}},{"url":"http://hl7.org/fhir/us/cqfmeasures/StructureDefinition/cqfm-testCaseDescription","valueMarkdown":"Patient receives tPA in first encounter and antithrombotics in last 2 encounters. Testing to ensure medications without end dates do not interfere with encounters that follow. Executes as expected. \n"}],"modifierExtension":[{"url":"http://hl7.org/fhir/us/cqfmeasures/StructureDefinition/cqfm-isTestCase","valueBoolean":true}],"status":"complete","type":"individual","measure":"https://madie.cms.gov/Measure/AntithromboticTherapyByEndofHospitalDay2FHIR","period":{"start":"2025-01-01","end":"2025-12-31"},"group":[{"population":[{"code":{"coding":[{"system":"http://terminology.hl7.org/CodeSystem/measure-population","code":"initial-population","display":"Initial Population"}]},"count":3},{"code":{"coding":[{"system":"http://terminology.hl7.org/CodeSystem/measure-population","code":"denominator","display":"Denominator"}]},"count":3},{"code":{"coding":[{"system":"http://terminology.hl7.org/CodeSystem/measure-population","code":"denominator-exclusion","display":"Denominator Exclusion"}]},"count":2},{"code":{"coding":[{"system":"http://terminology.hl7.org/CodeSystem/measure-population","code":"numerator","display":"Numerator"}]},"count":1},{"code":{"coding":[{"system":"http://terminology.hl7.org/CodeSystem/measure-population","code":"denominator-exception","display":"Denominator Exception"}]},"count":0}]}]},"request":{"method":"PUT","url":"MeasureReport/e814a86b-b0b5-47ad-a163-13ac771a1e6a"}}]}