{"resourceType":"Bundle","id":"tests-5a329008-fcc1-4168-ab9c-89cb5dd6ff32-bundle","type":"transaction","entry":[{"fullUrl":"https://madie.cms.gov/Patient/5a329008-fcc1-4168-ab9c-89cb5dd6ff32","resource":{"resourceType":"Patient","id":"5a329008-fcc1-4168-ab9c-89cb5dd6ff32","meta":{"profile":["http://hl7.org/fhir/us/qicore/StructureDefinition/qicore-patient"]},"text":{"status":"generated","div":"<div xmlns=\"http://www.w3.org/1999/xhtml\"><div class=\"hapiHeaderText\">LCG2Enc1WithAntithrombic1WithtPA <b>NUMER&amp;DENECEPPASS </b></div><table class=\"hapiPropertyTable\"><tbody><tr><td>Date of birth</td><td><span>06 April 1980</span></td></tr></tbody></table></div>"},"extension":[{"url":"http://hl7.org/fhir/us/core/StructureDefinition/us-core-race","extension":[{"url":"ombCategory","valueCoding":{"system":"urn:oid:2.16.840.1.113883.6.238","code":"2106-3","display":"White","userSelected":true}},{"url":"text","valueString":"White"}]},{"url":"http://hl7.org/fhir/us/core/StructureDefinition/us-core-ethnicity","extension":[{"url":"ombCategory","valueCoding":{"system":"urn:oid:2.16.840.1.113883.6.238","code":"2186-5","display":"Not Hispanic or Latino","userSelected":true}},{"url":"text","valueString":"Not Hispanic or Latino"}]}],"identifier":[{"type":{"coding":[{"system":"http://terminology.hl7.org/CodeSystem/v2-0203","code":"MR"}]},"system":"https://bonnie-fhir.healthit.gov/","value":"60f82c2f98086b570510e2cd"}],"active":true,"name":[{"use":"usual","family":"NUMER&DENECEPPass","given":["LCG2Enc1WithAntithrombic1WithtPA"]}],"gender":"male","birthDate":"1980-04-06"},"request":{"method":"PUT","url":"Patient/5a329008-fcc1-4168-ab9c-89cb5dd6ff32"}},{"fullUrl":"https://madie.cms.gov/Encounter/5e4432483afe5d000044c193","resource":{"resourceType":"Encounter","id":"4faf38ca-637f-4886-9efa-70ec4c897579","meta":{"profile":["http://hl7.org/fhir/us/qicore/StructureDefinition/qicore-encounter"]},"status":"finished","class":{"system":"http://terminology.hl7.org/CodeSystem/v3-ActCode","code":"EMER","display":"emergency"},"type":[{"coding":[{"system":"http://snomed.info/sct","code":"4525004"}]}],"subject":{"reference":"Patient/5a329008-fcc1-4168-ab9c-89cb5dd6ff32"},"period":{"start":"2025-04-02T08:00:00+00:00","end":"2025-04-02T22:15:00+00:00"},"diagnosis":[{"condition":{"reference":"Condition/ischemic-stroke-7d4f"},"use":{"coding":[{"system":"http://terminology.hl7.org/CodeSystem/diagnosis-role","code":"billing","display":"Billing"}]},"rank":1}]},"request":{"method":"PUT","url":"Encounter/4faf38ca-637f-4886-9efa-70ec4c897579"}},{"fullUrl":"https://madie.cms.gov/Encounter/5e44332d3afe5d000044c1fa","resource":{"resourceType":"Encounter","id":"b99ceabf-b917-404d-ace3-f72ee29db16a","meta":{"profile":["http://hl7.org/fhir/us/qicore/StructureDefinition/qicore-encounter"]},"status":"finished","class":{"system":"http://terminology.hl7.org/CodeSystem/v3-ActCode","code":"IMP","display":"inpatient encounter"},"type":[{"coding":[{"system":"http://snomed.info/sct","code":"183452005"}]}],"subject":{"reference":"Patient/5a329008-fcc1-4168-ab9c-89cb5dd6ff32"},"period":{"start":"2025-04-02T23:00:00+00:00","end":"2025-04-10T10:15:00+00:00"},"diagnosis":[{"condition":{"reference":"Condition/ischemic-stroke-7d4e"},"use":{"coding":[{"system":"http://terminology.hl7.org/CodeSystem/diagnosis-role","code":"billing","display":"Billing"}]},"rank":1}]},"request":{"method":"PUT","url":"Encounter/b99ceabf-b917-404d-ace3-f72ee29db16a"}},{"fullUrl":"https://madie.cms.gov/Encounter/5e4433a13afe5d000044c24d","resource":{"resourceType":"Encounter","id":"c7268eeb-5658-4386-b43a-b364eb1e7b04","meta":{"profile":["http://hl7.org/fhir/us/qicore/StructureDefinition/qicore-encounter"]},"status":"finished","class":{"system":"http://terminology.hl7.org/CodeSystem/v3-ActCode","code":"EMER","display":"emergency"},"type":[{"coding":[{"system":"http://snomed.info/sct","code":"4525004"}]}],"subject":{"reference":"Patient/5a329008-fcc1-4168-ab9c-89cb5dd6ff32"},"period":{"start":"2025-06-01T04:00:00+00:00","end":"2025-06-01T08:15:00+00:00"}},"request":{"method":"PUT","url":"Encounter/c7268eeb-5658-4386-b43a-b364eb1e7b04"}},{"fullUrl":"https://madie.cms.gov/Encounter/5e4433d43afe5d000044c297","resource":{"resourceType":"Encounter","id":"7471f39f-928f-46a9-af4f-d87ff6d01184","meta":{"profile":["http://hl7.org/fhir/us/qicore/StructureDefinition/qicore-encounter"]},"status":"finished","class":{"system":"http://terminology.hl7.org/CodeSystem/v3-ActCode","code":"OBSENC","display":"observation encounter"},"type":[{"coding":[{"system":"http://snomed.info/sct","code":"448851000124103"}]}],"subject":{"reference":"Patient/5a329008-fcc1-4168-ab9c-89cb5dd6ff32"},"period":{"start":"2025-06-01T09:00:00+00:00","end":"2025-06-01T23:15:00+00:00"}},"request":{"method":"PUT","url":"Encounter/7471f39f-928f-46a9-af4f-d87ff6d01184"}},{"fullUrl":"https://madie.cms.gov/Encounter/5e4434183afe5d000044c2e6","resource":{"resourceType":"Encounter","id":"4c7cfb6f-bbd3-43cf-8e19-59d0be03ecd3","meta":{"profile":["http://hl7.org/fhir/us/qicore/StructureDefinition/qicore-encounter"]},"status":"finished","class":{"system":"http://terminology.hl7.org/CodeSystem/v3-ActCode","code":"IMP","display":"inpatient encounter"},"type":[{"coding":[{"system":"http://snomed.info/sct","code":"183452005"}]}],"subject":{"reference":"Patient/5a329008-fcc1-4168-ab9c-89cb5dd6ff32"},"period":{"start":"2025-06-02T00:00:00+00:00","end":"2025-06-15T11:15:00+00:00"},"diagnosis":[{"condition":{"reference":"Condition/ischemic-stroke-7d4f"},"use":{"coding":[{"system":"http://terminology.hl7.org/CodeSystem/diagnosis-role","code":"billing","display":"Billing"}]},"rank":1}]},"request":{"method":"PUT","url":"Encounter/4c7cfb6f-bbd3-43cf-8e19-59d0be03ecd3"}},{"fullUrl":"https://madie.cms.gov/Observation/5e44327e3afe5d000044c1bd","resource":{"resourceType":"Observation","id":"f9dde121-8ebc-4967-824b-eb63332be7b2","meta":{"profile":["http://hl7.org/fhir/us/qicore/StructureDefinition/qicore-observation"]},"status":"final","category":[{"coding":[{"system":"http://terminology.hl7.org/CodeSystem/observation-category","code":"laboratory","display":"Laboratory"}]}],"code":{"coding":[{"system":"http://loinc.org","code":"34714-6"}]},"subject":{"reference":"Patient/5a329008-fcc1-4168-ab9c-89cb5dd6ff32"},"effectivePeriod":{"start":"2025-04-02T08:00:00+00:00","end":"2025-04-02T22:15:00+00:00"},"issued":"2025-04-02T08:00:00.000+00:00","valueInteger":2},"request":{"method":"PUT","url":"Observation/f9dde121-8ebc-4967-824b-eb63332be7b2"}},{"fullUrl":"https://madie.cms.gov/MedicationAdministration/5e4433873afe5d000044c23f","resource":{"resourceType":"MedicationAdministration","id":"9fd96a42-b385-42f4-9c99-f1034a39102f","meta":{"profile":["http://hl7.org/fhir/us/qicore/StructureDefinition/qicore-medicationadministration"]},"extension":[{"url":"http://hl7.org/fhir/us/qicore/StructureDefinition/qicore-recorded","valueDateTime":"2025-04-02T23:00:00+00:00"}],"status":"completed","medicationCodeableConcept":{"coding":[{"system":"http://www.nlm.nih.gov/research/umls/rxnorm","code":"1037045"}]},"subject":{"reference":"Patient/5a329008-fcc1-4168-ab9c-89cb5dd6ff32"},"effectivePeriod":{"start":"2025-04-02T23:00:00+00:00","end":"2025-04-10T10:15:00+00:00"}},"request":{"method":"PUT","url":"MedicationAdministration/9fd96a42-b385-42f4-9c99-f1034a39102f"}},{"fullUrl":"https://madie.cms.gov/MedicationAdministration/5e4434683afe5d000044c358","resource":{"resourceType":"MedicationAdministration","id":"b6ad53fb-deb9-4212-96f9-d11714834066","meta":{"profile":["http://hl7.org/fhir/us/qicore/StructureDefinition/qicore-medicationadministration"]},"extension":[{"url":"http://hl7.org/fhir/us/qicore/StructureDefinition/qicore-recorded","valueDateTime":"2025-06-01T09:00:00+00:00"}],"status":"completed","medicationCodeableConcept":{"coding":[{"system":"http://www.nlm.nih.gov/research/umls/rxnorm","code":"1804799"}]},"subject":{"reference":"Patient/5a329008-fcc1-4168-ab9c-89cb5dd6ff32"},"effectivePeriod":{"start":"2025-06-01T09:00:00+00:00","end":"2025-06-01T23:15:00+00:00"},"reasonCode":[{"coding":[{"system":"http://www.nlm.nih.gov/research/umls/rxnorm","code":"1804799","display":"alteplase 100 MG Injection"}]}]},"request":{"method":"PUT","url":"MedicationAdministration/b6ad53fb-deb9-4212-96f9-d11714834066"}},{"fullUrl":"https://madie.cms.gov/MedicationAdministration/5e4434a13afe5d000044c3ac","resource":{"resourceType":"MedicationAdministration","id":"12483e09-6b13-4cfe-a802-1c0594fa822b","meta":{"profile":["http://hl7.org/fhir/us/qicore/StructureDefinition/qicore-medicationadministration"]},"extension":[{"url":"http://hl7.org/fhir/us/qicore/StructureDefinition/qicore-recorded","valueDateTime":"2025-06-02T00:15:00+00:00"}],"status":"completed","medicationCodeableConcept":{"coding":[{"system":"http://www.nlm.nih.gov/research/umls/rxnorm","code":"1037045"}]},"subject":{"reference":"Patient/5a329008-fcc1-4168-ab9c-89cb5dd6ff32"},"effectivePeriod":{"start":"2025-06-02T00:15:00+00:00","end":"2025-06-15T11:15:00+00:00"}},"request":{"method":"PUT","url":"MedicationAdministration/12483e09-6b13-4cfe-a802-1c0594fa822b"}},{"fullUrl":"https://madie.cms.gov/MedicationRequest/5e44337b3afe5d000044c232","resource":{"resourceType":"MedicationRequest","id":"b3608d2a-ab34-42d4-838e-944030a3616c","meta":{"profile":["http://hl7.org/fhir/us/qicore/StructureDefinition/qicore-medicationrequest"]},"status":"completed","intent":"order","medicationCodeableConcept":{"coding":[{"system":"http://www.nlm.nih.gov/research/umls/rxnorm","code":"1037045"}]},"subject":{"reference":"Patient/5a329008-fcc1-4168-ab9c-89cb5dd6ff32"},"authoredOn":"2025-04-02T08:00:00+00:00","requester":{"reference":"Practitioner/example"},"dosageInstruction":[{"timing":{"repeat":{"boundsPeriod":{"start":"2025-04-02T23:00:00+00:00","end":"2025-04-10T10:15:00+00:00"}}}}]},"request":{"method":"PUT","url":"MedicationRequest/b3608d2a-ab34-42d4-838e-944030a3616c"}},{"fullUrl":"https://madie.cms.gov/MedicationRequest/5e44349e3afe5d000044c39a","resource":{"resourceType":"MedicationRequest","id":"2222b3d5-5bea-4746-be46-0564c589c78c","meta":{"profile":["http://hl7.org/fhir/us/qicore/StructureDefinition/qicore-medicationrequest"]},"status":"completed","intent":"order","medicationCodeableConcept":{"coding":[{"system":"http://www.nlm.nih.gov/research/umls/rxnorm","code":"1037045"}]},"subject":{"reference":"Patient/5a329008-fcc1-4168-ab9c-89cb5dd6ff32"},"authoredOn":"2025-06-02T09:00:00+00:00","requester":{"reference":"Practitioner/example"},"dosageInstruction":[{"timing":{"repeat":{"boundsPeriod":{"start":"2025-06-02T00:15:00+00:00","end":"2025-06-15T11:15:00+00:00"}}}}]},"request":{"method":"PUT","url":"MedicationRequest/2222b3d5-5bea-4746-be46-0564c589c78c"}},{"fullUrl":"https://madie.cms.gov/Condition/ischemic-stroke-7d4e","resource":{"resourceType":"Condition","id":"30105703-757d-4287-a354-65ee2a237015","meta":{"profile":["http://hl7.org/fhir/us/qicore/StructureDefinition/qicore-condition"]},"clinicalStatus":{"coding":[{"system":"http://terminology.hl7.org/CodeSystem/condition-clinical","code":"active"}]},"verificationStatus":{"coding":[{"system":"http://terminology.hl7.org/CodeSystem/condition-ver-status","code":"confirmed"}]},"category":[{"coding":[{"system":"http://terminology.hl7.org/CodeSystem/condition-category","code":"encounter-diagnosis","display":"Encounter Diagnosis"}]}],"code":{"coding":[{"system":"http://snomed.info/sct","version":"2020-09","code":"111297002","display":"Nonparalytic stroke (disorder)","userSelected":true}]},"subject":{"reference":"Patient/5a329008-fcc1-4168-ab9c-89cb5dd6ff32"},"recordedDate":"2025-08-16T08:00:00.000+00:00"},"request":{"method":"PUT","url":"Condition/30105703-757d-4287-a354-65ee2a237015"}},{"fullUrl":"https://madie.cms.gov/Condition/ischemic-stroke-7d4f","resource":{"resourceType":"Condition","id":"a5fba545-c68d-4655-bbbf-4ace566c3572","meta":{"profile":["http://hl7.org/fhir/us/qicore/StructureDefinition/qicore-condition"]},"clinicalStatus":{"coding":[{"system":"http://terminology.hl7.org/CodeSystem/condition-clinical","code":"active"}]},"verificationStatus":{"coding":[{"system":"http://terminology.hl7.org/CodeSystem/condition-ver-status","code":"confirmed"}]},"category":[{"coding":[{"system":"http://terminology.hl7.org/CodeSystem/condition-category","code":"encounter-diagnosis","display":"Encounter Diagnosis"}]}],"code":{"coding":[{"system":"http://snomed.info/sct","version":"2020-09","code":"111297002","display":"Nonparalytic stroke (disorder)","userSelected":true}]},"subject":{"reference":"Patient/5a329008-fcc1-4168-ab9c-89cb5dd6ff32"},"recordedDate":"2025-08-16T08:00:00.000+00:00"},"request":{"method":"PUT","url":"Condition/a5fba545-c68d-4655-bbbf-4ace566c3572"}},{"fullUrl":"https://madie.cms.gov/Coverage/1","resource":{"resourceType":"Coverage","id":"4d90551b-2cd3-4fe4-b8bc-42cd524898bd","meta":{"profile":["http://hl7.org/fhir/us/qicore/StructureDefinition/qicore-coverage"]},"status":"active","beneficiary":{"reference":"Patient/5a329008-fcc1-4168-ab9c-89cb5dd6ff32"},"payor":[{"reference":"Organization/4d7da20f-8773-4347-8f6b-80adcdcee1f4"}]},"request":{"method":"PUT","url":"Coverage/4d90551b-2cd3-4fe4-b8bc-42cd524898bd"}},{"fullUrl":"https://madie.cms.gov/Organization/123456","resource":{"resourceType":"Organization","id":"4d7da20f-8773-4347-8f6b-80adcdcee1f4","meta":{"profile":["http://hl7.org/fhir/us/qicore/StructureDefinition/qicore-organization"]},"identifier":[{"use":"temp","system":"urn:oid:2.16.840.1.113883.4.4","value":"21-3259825"}],"active":true,"type":[{"coding":[{"system":"http://terminology.hl7.org/CodeSystem/organization-type","code":"pay","display":"Payer"}]}],"name":"Blue Cross Blue Shield of Texas","telecom":[{"system":"phone","value":"(+1) 972-766-6900"}],"address":[{"use":"billing","type":"postal","line":["P.O. Box 660044"],"city":"Dallas","state":"TX","postalCode":"75266-0044","country":"USA"}]},"request":{"method":"PUT","url":"Organization/4d7da20f-8773-4347-8f6b-80adcdcee1f4"}},{"fullUrl":"https://madie.cms.gov/Practitioner/practitioner-123456","resource":{"resourceType":"Practitioner","id":"21101af7-94d6-46ba-94b4-cbf631395240","identifier":[{"system":"http://hl7.org/fhir/sid/us-npi","value":"123456"}],"name":[{"family":"Evil","prefix":["Dr"]}]},"request":{"method":"PUT","url":"Practitioner/21101af7-94d6-46ba-94b4-cbf631395240"}},{"fullUrl":"https://madie.cms.gov/MeasureReport/2c0071fd-f058-47e3-b185-736b9943614f","resource":{"resourceType":"MeasureReport","id":"2c0071fd-f058-47e3-b185-736b9943614f","meta":{"profile":["http://hl7.org/fhir/us/cqfmeasures/StructureDefinition/test-case-cqfm"]},"contained":[{"resourceType":"Parameters","id":"d6bfd2f7-a2da-4a0f-9774-735b1bbe2841-parameters","parameter":[{"name":"subject","valueString":"5a329008-fcc1-4168-ab9c-89cb5dd6ff32"}]}],"extension":[{"url":"http://hl7.org/fhir/us/cqfmeasures/StructureDefinition/cqfm-inputParameters","valueReference":{"reference":"#d6bfd2f7-a2da-4a0f-9774-735b1bbe2841-parameters"}},{"url":"http://hl7.org/fhir/us/cqfmeasures/StructureDefinition/cqfm-testCaseDescription","valueMarkdown":"Testing multiple encounters, one with ED to Inpatient with antithrombotic, and one with Ed to Obs to Inpatient with tPA. \n"}],"modifierExtension":[{"url":"http://hl7.org/fhir/us/cqfmeasures/StructureDefinition/cqfm-isTestCase","valueBoolean":true}],"status":"complete","type":"individual","measure":"https://madie.cms.gov/Measure/AntithromboticTherapyByEndofHospitalDay2FHIR","period":{"start":"2025-01-01","end":"2025-12-31"},"group":[{"population":[{"code":{"coding":[{"system":"http://terminology.hl7.org/CodeSystem/measure-population","code":"initial-population","display":"Initial Population"}]},"count":2},{"code":{"coding":[{"system":"http://terminology.hl7.org/CodeSystem/measure-population","code":"denominator","display":"Denominator"}]},"count":2},{"code":{"coding":[{"system":"http://terminology.hl7.org/CodeSystem/measure-population","code":"denominator-exclusion","display":"Denominator Exclusion"}]},"count":1},{"code":{"coding":[{"system":"http://terminology.hl7.org/CodeSystem/measure-population","code":"numerator","display":"Numerator"}]},"count":1},{"code":{"coding":[{"system":"http://terminology.hl7.org/CodeSystem/measure-population","code":"denominator-exception","display":"Denominator Exception"}]},"count":0}]}]},"request":{"method":"PUT","url":"MeasureReport/2c0071fd-f058-47e3-b185-736b9943614f"}}]}