{"resourceType":"Bundle","id":"tests-9f4bc5cc-b5a4-4d67-a11f-9f171b62fd9f-bundle","type":"transaction","entry":[{"fullUrl":"https://madie.cms.gov/Patient/9f4bc5cc-b5a4-4d67-a11f-9f171b62fd9f","resource":{"resourceType":"Patient","id":"9f4bc5cc-b5a4-4d67-a11f-9f171b62fd9f","meta":{"profile":["http://hl7.org/fhir/us/qicore/StructureDefinition/qicore-patient"]},"text":{"status":"generated","div":"<div xmlns=\"http://www.w3.org/1999/xhtml\"><div class=\"hapiHeaderText\">TPADocumentB4EncStart <b>DENEXFAIL </b></div><table class=\"hapiPropertyTable\"><tbody><tr><td>Identifier</td><td>664428f9fe85f1e578781fb1b380e14d63faa1477ab453cbf0bdc52993a87621</td></tr><tr><td>Date of birth</td><td><span>26 September 1975</span></td></tr></tbody></table></div>"},"extension":[{"url":"http://hl7.org/fhir/us/core/StructureDefinition/us-core-race","extension":[{"url":"ombCategory","valueCoding":{"system":"urn:oid:2.16.840.1.113883.6.238","code":"2054-5","display":"Black or African American","userSelected":true}},{"url":"text","valueString":"Black or African American"}]},{"url":"http://hl7.org/fhir/us/core/StructureDefinition/us-core-ethnicity","extension":[{"url":"ombCategory","valueCoding":{"system":"urn:oid:2.16.840.1.113883.6.238","code":"2186-5","display":"Not Hispanic or Latino","userSelected":true}},{"url":"text","valueString":"Not Hispanic or Latino"}]}],"identifier":[{"type":{"coding":[{"system":"http://terminology.hl7.org/CodeSystem/v2-0203","code":"MR"}]},"system":"https://bonnie-fhir.healthit.gov/","value":"60f82c2f98086b570510e29c"}],"active":true,"name":[{"use":"usual","family":"DENEXFAIL","given":["TPADocumentB4EncStart"]}],"gender":"female","birthDate":"1975-09-26"},"request":{"method":"PUT","url":"Patient/9f4bc5cc-b5a4-4d67-a11f-9f171b62fd9f"}},{"fullUrl":"https://madie.cms.gov/Condition/5ce6d06bb84846725ea4588d","resource":{"resourceType":"Condition","id":"f2d61f97-c6e0-46ec-b8f7-813728d2e037","meta":{"profile":["http://hl7.org/fhir/us/qicore/StructureDefinition/qicore-condition"]},"category":[{"coding":[{"system":"http://terminology.hl7.org/CodeSystem/condition-category","code":"encounter-diagnosis","display":"Encounter Diagnosis"}]}],"code":{"coding":[{"system":"http://hl7.org/fhir/sid/icd-10-cm","code":"Z92.82"}]},"subject":{"reference":"Patient/9f4bc5cc-b5a4-4d67-a11f-9f171b62fd9f"},"onsetDateTime":"2025-10-10T06:14:00+00:00","recordedDate":"2025-10-10T06:14:00+00:00"},"request":{"method":"PUT","url":"Condition/f2d61f97-c6e0-46ec-b8f7-813728d2e037"}},{"fullUrl":"https://madie.cms.gov/Encounter/5ce6d06bb84846725ea4588e","resource":{"resourceType":"Encounter","id":"bfa18dc4-1ec5-4867-9657-9d3b5a2034d7","meta":{"profile":["http://hl7.org/fhir/us/qicore/StructureDefinition/qicore-encounter"]},"status":"finished","class":{"system":"http://terminology.hl7.org/CodeSystem/v3-ActCode","code":"IMP","display":"inpatient encounter","userSelected":true},"type":[{"coding":[{"system":"http://snomed.info/sct","code":"32485007"}]}],"subject":{"reference":"Patient/9f4bc5cc-b5a4-4d67-a11f-9f171b62fd9f"},"period":{"start":"2025-10-10T06:15:00+00:00","end":"2025-10-24T11:30:00+00:00"},"length":{"value":14,"unit":"days"},"diagnosis":[{"condition":{"reference":"Condition/ischemic-stroke-6a8b"},"use":{"coding":[{"system":"http://terminology.hl7.org/CodeSystem/diagnosis-role","code":"billing","display":"Billing"}]},"rank":1}]},"request":{"method":"PUT","url":"Encounter/bfa18dc4-1ec5-4867-9657-9d3b5a2034d7"}},{"fullUrl":"https://madie.cms.gov/Coverage/5e20a36e1c76ba6c5896ebff","resource":{"resourceType":"Coverage","id":"631b1bf7-810d-4abe-8075-8085fa60ecd9","status":"active","beneficiary":{"reference":"Patient/9f4bc5cc-b5a4-4d67-a11f-9f171b62fd9f"},"period":{"start":"1975-09-26T08:00:00+00:00"},"payor":[{"reference":"Organization/33ead57e-5e04-40e4-95ea-bc3cdbd58917"}]},"request":{"method":"PUT","url":"Coverage/631b1bf7-810d-4abe-8075-8085fa60ecd9"}},{"fullUrl":"https://madie.cms.gov/Condition/ischemic-stroke-6a8b","resource":{"resourceType":"Condition","id":"0b6f9acb-ffb4-4f78-b7fa-bbcb20f400bb","meta":{"profile":["http://hl7.org/fhir/us/qicore/StructureDefinition/qicore-condition"]},"clinicalStatus":{"coding":[{"system":"http://terminology.hl7.org/CodeSystem/condition-clinical","code":"active"}]},"verificationStatus":{"coding":[{"system":"http://terminology.hl7.org/CodeSystem/condition-ver-status","code":"confirmed"}]},"category":[{"coding":[{"system":"http://terminology.hl7.org/CodeSystem/condition-category","code":"encounter-diagnosis","display":"Encounter Diagnosis"}]}],"code":{"coding":[{"system":"http://snomed.info/sct","version":"2020-09","code":"111297002","display":"Nonparalytic stroke (disorder)","userSelected":true}]},"subject":{"reference":"Patient/9f4bc5cc-b5a4-4d67-a11f-9f171b62fd9f"},"recordedDate":"2025-08-10T08:00:00.000+00:00"},"request":{"method":"PUT","url":"Condition/0b6f9acb-ffb4-4f78-b7fa-bbcb20f400bb"}},{"fullUrl":"https://madie.cms.gov/Organization/123456","resource":{"resourceType":"Organization","id":"33ead57e-5e04-40e4-95ea-bc3cdbd58917","meta":{"profile":["http://hl7.org/fhir/us/qicore/StructureDefinition/qicore-organization"]},"identifier":[{"use":"temp","system":"urn:oid:2.16.840.1.113883.4.4","value":"21-3259825"}],"active":true,"type":[{"coding":[{"system":"http://terminology.hl7.org/CodeSystem/organization-type","code":"pay","display":"Payer"}]}],"name":"Blue Cross Blue Shield of Texas","telecom":[{"system":"phone","value":"(+1) 972-766-6900"}],"address":[{"use":"billing","type":"postal","line":["P.O. Box 660044"],"city":"Dallas","state":"TX","postalCode":"75266-0044","country":"USA"}]},"request":{"method":"PUT","url":"Organization/33ead57e-5e04-40e4-95ea-bc3cdbd58917"}},{"fullUrl":"https://madie.cms.gov/MeasureReport/9f28bb68-e666-4a05-851b-afa8146d6608","resource":{"resourceType":"MeasureReport","id":"9f28bb68-e666-4a05-851b-afa8146d6608","meta":{"profile":["http://hl7.org/fhir/us/cqfmeasures/StructureDefinition/test-case-cqfm"]},"contained":[{"resourceType":"Parameters","id":"61057f61-944b-47d4-98ce-4b22321b4851-parameters","parameter":[{"name":"subject","valueString":"9f4bc5cc-b5a4-4d67-a11f-9f171b62fd9f"}]}],"extension":[{"url":"http://hl7.org/fhir/us/cqfmeasures/StructureDefinition/cqfm-inputParameters","valueReference":{"reference":"#61057f61-944b-47d4-98ce-4b22321b4851-parameters"}},{"url":"http://hl7.org/fhir/us/cqfmeasures/StructureDefinition/cqfm-testCaseDescription","valueMarkdown":"Thrombolytic therapy diagnosis documented as given before IP start.\n"}],"modifierExtension":[{"url":"http://hl7.org/fhir/us/cqfmeasures/StructureDefinition/cqfm-isTestCase","valueBoolean":true}],"status":"complete","type":"individual","measure":"https://madie.cms.gov/Measure/AntithromboticTherapyByEndofHospitalDay2FHIR","period":{"start":"2025-01-01","end":"2025-12-31"},"group":[{"population":[{"code":{"coding":[{"system":"http://terminology.hl7.org/CodeSystem/measure-population","code":"initial-population","display":"Initial Population"}]},"count":1},{"code":{"coding":[{"system":"http://terminology.hl7.org/CodeSystem/measure-population","code":"denominator","display":"Denominator"}]},"count":1},{"code":{"coding":[{"system":"http://terminology.hl7.org/CodeSystem/measure-population","code":"denominator-exclusion","display":"Denominator Exclusion"}]},"count":0},{"code":{"coding":[{"system":"http://terminology.hl7.org/CodeSystem/measure-population","code":"numerator","display":"Numerator"}]},"count":0},{"code":{"coding":[{"system":"http://terminology.hl7.org/CodeSystem/measure-population","code":"denominator-exception","display":"Denominator Exception"}]},"count":0}]}]},"request":{"method":"PUT","url":"MeasureReport/9f28bb68-e666-4a05-851b-afa8146d6608"}}]}