{"resourceType":"Bundle","id":"tests-cb7c95fc-6d6b-4e07-81e8-a79385142b94-bundle","type":"transaction","entry":[{"fullUrl":"https://madie.cms.gov/Patient/cb7c95fc-6d6b-4e07-81e8-a79385142b94","resource":{"resourceType":"Patient","id":"cb7c95fc-6d6b-4e07-81e8-a79385142b94","meta":{"profile":["http://hl7.org/fhir/us/qicore/StructureDefinition/qicore-patient"]},"text":{"status":"generated","div":"<div xmlns=\"http://www.w3.org/1999/xhtml\"><div class=\"hapiHeaderText\">3Enc2WithAntithrombic1WithtPA <b>NUMER&amp;DENEXPASS-LCG </b></div><table class=\"hapiPropertyTable\"><tbody><tr><td>Identifier</td><td>020dc4464ac8810d734b6702e424d7c5d535f8554cec1d7976a2fc68ac0b3268</td></tr><tr><td>Date of birth</td><td><span>26 September 1975</span></td></tr></tbody></table></div>"},"extension":[{"url":"http://hl7.org/fhir/us/core/StructureDefinition/us-core-race","extension":[{"url":"ombCategory","valueCoding":{"system":"urn:oid:2.16.840.1.113883.6.238","code":"2054-5","display":"Black or African American","userSelected":true}},{"url":"text","valueString":"Black or African American"}]},{"url":"http://hl7.org/fhir/us/core/StructureDefinition/us-core-ethnicity","extension":[{"url":"ombCategory","valueCoding":{"system":"urn:oid:2.16.840.1.113883.6.238","code":"2186-5","display":"Not Hispanic or Latino","userSelected":true}},{"url":"text","valueString":"Not Hispanic or Latino"}]}],"identifier":[{"type":{"coding":[{"system":"http://terminology.hl7.org/CodeSystem/v2-0203","code":"MR"}]},"system":"https://bonnie-fhir.healthit.gov/","value":"60f82c2f98086b570510e2bb"}],"active":true,"name":[{"use":"usual","family":"NUMER&DENEXPass-LCG","given":["3Enc2WithAntithrombic1WithtPA"]}],"gender":"female","birthDate":"1975-09-26"},"request":{"method":"PUT","url":"Patient/cb7c95fc-6d6b-4e07-81e8-a79385142b94"}},{"fullUrl":"https://madie.cms.gov/Encounter/5c9e2f10b8484633ef4da92b","resource":{"resourceType":"Encounter","id":"17043ef6-2b45-4c11-af37-e4c31c5ff36f","meta":{"profile":["http://hl7.org/fhir/us/qicore/StructureDefinition/qicore-encounter"]},"status":"finished","class":{"system":"http://terminology.hl7.org/CodeSystem/v3-ActCode","code":"IMP","display":"inpatient encounter"},"type":[{"coding":[{"system":"http://snomed.info/sct","code":"183452005"}]}],"subject":{"reference":"Patient/cb7c95fc-6d6b-4e07-81e8-a79385142b94"},"period":{"start":"2025-09-09T09:00:00+00:00","end":"2025-09-12T11:15:00+00:00"},"length":{"value":0,"unit":"days"},"diagnosis":[{"condition":{"reference":"Condition/ischemic-stroke-7d53"},"use":{"coding":[{"system":"http://terminology.hl7.org/CodeSystem/diagnosis-role","code":"billing","display":"Billing"}]},"rank":1}]},"request":{"method":"PUT","url":"Encounter/17043ef6-2b45-4c11-af37-e4c31c5ff36f"}},{"fullUrl":"https://madie.cms.gov/Encounter/5c9e2f10b8484633ef4da92c","resource":{"resourceType":"Encounter","id":"052f7f71-1057-4a79-b38b-e2b26746c5f5","meta":{"profile":["http://hl7.org/fhir/us/qicore/StructureDefinition/qicore-encounter"]},"status":"finished","class":{"system":"http://terminology.hl7.org/CodeSystem/v3-ActCode","code":"IMP","display":"inpatient encounter"},"type":[{"coding":[{"system":"http://snomed.info/sct","code":"32485007"}]}],"subject":{"reference":"Patient/cb7c95fc-6d6b-4e07-81e8-a79385142b94"},"period":{"start":"2025-10-10T09:00:00+00:00","end":"2025-10-12T11:15:00+00:00"},"length":{"value":2,"unit":"days"},"diagnosis":[{"condition":{"reference":"Condition/ischemic-stroke-7d54"},"use":{"coding":[{"system":"http://terminology.hl7.org/CodeSystem/diagnosis-role","code":"billing","display":"Billing"}]},"rank":1}]},"request":{"method":"PUT","url":"Encounter/052f7f71-1057-4a79-b38b-e2b26746c5f5"}},{"fullUrl":"https://madie.cms.gov/Encounter/5e271f5229969c0000f91fbc","resource":{"resourceType":"Encounter","id":"2c369487-543b-4f59-aeae-bcc844654f87","meta":{"profile":["http://hl7.org/fhir/us/qicore/StructureDefinition/qicore-encounter"]},"status":"finished","class":{"system":"http://terminology.hl7.org/CodeSystem/v3-ActCode","code":"IMP","display":"inpatient encounter"},"type":[{"coding":[{"system":"http://snomed.info/sct","code":"183452005"}]}],"subject":{"reference":"Patient/cb7c95fc-6d6b-4e07-81e8-a79385142b94"},"period":{"start":"2025-07-09T09:00:00+00:00","end":"2025-07-17T11:15:00+00:00"},"diagnosis":[{"condition":{"reference":"Condition/ischemic-stroke-7d55"},"use":{"coding":[{"system":"http://terminology.hl7.org/CodeSystem/diagnosis-role","code":"billing","display":"Billing"}]},"rank":1}]},"request":{"method":"PUT","url":"Encounter/2c369487-543b-4f59-aeae-bcc844654f87"}},{"fullUrl":"https://madie.cms.gov/MedicationAdministration/5c9e2f10b8484633ef4da92d","resource":{"resourceType":"MedicationAdministration","id":"16d4f50f-2d07-4fa0-b454-03f2430ea91e","meta":{"profile":["http://hl7.org/fhir/us/qicore/StructureDefinition/qicore-medicationadministration"]},"status":"completed","medicationCodeableConcept":{"coding":[{"system":"http://www.nlm.nih.gov/research/umls/rxnorm","code":"1037045"}]},"subject":{"reference":"Patient/cb7c95fc-6d6b-4e07-81e8-a79385142b94"},"effectivePeriod":{"start":"2025-09-09T11:00:00+00:00"}},"request":{"method":"PUT","url":"MedicationAdministration/16d4f50f-2d07-4fa0-b454-03f2430ea91e"}},{"fullUrl":"https://madie.cms.gov/MedicationAdministration/5e271f4229969c0000f91fad","resource":{"resourceType":"MedicationAdministration","id":"01b686c3-e464-46e2-8362-fd2cde659f61","meta":{"profile":["http://hl7.org/fhir/us/qicore/StructureDefinition/qicore-medicationadministration"]},"extension":[{"url":"http://hl7.org/fhir/us/qicore/StructureDefinition/qicore-recorded","valueDateTime":"2025-10-10T09:00:00+00:00"}],"status":"completed","medicationCodeableConcept":{"coding":[{"system":"http://www.nlm.nih.gov/research/umls/rxnorm","code":"1037045"}]},"subject":{"reference":"Patient/cb7c95fc-6d6b-4e07-81e8-a79385142b94"},"effectivePeriod":{"start":"2025-10-10T09:00:00+00:00","end":"2025-10-12T11:15:00+00:00"}},"request":{"method":"PUT","url":"MedicationAdministration/01b686c3-e464-46e2-8362-fd2cde659f61"}},{"fullUrl":"https://madie.cms.gov/Coverage/5e20a3721c76ba6c5896ec1e","resource":{"resourceType":"Coverage","id":"c1cd17aa-0bc5-498a-bf55-af41f7b1bf6f","status":"active","beneficiary":{"reference":"Patient/cb7c95fc-6d6b-4e07-81e8-a79385142b94"},"period":{"start":"1975-09-26T08:00:00+00:00"},"payor":[{"reference":"Organization/806b0255-13cb-4f2b-9412-571554dd2169"}]},"request":{"method":"PUT","url":"Coverage/c1cd17aa-0bc5-498a-bf55-af41f7b1bf6f"}},{"fullUrl":"https://madie.cms.gov/Procedure/5e271f9c29969c0000f92027","resource":{"resourceType":"Procedure","id":"0b7c0d86-b93f-4172-8e8e-d3c4e849e904","meta":{"profile":["http://hl7.org/fhir/us/qicore/StructureDefinition/qicore-procedure"]},"extension":[{"url":"http://hl7.org/fhir/us/qicore/StructureDefinition/qicore-recorded","valueDateTime":"2025-11-19T09:35:00-04:00"}],"status":"completed","code":{"coding":[{"system":"http://snomed.info/sct","code":"307521008"}]},"subject":{"reference":"Patient/cb7c95fc-6d6b-4e07-81e8-a79385142b94"},"performedPeriod":{"start":"2025-07-10T09:00:00+00:00"}},"request":{"method":"PUT","url":"Procedure/0b7c0d86-b93f-4172-8e8e-d3c4e849e904"}},{"fullUrl":"https://madie.cms.gov/Condition/ischemic-stroke-7d53","resource":{"resourceType":"Condition","id":"151f72a2-f52d-466e-842b-f02297e5d8a2","meta":{"profile":["http://hl7.org/fhir/us/qicore/StructureDefinition/qicore-condition"]},"clinicalStatus":{"coding":[{"system":"http://terminology.hl7.org/CodeSystem/condition-clinical","code":"active"}]},"verificationStatus":{"coding":[{"system":"http://terminology.hl7.org/CodeSystem/condition-ver-status","code":"confirmed"}]},"category":[{"coding":[{"system":"http://terminology.hl7.org/CodeSystem/condition-category","code":"encounter-diagnosis","display":"Encounter Diagnosis"}]}],"code":{"coding":[{"system":"http://snomed.info/sct","version":"2020-09","code":"111297002","display":"Nonparalytic stroke (disorder)","userSelected":true}]},"subject":{"reference":"Patient/cb7c95fc-6d6b-4e07-81e8-a79385142b94"},"recordedDate":"2025-08-16T08:00:00.000+00:00"},"request":{"method":"PUT","url":"Condition/151f72a2-f52d-466e-842b-f02297e5d8a2"}},{"fullUrl":"https://madie.cms.gov/Condition/ischemic-stroke-7d54","resource":{"resourceType":"Condition","id":"45c4d4f7-1356-48bf-8fb8-26b3b970c1a4","meta":{"profile":["http://hl7.org/fhir/us/qicore/StructureDefinition/qicore-condition"]},"clinicalStatus":{"coding":[{"system":"http://terminology.hl7.org/CodeSystem/condition-clinical","code":"active"}]},"verificationStatus":{"coding":[{"system":"http://terminology.hl7.org/CodeSystem/condition-ver-status","code":"confirmed"}]},"category":[{"coding":[{"system":"http://terminology.hl7.org/CodeSystem/condition-category","code":"encounter-diagnosis","display":"Encounter Diagnosis"}]}],"code":{"coding":[{"system":"http://snomed.info/sct","version":"2020-09","code":"111297002","display":"Nonparalytic stroke (disorder)","userSelected":true}]},"subject":{"reference":"Patient/cb7c95fc-6d6b-4e07-81e8-a79385142b94"},"recordedDate":"2025-08-16T08:00:00.000+00:00"},"request":{"method":"PUT","url":"Condition/45c4d4f7-1356-48bf-8fb8-26b3b970c1a4"}},{"fullUrl":"https://madie.cms.gov/Condition/ischemic-stroke-7d55","resource":{"resourceType":"Condition","id":"61b1fc12-a19a-4ca5-8d9a-72d1572d19e0","meta":{"profile":["http://hl7.org/fhir/us/qicore/StructureDefinition/qicore-condition"]},"clinicalStatus":{"coding":[{"system":"http://terminology.hl7.org/CodeSystem/condition-clinical","code":"active"}]},"verificationStatus":{"coding":[{"system":"http://terminology.hl7.org/CodeSystem/condition-ver-status","code":"confirmed"}]},"category":[{"coding":[{"system":"http://terminology.hl7.org/CodeSystem/condition-category","code":"encounter-diagnosis","display":"Encounter Diagnosis"}]}],"code":{"coding":[{"system":"http://snomed.info/sct","version":"2020-09","code":"111297002","display":"Nonparalytic stroke (disorder)","userSelected":true}]},"subject":{"reference":"Patient/cb7c95fc-6d6b-4e07-81e8-a79385142b94"},"recordedDate":"2025-08-16T08:00:00.000+00:00"},"request":{"method":"PUT","url":"Condition/61b1fc12-a19a-4ca5-8d9a-72d1572d19e0"}},{"fullUrl":"https://madie.cms.gov/Organization/123456","resource":{"resourceType":"Organization","id":"806b0255-13cb-4f2b-9412-571554dd2169","meta":{"profile":["http://hl7.org/fhir/us/qicore/StructureDefinition/qicore-organization"]},"identifier":[{"use":"temp","system":"urn:oid:2.16.840.1.113883.4.4","value":"21-3259825"}],"active":true,"type":[{"coding":[{"system":"http://terminology.hl7.org/CodeSystem/organization-type","code":"pay","display":"Payer"}]}],"name":"Blue Cross Blue Shield of Texas","telecom":[{"system":"phone","value":"(+1) 972-766-6900"}],"address":[{"use":"billing","type":"postal","line":["P.O. Box 660044"],"city":"Dallas","state":"TX","postalCode":"75266-0044","country":"USA"}]},"request":{"method":"PUT","url":"Organization/806b0255-13cb-4f2b-9412-571554dd2169"}},{"fullUrl":"https://madie.cms.gov/Practitioner/practitioner-123456","resource":{"resourceType":"Practitioner","id":"eebdbd8d-9875-4cd9-98cb-5df53ad82c20","identifier":[{"system":"http://hl7.org/fhir/sid/us-npi","value":"123456"}],"name":[{"family":"Evil","prefix":["Dr"]}]},"request":{"method":"PUT","url":"Practitioner/eebdbd8d-9875-4cd9-98cb-5df53ad82c20"}},{"fullUrl":"https://madie.cms.gov/MeasureReport/4998020f-5a0a-4194-97f8-1c796936962e","resource":{"resourceType":"MeasureReport","id":"4998020f-5a0a-4194-97f8-1c796936962e","meta":{"profile":["http://hl7.org/fhir/us/cqfmeasures/StructureDefinition/test-case-cqfm"]},"contained":[{"resourceType":"Parameters","id":"c421d145-7018-4dfb-aeb2-c7d5b396f411-parameters","parameter":[{"name":"subject","valueString":"cb7c95fc-6d6b-4e07-81e8-a79385142b94"}]}],"extension":[{"url":"http://hl7.org/fhir/us/cqfmeasures/StructureDefinition/cqfm-inputParameters","valueReference":{"reference":"#c421d145-7018-4dfb-aeb2-c7d5b396f411-parameters"}},{"url":"http://hl7.org/fhir/us/cqfmeasures/StructureDefinition/cqfm-testCaseDescription","valueMarkdown":"Patient receives tPA in first encounter and antithrombotics in last 2 encounters. Testing to ensure medications without end dates do not interfere with encounters that follow. Executes as expected. \n"}],"modifierExtension":[{"url":"http://hl7.org/fhir/us/cqfmeasures/StructureDefinition/cqfm-isTestCase","valueBoolean":true}],"status":"complete","type":"individual","measure":"https://madie.cms.gov/Measure/AntithromboticTherapyByEndofHospitalDay2FHIR","period":{"start":"2025-01-01","end":"2025-12-31"},"group":[{"population":[{"code":{"coding":[{"system":"http://terminology.hl7.org/CodeSystem/measure-population","code":"initial-population","display":"Initial Population"}]},"count":3},{"code":{"coding":[{"system":"http://terminology.hl7.org/CodeSystem/measure-population","code":"denominator","display":"Denominator"}]},"count":3},{"code":{"coding":[{"system":"http://terminology.hl7.org/CodeSystem/measure-population","code":"denominator-exclusion","display":"Denominator Exclusion"}]},"count":1},{"code":{"coding":[{"system":"http://terminology.hl7.org/CodeSystem/measure-population","code":"numerator","display":"Numerator"}]},"count":2},{"code":{"coding":[{"system":"http://terminology.hl7.org/CodeSystem/measure-population","code":"denominator-exception","display":"Denominator Exception"}]},"count":0}]}]},"request":{"method":"PUT","url":"MeasureReport/4998020f-5a0a-4194-97f8-1c796936962e"}}]}