{"resourceType":"Bundle","id":"tests-96266910-a2b3-4294-9dc5-8a812622b70b-bundle","type":"transaction","entry":[{"fullUrl":"https://madie.cms.gov/Patient/96266910-a2b3-4294-9dc5-8a812622b70b","resource":{"resourceType":"Patient","id":"96266910-a2b3-4294-9dc5-8a812622b70b","meta":{"profile":["http://hl7.org/fhir/us/qicore/StructureDefinition/qicore-patient"]},"text":{"status":"generated","div":"<div xmlns=\"http://www.w3.org/1999/xhtml\"><div class=\"hapiHeaderText\">MedTPA&gt;EndIPEnd <b>DENEXFAIL </b></div><table class=\"hapiPropertyTable\"><tbody><tr><td>Identifier</td><td>ae500d350c70bd42ecd45e3b5b36ed31</td></tr><tr><td>Date of birth</td><td><span>26 September 1975</span></td></tr></tbody></table></div>"},"extension":[{"url":"http://hl7.org/fhir/us/core/StructureDefinition/us-core-race","extension":[{"url":"ombCategory","valueCoding":{"system":"urn:oid:2.16.840.1.113883.6.238","code":"2054-5","display":"Black or African American","userSelected":true}},{"url":"text","valueString":"Black or African American"}]},{"url":"http://hl7.org/fhir/us/core/StructureDefinition/us-core-ethnicity","extension":[{"url":"ombCategory","valueCoding":{"system":"urn:oid:2.16.840.1.113883.6.238","code":"2186-5","display":"Not Hispanic or Latino","userSelected":true}},{"url":"text","valueString":"Not Hispanic or Latino"}]}],"identifier":[{"type":{"coding":[{"system":"http://terminology.hl7.org/CodeSystem/v2-0203","code":"MR"}]},"system":"https://bonnie-fhir.healthit.gov/","value":"60f82c2e98086b570510e25f"}],"active":true,"name":[{"use":"usual","family":"DENEXFail","given":["MedTPA>EndIPEnd"]}],"gender":"female","birthDate":"1975-09-26"},"request":{"method":"PUT","url":"Patient/96266910-a2b3-4294-9dc5-8a812622b70b"}},{"fullUrl":"https://madie.cms.gov/Encounter/5c954892b848462de0ae61d3","resource":{"resourceType":"Encounter","id":"cc7a2a44-bf48-4737-bd47-9801e09bb2ac","meta":{"profile":["http://hl7.org/fhir/us/qicore/StructureDefinition/qicore-encounter"]},"status":"finished","class":{"system":"http://terminology.hl7.org/CodeSystem/v3-ActCode","code":"EMER","display":"emergency","userSelected":true},"type":[{"coding":[{"system":"http://snomed.info/sct","code":"4525004"}]}],"subject":{"reference":"Patient/96266910-a2b3-4294-9dc5-8a812622b70b"},"period":{"start":"2025-10-10T06:00:00+00:00","end":"2025-10-10T07:01:00+00:00"},"length":{"value":0,"unit":"days"}},"request":{"method":"PUT","url":"Encounter/cc7a2a44-bf48-4737-bd47-9801e09bb2ac"}},{"fullUrl":"https://madie.cms.gov/Encounter/5c954892b848462de0ae61d4","resource":{"resourceType":"Encounter","id":"8a42ad64-fea7-4199-be99-c106f9866d9e","meta":{"profile":["http://hl7.org/fhir/us/qicore/StructureDefinition/qicore-encounter"]},"status":"finished","class":{"system":"http://terminology.hl7.org/CodeSystem/v3-ActCode","code":"IMP","display":"inpatient encounter","userSelected":true},"type":[{"coding":[{"system":"http://snomed.info/sct","code":"32485007"}]}],"subject":{"reference":"Patient/96266910-a2b3-4294-9dc5-8a812622b70b"},"period":{"start":"2025-10-10T09:00:00+00:00","end":"2025-10-12T11:15:00+00:00"},"length":{"value":2,"unit":"days"},"diagnosis":[{"condition":{"reference":"Condition/ischemic-stroke-824a"},"use":{"coding":[{"system":"http://terminology.hl7.org/CodeSystem/diagnosis-role","code":"billing","display":"Billing"}]},"rank":1}]},"request":{"method":"PUT","url":"Encounter/8a42ad64-fea7-4199-be99-c106f9866d9e"}},{"fullUrl":"https://madie.cms.gov/MedicationAdministration/5c954892b848462de0ae61d6","resource":{"resourceType":"MedicationAdministration","id":"3a9204fb-4599-499a-92ed-35bfaa6dfe23","meta":{"profile":["http://hl7.org/fhir/us/qicore/StructureDefinition/qicore-medicationadministration"]},"status":"completed","medicationCodeableConcept":{"coding":[{"system":"http://www.nlm.nih.gov/research/umls/rxnorm","code":"1804799"}]},"subject":{"reference":"Patient/96266910-a2b3-4294-9dc5-8a812622b70b"},"effectivePeriod":{"start":"2025-10-12T11:16:00+00:00"}},"request":{"method":"PUT","url":"MedicationAdministration/3a9204fb-4599-499a-92ed-35bfaa6dfe23"}},{"fullUrl":"https://madie.cms.gov/Coverage/5e20a3671c76ba6c5896ebc2","resource":{"resourceType":"Coverage","id":"7f8e71b1-10e5-4b6d-a2e3-af9182fd6d56","status":"active","beneficiary":{"reference":"Patient/96266910-a2b3-4294-9dc5-8a812622b70b"},"period":{"start":"1975-09-26T08:00:00+00:00"},"payor":[{"reference":"Organization/77e4d06f-5e3c-436a-a598-80cefcca5028"}]},"request":{"method":"PUT","url":"Coverage/7f8e71b1-10e5-4b6d-a2e3-af9182fd6d56"}},{"fullUrl":"https://madie.cms.gov/Condition/ischemic-stroke-824a","resource":{"resourceType":"Condition","id":"cca72fb7-0666-4074-9d46-77ee9832ddf7","meta":{"profile":["http://hl7.org/fhir/us/qicore/StructureDefinition/qicore-condition"]},"clinicalStatus":{"coding":[{"system":"http://terminology.hl7.org/CodeSystem/condition-clinical","code":"active"}]},"verificationStatus":{"coding":[{"system":"http://terminology.hl7.org/CodeSystem/condition-ver-status","code":"confirmed"}]},"category":[{"coding":[{"system":"http://terminology.hl7.org/CodeSystem/condition-category","code":"encounter-diagnosis","display":"Encounter Diagnosis"}]}],"code":{"coding":[{"system":"http://snomed.info/sct","version":"2020-09","code":"111297002","display":"Nonparalytic stroke (disorder)","userSelected":true}]},"subject":{"reference":"Patient/96266910-a2b3-4294-9dc5-8a812622b70b"},"recordedDate":"2025-08-12T08:00:00.000+00:00"},"request":{"method":"PUT","url":"Condition/cca72fb7-0666-4074-9d46-77ee9832ddf7"}},{"fullUrl":"https://madie.cms.gov/Organization/123456","resource":{"resourceType":"Organization","id":"77e4d06f-5e3c-436a-a598-80cefcca5028","meta":{"profile":["http://hl7.org/fhir/us/qicore/StructureDefinition/qicore-organization"]},"identifier":[{"use":"temp","system":"urn:oid:2.16.840.1.113883.4.4","value":"21-3259825"}],"active":true,"type":[{"coding":[{"system":"http://terminology.hl7.org/CodeSystem/organization-type","code":"pay","display":"Payer"}]}],"name":"Blue Cross Blue Shield of Texas","telecom":[{"system":"phone","value":"(+1) 972-766-6900"}],"address":[{"use":"billing","type":"postal","line":["P.O. Box 660044"],"city":"Dallas","state":"TX","postalCode":"75266-0044","country":"USA"}]},"request":{"method":"PUT","url":"Organization/77e4d06f-5e3c-436a-a598-80cefcca5028"}},{"fullUrl":"https://madie.cms.gov/MeasureReport/b2e99761-072e-418e-87f0-e8fb9998cc82","resource":{"resourceType":"MeasureReport","id":"b2e99761-072e-418e-87f0-e8fb9998cc82","meta":{"profile":["http://hl7.org/fhir/us/cqfmeasures/StructureDefinition/test-case-cqfm"]},"contained":[{"resourceType":"Parameters","id":"c62af3e4-45e3-4af7-9cec-3ea0725b53c9-parameters","parameter":[{"name":"subject","valueString":"96266910-a2b3-4294-9dc5-8a812622b70b"}]}],"extension":[{"url":"http://hl7.org/fhir/us/cqfmeasures/StructureDefinition/cqfm-inputParameters","valueReference":{"reference":"#c62af3e4-45e3-4af7-9cec-3ea0725b53c9-parameters"}},{"url":"http://hl7.org/fhir/us/cqfmeasures/StructureDefinition/cqfm-testCaseDescription","valueMarkdown":"Patient receives TPA after end of IP encounter\n"}],"modifierExtension":[{"url":"http://hl7.org/fhir/us/cqfmeasures/StructureDefinition/cqfm-isTestCase","valueBoolean":true}],"status":"complete","type":"individual","measure":"https://madie.cms.gov/Measure/AntithromboticTherapyByEndofHospitalDay2FHIR","period":{"start":"2025-01-01","end":"2025-12-31"},"group":[{"population":[{"code":{"coding":[{"system":"http://terminology.hl7.org/CodeSystem/measure-population","code":"initial-population","display":"Initial Population"}]},"count":1},{"code":{"coding":[{"system":"http://terminology.hl7.org/CodeSystem/measure-population","code":"denominator","display":"Denominator"}]},"count":1},{"code":{"coding":[{"system":"http://terminology.hl7.org/CodeSystem/measure-population","code":"denominator-exclusion","display":"Denominator Exclusion"}]},"count":0},{"code":{"coding":[{"system":"http://terminology.hl7.org/CodeSystem/measure-population","code":"numerator","display":"Numerator"}]},"count":0},{"code":{"coding":[{"system":"http://terminology.hl7.org/CodeSystem/measure-population","code":"denominator-exception","display":"Denominator Exception"}]},"count":0}]}]},"request":{"method":"PUT","url":"MeasureReport/b2e99761-072e-418e-87f0-e8fb9998cc82"}}]}