{"resourceType":"Bundle","id":"tests-fed17706-6d92-4092-a9b1-9b7e47847f2a-bundle","type":"transaction","entry":[{"fullUrl":"https://madie.cms.gov/Patient/fed17706-6d92-4092-a9b1-9b7e47847f2a","resource":{"resourceType":"Patient","id":"fed17706-6d92-4092-a9b1-9b7e47847f2a","meta":{"profile":["http://hl7.org/fhir/us/qicore/StructureDefinition/qicore-patient"]},"text":{"status":"generated","div":"<div xmlns=\"http://www.w3.org/1999/xhtml\"><div class=\"hapiHeaderText\">Med1TPA=EdStart <b>DENEXPASS </b></div><table class=\"hapiPropertyTable\"><tbody><tr><td>Identifier</td><td>b9d60025f1579fc69f692d96d60444be</td></tr><tr><td>Date of birth</td><td><span>26 September 1975</span></td></tr></tbody></table></div>"},"extension":[{"url":"http://hl7.org/fhir/us/core/StructureDefinition/us-core-race","extension":[{"url":"ombCategory","valueCoding":{"system":"urn:oid:2.16.840.1.113883.6.238","code":"2054-5","display":"Black or African American","userSelected":true}},{"url":"text","valueString":"Black or African American"}]},{"url":"http://hl7.org/fhir/us/core/StructureDefinition/us-core-ethnicity","extension":[{"url":"ombCategory","valueCoding":{"system":"urn:oid:2.16.840.1.113883.6.238","code":"2186-5","display":"Not Hispanic or Latino","userSelected":true}},{"url":"text","valueString":"Not Hispanic or Latino"}]}],"identifier":[{"type":{"coding":[{"system":"http://terminology.hl7.org/CodeSystem/v2-0203","code":"MR"}]},"system":"https://bonnie-fhir.healthit.gov/","value":"60f82c2e98086b570510e284"}],"active":true,"name":[{"use":"usual","family":"DENEXPass","given":["Med1TPA=EdStart"]}],"gender":"female","birthDate":"1975-09-26"},"request":{"method":"PUT","url":"Patient/fed17706-6d92-4092-a9b1-9b7e47847f2a"}},{"fullUrl":"https://madie.cms.gov/Encounter/5c954893b848462de0ae624d","resource":{"resourceType":"Encounter","id":"c5525ef6-7cba-4fe9-b266-bca8906dfa9b","meta":{"profile":["http://hl7.org/fhir/us/qicore/StructureDefinition/qicore-encounter"]},"status":"finished","class":{"system":"http://terminology.hl7.org/CodeSystem/v3-ActCode","code":"EMER","display":"emergency"},"type":[{"coding":[{"system":"http://snomed.info/sct","code":"4525004"}]}],"subject":{"reference":"Patient/fed17706-6d92-4092-a9b1-9b7e47847f2a"},"period":{"start":"2025-10-10T06:00:00+00:00","end":"2025-10-10T08:30:00+00:00"},"length":{"value":0,"unit":"days"}},"request":{"method":"PUT","url":"Encounter/c5525ef6-7cba-4fe9-b266-bca8906dfa9b"}},{"fullUrl":"https://madie.cms.gov/Encounter/5c954893b848462de0ae624e","resource":{"resourceType":"Encounter","id":"9bb0a47b-ab09-4d6d-98a9-5345573fe6b5","meta":{"profile":["http://hl7.org/fhir/us/qicore/StructureDefinition/qicore-encounter"]},"status":"finished","class":{"system":"http://terminology.hl7.org/CodeSystem/v3-ActCode","code":"IMP","display":"inpatient encounter"},"type":[{"coding":[{"system":"http://snomed.info/sct","code":"32485007"}]}],"subject":{"reference":"Patient/fed17706-6d92-4092-a9b1-9b7e47847f2a"},"period":{"start":"2025-10-10T09:00:00+00:00","end":"2025-10-12T11:15:00+00:00"},"length":{"value":2,"unit":"days"},"diagnosis":[{"condition":{"reference":"Condition/ischemic-stroke-2d60"},"use":{"coding":[{"system":"http://terminology.hl7.org/CodeSystem/diagnosis-role","code":"billing","display":"Billing"}]},"rank":1}]},"request":{"method":"PUT","url":"Encounter/9bb0a47b-ab09-4d6d-98a9-5345573fe6b5"}},{"fullUrl":"https://madie.cms.gov/MedicationAdministration/5c954893b848462de0ae6250","resource":{"resourceType":"MedicationAdministration","id":"4d4d7518-5bf3-4d22-a419-99e4559f39aa","meta":{"profile":["http://hl7.org/fhir/us/qicore/StructureDefinition/qicore-medicationadministration"]},"status":"completed","medicationCodeableConcept":{"coding":[{"system":"http://www.nlm.nih.gov/research/umls/rxnorm","code":"1804799"}]},"subject":{"reference":"Patient/fed17706-6d92-4092-a9b1-9b7e47847f2a"},"effectivePeriod":{"start":"2025-10-10T06:00:00+00:00"}},"request":{"method":"PUT","url":"MedicationAdministration/4d4d7518-5bf3-4d22-a419-99e4559f39aa"}},{"fullUrl":"https://madie.cms.gov/Coverage/5e20a36c1c76ba6c5896ebe7","resource":{"resourceType":"Coverage","id":"8f806700-d6e3-4e31-8333-4a3f2a4f0a5b","status":"active","beneficiary":{"reference":"Patient/fed17706-6d92-4092-a9b1-9b7e47847f2a"},"period":{"start":"1975-09-26T08:00:00+00:00"},"payor":[{"reference":"Organization/4d7da20f-8773-4347-8f6b-80adcdcee1f4"}]},"request":{"method":"PUT","url":"Coverage/8f806700-d6e3-4e31-8333-4a3f2a4f0a5b"}},{"fullUrl":"https://madie.cms.gov/Condition/ischemic-stroke-2d60","resource":{"resourceType":"Condition","id":"154d1eb2-e044-440c-b9b6-05a4dfca8fba","meta":{"profile":["http://hl7.org/fhir/us/qicore/StructureDefinition/qicore-condition"]},"clinicalStatus":{"coding":[{"system":"http://terminology.hl7.org/CodeSystem/condition-clinical","code":"active"}]},"verificationStatus":{"coding":[{"system":"http://terminology.hl7.org/CodeSystem/condition-ver-status","code":"confirmed"}]},"category":[{"coding":[{"system":"http://terminology.hl7.org/CodeSystem/condition-category","code":"encounter-diagnosis","display":"Encounter Diagnosis"}]}],"code":{"coding":[{"system":"http://snomed.info/sct","version":"2020-09","code":"111297002","display":"Nonparalytic stroke (disorder)","userSelected":true}]},"subject":{"reference":"Patient/fed17706-6d92-4092-a9b1-9b7e47847f2a"},"recordedDate":"2025-08-13T08:00:00.000+00:00"},"request":{"method":"PUT","url":"Condition/154d1eb2-e044-440c-b9b6-05a4dfca8fba"}},{"fullUrl":"https://madie.cms.gov/Organization/123456","resource":{"resourceType":"Organization","id":"4d7da20f-8773-4347-8f6b-80adcdcee1f4","meta":{"profile":["http://hl7.org/fhir/us/qicore/StructureDefinition/qicore-organization"]},"identifier":[{"use":"temp","system":"urn:oid:2.16.840.1.113883.4.4","value":"21-3259825"}],"active":true,"type":[{"coding":[{"system":"http://terminology.hl7.org/CodeSystem/organization-type","code":"pay","display":"Payer"}]}],"name":"Blue Cross Blue Shield of Texas","telecom":[{"system":"phone","value":"(+1) 972-766-6900"}],"address":[{"use":"billing","type":"postal","line":["P.O. Box 660044"],"city":"Dallas","state":"TX","postalCode":"75266-0044","country":"USA"}]},"request":{"method":"PUT","url":"Organization/4d7da20f-8773-4347-8f6b-80adcdcee1f4"}},{"fullUrl":"https://madie.cms.gov/MeasureReport/8e8ad163-9cc5-4500-8d3a-ce1ec0ccfc44","resource":{"resourceType":"MeasureReport","id":"8e8ad163-9cc5-4500-8d3a-ce1ec0ccfc44","meta":{"profile":["http://hl7.org/fhir/us/cqfmeasures/StructureDefinition/test-case-cqfm"]},"contained":[{"resourceType":"Parameters","id":"3f687097-1a86-419b-b6e3-37436ab8c0a3-parameters","parameter":[{"name":"subject","valueString":"fed17706-6d92-4092-a9b1-9b7e47847f2a"}]}],"extension":[{"url":"http://hl7.org/fhir/us/cqfmeasures/StructureDefinition/cqfm-inputParameters","valueReference":{"reference":"#3f687097-1a86-419b-b6e3-37436ab8c0a3-parameters"}},{"url":"http://hl7.org/fhir/us/cqfmeasures/StructureDefinition/cqfm-testCaseDescription","valueMarkdown":"Patient has ED visit <=1hour before IP encounter AND receives TPA >24 hours before ED visit, global.\"Hospitalization\" =(Ed+IP)\n"}],"modifierExtension":[{"url":"http://hl7.org/fhir/us/cqfmeasures/StructureDefinition/cqfm-isTestCase","valueBoolean":true}],"status":"complete","type":"individual","measure":"https://madie.cms.gov/Measure/AntithromboticTherapyByEndofHospitalDay2FHIR","period":{"start":"2025-01-01","end":"2025-12-31"},"group":[{"population":[{"code":{"coding":[{"system":"http://terminology.hl7.org/CodeSystem/measure-population","code":"initial-population","display":"Initial Population"}]},"count":1},{"code":{"coding":[{"system":"http://terminology.hl7.org/CodeSystem/measure-population","code":"denominator","display":"Denominator"}]},"count":1},{"code":{"coding":[{"system":"http://terminology.hl7.org/CodeSystem/measure-population","code":"denominator-exclusion","display":"Denominator Exclusion"}]},"count":1},{"code":{"coding":[{"system":"http://terminology.hl7.org/CodeSystem/measure-population","code":"numerator","display":"Numerator"}]},"count":0},{"code":{"coding":[{"system":"http://terminology.hl7.org/CodeSystem/measure-population","code":"denominator-exception","display":"Denominator Exception"}]},"count":0}]}]},"request":{"method":"PUT","url":"MeasureReport/8e8ad163-9cc5-4500-8d3a-ce1ec0ccfc44"}}]}