{"resourceType":"Bundle","id":"tests-2dc3e469-a1c6-4419-aecc-72e75dc8507b-bundle","type":"transaction","entry":[{"fullUrl":"https://madie.cms.gov/Patient/2dc3e469-a1c6-4419-aecc-72e75dc8507b","resource":{"resourceType":"Patient","id":"2dc3e469-a1c6-4419-aecc-72e75dc8507b","meta":{"profile":["http://hl7.org/fhir/us/qicore/StructureDefinition/qicore-patient"]},"text":{"status":"generated","div":"<div xmlns=\"http://www.w3.org/1999/xhtml\"><div class=\"hapiHeaderText\">LCG3ENC <b>DENEXPASS3 </b></div><table class=\"hapiPropertyTable\"><tbody><tr><td>Date of birth</td><td><span>09 February 1949</span></td></tr></tbody></table></div>"},"extension":[{"url":"http://hl7.org/fhir/us/core/StructureDefinition/us-core-race","extension":[{"url":"ombCategory","valueCoding":{"system":"urn:oid:2.16.840.1.113883.6.238","code":"2106-3","display":"White","userSelected":true}},{"url":"text","valueString":"White"}]},{"url":"http://hl7.org/fhir/us/core/StructureDefinition/us-core-ethnicity","extension":[{"url":"ombCategory","valueCoding":{"system":"urn:oid:2.16.840.1.113883.6.238","code":"2186-5","display":"Not Hispanic or Latino","userSelected":true}},{"url":"text","valueString":"Not Hispanic or Latino"}]}],"identifier":[{"type":{"coding":[{"system":"http://terminology.hl7.org/CodeSystem/v2-0203","code":"MR"}]},"system":"https://bonnie-fhir.healthit.gov/","value":"60f82c3098086b570510e2ce"}],"active":true,"name":[{"use":"usual","family":"DENEXPass3","given":["LCG3ENC"]}],"gender":"male","birthDate":"1949-02-09"},"request":{"method":"PUT","url":"Patient/2dc3e469-a1c6-4419-aecc-72e75dc8507b"}},{"fullUrl":"https://madie.cms.gov/Condition/5e444de83afe5d000044c85a","resource":{"resourceType":"Condition","id":"58e67f3d-05ea-4772-bb7e-4c0d2af9954c","meta":{"profile":["http://hl7.org/fhir/us/qicore/StructureDefinition/qicore-condition"]},"clinicalStatus":{"coding":[{"system":"http://terminology.hl7.org/CodeSystem/condition-clinical","code":"inactive","display":"Inactive","userSelected":true}]},"verificationStatus":{"coding":[{"system":"http://terminology.hl7.org/CodeSystem/condition-ver-status","code":"confirmed","display":"confirmed","userSelected":true}]},"category":[{"coding":[{"system":"http://terminology.hl7.org/CodeSystem/condition-category","code":"encounter-diagnosis","display":"Encounter Diagnosis"}]}],"code":{"coding":[{"system":"http://hl7.org/fhir/sid/icd-10-cm","code":"Z92.82"}]},"subject":{"reference":"Patient/2dc3e469-a1c6-4419-aecc-72e75dc8507b"},"onsetDateTime":"2025-03-11T09:00:00+00:00","abatementDateTime":"2025-04-01T08:15:00+00:00","recordedDate":"2025-03-11T09:00:00+00:00"},"request":{"method":"PUT","url":"Condition/58e67f3d-05ea-4772-bb7e-4c0d2af9954c"}},{"fullUrl":"https://madie.cms.gov/Encounter/5e444b753afe5d000044c598","resource":{"resourceType":"Encounter","id":"f07066c1-1dfe-4327-b0c6-a021d3fbdf02","meta":{"profile":["http://hl7.org/fhir/us/qicore/StructureDefinition/qicore-encounter"]},"status":"finished","class":{"system":"http://terminology.hl7.org/CodeSystem/v3-ActCode","code":"EMER","display":"emergency"},"type":[{"coding":[{"system":"http://snomed.info/sct","code":"4525004"}]}],"subject":{"reference":"Patient/2dc3e469-a1c6-4419-aecc-72e75dc8507b"},"period":{"start":"2025-02-12T08:00:00+00:00","end":"2025-02-12T20:15:00+00:00"},"diagnosis":[{"condition":{"reference":"Condition/ischemic-stroke-7d3c"},"use":{"coding":[{"system":"http://snomed.info/sct","code":"52201006","display":"Internal capsule hemorrhage (disorder)"}]}}]},"request":{"method":"PUT","url":"Encounter/f07066c1-1dfe-4327-b0c6-a021d3fbdf02"}},{"fullUrl":"https://madie.cms.gov/Encounter/5e444bb53afe5d000044c5b7","resource":{"resourceType":"Encounter","id":"665ff50a-83c5-44bd-87f4-d41a5e261b98","meta":{"profile":["http://hl7.org/fhir/us/qicore/StructureDefinition/qicore-encounter"]},"status":"finished","class":{"system":"http://terminology.hl7.org/CodeSystem/v3-ActCode","code":"IMP","display":"inpatient encounter"},"type":[{"coding":[{"system":"http://snomed.info/sct","code":"183452005"}]}],"subject":{"reference":"Patient/2dc3e469-a1c6-4419-aecc-72e75dc8507b"},"period":{"start":"2025-03-01T05:00:00+00:00","end":"2025-03-01T11:15:00+00:00"},"diagnosis":[{"condition":{"reference":"Condition/ischemic-stroke-7d3a"},"use":{"coding":[{"system":"http://terminology.hl7.org/CodeSystem/diagnosis-role","code":"billing","display":"Billing"}]},"rank":1}]},"request":{"method":"PUT","url":"Encounter/665ff50a-83c5-44bd-87f4-d41a5e261b98"}},{"fullUrl":"https://madie.cms.gov/Encounter/5e444ccb3afe5d000044c65b","resource":{"resourceType":"Encounter","id":"fad3eab4-7b74-46ca-9190-d78048632a7b","meta":{"profile":["http://hl7.org/fhir/us/qicore/StructureDefinition/qicore-encounter"]},"status":"finished","class":{"system":"http://terminology.hl7.org/CodeSystem/v3-ActCode","code":"OBSENC","display":"observation encounter"},"type":[{"coding":[{"system":"http://snomed.info/sct","code":"448851000124103"}]}],"subject":{"reference":"Patient/2dc3e469-a1c6-4419-aecc-72e75dc8507b"},"period":{"start":"2025-03-01T13:00:00+00:00","end":"2025-03-01T23:15:00+00:00"}},"request":{"method":"PUT","url":"Encounter/fad3eab4-7b74-46ca-9190-d78048632a7b"}},{"fullUrl":"https://madie.cms.gov/Encounter/5e444ce03afe5d000044c684","resource":{"resourceType":"Encounter","id":"b8cd31db-0170-42e6-a2b1-e99ebac2a18f","meta":{"profile":["http://hl7.org/fhir/us/qicore/StructureDefinition/qicore-encounter"]},"status":"finished","class":{"system":"http://terminology.hl7.org/CodeSystem/v3-ActCode","code":"IMP","display":"inpatient encounter"},"type":[{"coding":[{"system":"http://snomed.info/sct","code":"183452005"}]}],"subject":{"reference":"Patient/2dc3e469-a1c6-4419-aecc-72e75dc8507b"},"period":{"start":"2025-03-02T13:00:00+00:00","end":"2025-03-09T11:15:00+00:00"},"diagnosis":[{"condition":{"reference":"Condition/ischemic-stroke-7d3b"}}]},"request":{"method":"PUT","url":"Encounter/b8cd31db-0170-42e6-a2b1-e99ebac2a18f"}},{"fullUrl":"https://madie.cms.gov/Encounter/5e444d2a3afe5d000044c6f1","resource":{"resourceType":"Encounter","id":"2f4212e8-96d0-4f4c-a985-67477d5f2a9e","meta":{"profile":["http://hl7.org/fhir/us/qicore/StructureDefinition/qicore-encounter"]},"status":"finished","class":{"system":"http://terminology.hl7.org/CodeSystem/v3-ActCode","code":"EMER","display":"emergency"},"type":[{"coding":[{"system":"http://snomed.info/sct","code":"4525004"}]}],"subject":{"reference":"Patient/2dc3e469-a1c6-4419-aecc-72e75dc8507b"},"period":{"start":"2025-03-11T08:00:00.000+00:00","end":"2025-03-11T08:15:00.000+00:00"},"diagnosis":[{"condition":{"reference":"Condition/ischemic-stroke-7d3c"},"use":{"coding":[{"system":"http://terminology.hl7.org/CodeSystem/diagnosis-role","code":"billing","display":"Billing"}]},"rank":1}]},"request":{"method":"PUT","url":"Encounter/2f4212e8-96d0-4f4c-a985-67477d5f2a9e"}},{"fullUrl":"https://madie.cms.gov/Encounter/5e444d703afe5d000044c78c","resource":{"resourceType":"Encounter","id":"3fadb578-05fc-44f3-b250-12632dfeaeeb","meta":{"profile":["http://hl7.org/fhir/us/qicore/StructureDefinition/qicore-encounter"]},"status":"finished","class":{"system":"http://terminology.hl7.org/CodeSystem/v3-ActCode","code":"IMP","display":"inpatient encounter"},"type":[{"coding":[{"system":"http://snomed.info/sct","code":"183452005"}]}],"subject":{"reference":"Patient/2dc3e469-a1c6-4419-aecc-72e75dc8507b"},"period":{"start":"2025-03-11T09:00:00+00:00","end":"2025-04-01T08:15:00+00:00"},"diagnosis":[{"condition":{"reference":"Condition/ischemic-stroke-7d3d"},"use":{"coding":[{"system":"http://terminology.hl7.org/CodeSystem/diagnosis-role","code":"billing","display":"Billing"}]},"rank":1}],"hospitalization":{"dischargeDisposition":{"coding":[{"system":"http://snomed.info/sct","code":"428371000124100","display":"Discharge to healthcare facility for hospice care (procedure)"}]}}},"request":{"method":"PUT","url":"Encounter/3fadb578-05fc-44f3-b250-12632dfeaeeb"}},{"fullUrl":"https://madie.cms.gov/Encounter/5e444e8c3afe5d000044c8f1","resource":{"resourceType":"Encounter","id":"0abf4b87-b703-4eb4-9f79-1593dfdf723f","meta":{"profile":["http://hl7.org/fhir/us/qicore/StructureDefinition/qicore-encounter"]},"status":"finished","class":{"system":"http://terminology.hl7.org/CodeSystem/v3-ActCode","code":"IMP","display":"inpatient encounter"},"type":[{"coding":[{"system":"http://snomed.info/sct","code":"183452005"}]}],"subject":{"reference":"Patient/2dc3e469-a1c6-4419-aecc-72e75dc8507b"},"period":{"start":"2025-04-02T08:00:00+00:00","end":"2025-04-02T08:15:00+00:00"},"diagnosis":[{"condition":{"reference":"Condition/ischemic-stroke-7d3c"},"use":{"coding":[{"system":"http://terminology.hl7.org/CodeSystem/diagnosis-role","code":"billing","display":"Billing"}]},"rank":1}]},"request":{"method":"PUT","url":"Encounter/0abf4b87-b703-4eb4-9f79-1593dfdf723f"}},{"fullUrl":"https://madie.cms.gov/ServiceRequest/5e444d1f3afe5d000044c6df","resource":{"resourceType":"ServiceRequest","id":"de496221-c991-4eaf-b7ed-9f103625b2e5","meta":{"profile":["http://hl7.org/fhir/us/qicore/StructureDefinition/qicore-servicerequest"]},"status":"active","intent":"order","code":{"coding":[{"system":"http://snomed.info/sct","code":"133918004"}]},"subject":{"reference":"Patient/2dc3e469-a1c6-4419-aecc-72e75dc8507b"},"authoredOn":"2025-03-02T13:00:00+00:00"},"request":{"method":"PUT","url":"ServiceRequest/de496221-c991-4eaf-b7ed-9f103625b2e5"}},{"fullUrl":"https://madie.cms.gov/Observation/5e444bf63afe5d000044c5f7","resource":{"resourceType":"Observation","id":"3b145861-33c9-4eb7-9c0d-fd4ac2ad3406","meta":{"profile":["http://hl7.org/fhir/us/qicore/StructureDefinition/qicore-observation"]},"status":"final","category":[{"coding":[{"system":"http://terminology.hl7.org/CodeSystem/observation-category","code":"laboratory","display":"Laboratory"}]}],"code":{"coding":[{"system":"http://loinc.org","code":"34714-6"}]},"subject":{"reference":"Patient/2dc3e469-a1c6-4419-aecc-72e75dc8507b"},"effectivePeriod":{"start":"2025-03-01T05:00:00+00:00","end":"2025-03-01T11:15:00+00:00"},"issued":"2025-03-01T05:00:00.000+00:00","valueQuantity":{"value":2.5}},"request":{"method":"PUT","url":"Observation/3b145861-33c9-4eb7-9c0d-fd4ac2ad3406"}},{"fullUrl":"https://madie.cms.gov/Observation/5e444dc33afe5d000044c832","resource":{"resourceType":"Observation","id":"e8d69b53-b29c-43f9-9fc0-3b2c70d1baea","meta":{"profile":["http://hl7.org/fhir/us/qicore/StructureDefinition/qicore-observation"]},"status":"final","category":[{"coding":[{"system":"http://terminology.hl7.org/CodeSystem/observation-category","code":"laboratory","display":"Laboratory"}]}],"code":{"coding":[{"system":"http://loinc.org","code":"34714-6"}]},"subject":{"reference":"Patient/2dc3e469-a1c6-4419-aecc-72e75dc8507b"},"effectivePeriod":{"start":"2025-03-11T09:00:00+00:00","end":"2025-04-01T08:15:00+00:00"},"issued":"2025-03-11T09:00:00.000+00:00","valueQuantity":{"value":3.3}},"request":{"method":"PUT","url":"Observation/e8d69b53-b29c-43f9-9fc0-3b2c70d1baea"}},{"fullUrl":"https://madie.cms.gov/Observation/5e444eb23afe5d000044c968","resource":{"resourceType":"Observation","id":"99d91c95-ca19-4a4f-ad2e-7f64f636f840","meta":{"profile":["http://hl7.org/fhir/us/qicore/StructureDefinition/qicore-observation"]},"status":"final","category":[{"coding":[{"system":"http://terminology.hl7.org/CodeSystem/observation-category","code":"laboratory","display":"Laboratory"}]}],"code":{"coding":[{"system":"http://loinc.org","code":"34714-6"}]},"subject":{"reference":"Patient/2dc3e469-a1c6-4419-aecc-72e75dc8507b"},"effectivePeriod":{"start":"2025-04-02T08:00:00+00:00","end":"2025-04-02T08:15:00+00:00"},"issued":"2025-04-02T08:00:00.000+00:00","valueQuantity":{"value":3.49}},"request":{"method":"PUT","url":"Observation/99d91c95-ca19-4a4f-ad2e-7f64f636f840"}},{"fullUrl":"https://madie.cms.gov/MedicationAdministration/5e444c933afe5d000044c61a","resource":{"resourceType":"MedicationAdministration","id":"f110c529-cec2-464a-8df2-d9ab31a98a2d","meta":{"profile":["http://hl7.org/fhir/us/qicore/StructureDefinition/qicore-medicationadministration"]},"extension":[{"url":"http://hl7.org/fhir/us/qicore/StructureDefinition/qicore-recorded","valueDateTime":"2025-03-01T05:00:00+00:00"}],"status":"completed","medicationCodeableConcept":{"coding":[{"system":"http://www.nlm.nih.gov/research/umls/rxnorm","code":"1804799"}]},"subject":{"reference":"Patient/2dc3e469-a1c6-4419-aecc-72e75dc8507b"},"effectivePeriod":{"start":"2025-03-01T05:00:00+00:00","end":"2025-03-01T11:15:00+00:00"}},"request":{"method":"PUT","url":"MedicationAdministration/f110c529-cec2-464a-8df2-d9ab31a98a2d"}},{"fullUrl":"https://madie.cms.gov/MedicationAdministration/5e444cfe3afe5d000044c6ce","resource":{"resourceType":"MedicationAdministration","id":"772b2909-2f21-49e9-b4dd-68de027df329","meta":{"profile":["http://hl7.org/fhir/us/qicore/StructureDefinition/qicore-medicationadministration"]},"extension":[{"url":"http://hl7.org/fhir/us/qicore/StructureDefinition/qicore-recorded","valueDateTime":"2025-03-02T13:00:00+00:00"}],"status":"completed","medicationCodeableConcept":{"coding":[{"system":"http://www.nlm.nih.gov/research/umls/rxnorm","code":"1037045"}]},"subject":{"reference":"Patient/2dc3e469-a1c6-4419-aecc-72e75dc8507b"},"effectivePeriod":{"start":"2025-03-02T13:00:00+00:00","end":"2025-03-02T23:15:00+00:00"}},"request":{"method":"PUT","url":"MedicationAdministration/772b2909-2f21-49e9-b4dd-68de027df329"}},{"fullUrl":"https://madie.cms.gov/MedicationAdministration/5e444df03afe5d000044c886","resource":{"resourceType":"MedicationAdministration","id":"4be091c8-50fd-4951-a57b-113e14bb20c4","meta":{"profile":["http://hl7.org/fhir/us/qicore/StructureDefinition/qicore-medicationadministration"]},"extension":[{"url":"http://hl7.org/fhir/us/qicore/StructureDefinition/qicore-recorded","valueDateTime":"2025-03-11T09:00:00+00:00"}],"status":"completed","medicationCodeableConcept":{"coding":[{"system":"http://www.nlm.nih.gov/research/umls/rxnorm","code":"1037045"}]},"subject":{"reference":"Patient/2dc3e469-a1c6-4419-aecc-72e75dc8507b"},"effectivePeriod":{"start":"2025-03-11T09:00:00+00:00","end":"2025-04-01T08:15:00+00:00"}},"request":{"method":"PUT","url":"MedicationAdministration/4be091c8-50fd-4951-a57b-113e14bb20c4"}},{"fullUrl":"https://madie.cms.gov/MedicationAdministration/5e444ed13afe5d000044c998","resource":{"resourceType":"MedicationAdministration","id":"e1463dc7-58c1-4a43-ab53-ca4a7abd4234","meta":{"profile":["http://hl7.org/fhir/us/qicore/StructureDefinition/qicore-medicationadministration"]},"extension":[{"url":"http://hl7.org/fhir/us/qicore/StructureDefinition/qicore-recorded","valueDateTime":"2025-04-02T08:00:00+00:00"}],"status":"not-done","statusReason":[{"coding":[{"system":"http://snomed.info/sct","code":"105480006","display":"Refusal of treatment by patient (situation)"}]}],"medicationCodeableConcept":{"coding":[{"system":"http://www.nlm.nih.gov/research/umls/rxnorm","code":"1116635"}]},"subject":{"reference":"Patient/2dc3e469-a1c6-4419-aecc-72e75dc8507b"},"effectivePeriod":{"start":"2025-04-02T08:00:00+00:00","end":"2025-04-02T08:15:00+00:00"}},"request":{"method":"PUT","url":"MedicationAdministration/e1463dc7-58c1-4a43-ab53-ca4a7abd4234"}},{"fullUrl":"https://madie.cms.gov/MedicationAdministration/5e444eff3afe5d000044ca5e","resource":{"resourceType":"MedicationAdministration","id":"798057d9-67d7-4344-a909-4f0679b1fb17","meta":{"profile":["http://hl7.org/fhir/us/qicore/StructureDefinition/qicore-medicationadministration"]},"extension":[{"url":"http://hl7.org/fhir/us/qicore/StructureDefinition/qicore-recorded","valueDateTime":"2025-04-02T08:00:00+00:00"}],"status":"completed","medicationCodeableConcept":{"coding":[{"system":"http://www.nlm.nih.gov/research/umls/rxnorm","code":"1037045"}]},"subject":{"reference":"Patient/2dc3e469-a1c6-4419-aecc-72e75dc8507b"},"effectivePeriod":{"start":"2025-04-02T08:00:00+00:00","end":"2025-04-02T08:15:00+00:00"}},"request":{"method":"PUT","url":"MedicationAdministration/798057d9-67d7-4344-a909-4f0679b1fb17"}},{"fullUrl":"https://madie.cms.gov/MedicationRequest/5e444cfb3afe5d000044c6be","resource":{"resourceType":"MedicationRequest","id":"876c72e6-1a8e-495b-adc4-089a12f18f5b","meta":{"profile":["http://hl7.org/fhir/us/qicore/StructureDefinition/qicore-medicationrequest"]},"status":"completed","intent":"order","medicationCodeableConcept":{"coding":[{"system":"http://www.nlm.nih.gov/research/umls/rxnorm","code":"1037045"}]},"subject":{"reference":"Patient/2dc3e469-a1c6-4419-aecc-72e75dc8507b"},"authoredOn":"2025-03-02T08:00:00+00:00","requester":{"reference":"Practitioner/example"},"dosageInstruction":[{"timing":{"repeat":{"boundsPeriod":{"start":"2025-03-02T13:00:00+00:00","end":"2025-03-02T23:15:00+00:00"}}}}]},"request":{"method":"PUT","url":"MedicationRequest/876c72e6-1a8e-495b-adc4-089a12f18f5b"}},{"fullUrl":"https://madie.cms.gov/MedicationRequest/5e444ded3afe5d000044c870","resource":{"resourceType":"MedicationRequest","id":"f1544623-e7e1-4014-bf72-1da8161694ec","meta":{"profile":["http://hl7.org/fhir/us/qicore/StructureDefinition/qicore-medicationrequest"]},"status":"completed","intent":"order","medicationCodeableConcept":{"coding":[{"system":"http://www.nlm.nih.gov/research/umls/rxnorm","code":"1037045"}]},"subject":{"reference":"Patient/2dc3e469-a1c6-4419-aecc-72e75dc8507b"},"authoredOn":"2025-03-11T09:00:00+00:00","requester":{"reference":"Practitioner/example"},"dosageInstruction":[{"timing":{"repeat":{"boundsPeriod":{"start":"2025-03-11T09:00:00+00:00","end":"2025-04-01T08:15:00+00:00"}}}}]},"request":{"method":"PUT","url":"MedicationRequest/f1544623-e7e1-4014-bf72-1da8161694ec"}},{"fullUrl":"https://madie.cms.gov/MedicationRequest/5e444eed3afe5d000044c9fa","resource":{"resourceType":"MedicationRequest","id":"56a9f46a-98c9-43ce-976a-f1620a24967f","meta":{"profile":["http://hl7.org/fhir/us/qicore/StructureDefinition/qicore-medicationrequest"]},"status":"active","intent":"order","medicationCodeableConcept":{"coding":[{"system":"http://www.nlm.nih.gov/research/umls/rxnorm","code":"1037045"}]},"subject":{"reference":"Patient/2dc3e469-a1c6-4419-aecc-72e75dc8507b"},"authoredOn":"2025-04-02T08:00:00+00:00","requester":{"reference":"Practitioner/example"},"dosageInstruction":[{"timing":{"repeat":{"boundsPeriod":{"start":"2025-04-02T08:00:00+00:00","end":"2025-04-02T08:15:00+00:00"}}}}]},"request":{"method":"PUT","url":"MedicationRequest/56a9f46a-98c9-43ce-976a-f1620a24967f"}},{"fullUrl":"https://madie.cms.gov/Condition/ischemic-stroke-7d3a","resource":{"resourceType":"Condition","id":"1edd0637-92e7-44e5-ab3b-afc3cdbfa987","meta":{"profile":["http://hl7.org/fhir/us/qicore/StructureDefinition/qicore-condition"]},"clinicalStatus":{"coding":[{"system":"http://terminology.hl7.org/CodeSystem/condition-clinical","code":"active"}]},"verificationStatus":{"coding":[{"system":"http://terminology.hl7.org/CodeSystem/condition-ver-status","code":"confirmed"}]},"category":[{"coding":[{"system":"http://terminology.hl7.org/CodeSystem/condition-category","code":"encounter-diagnosis","display":"Encounter Diagnosis"}]}],"code":{"coding":[{"system":"http://snomed.info/sct","version":"2020-09","code":"111297002","display":"Nonparalytic stroke (disorder)","userSelected":true}]},"subject":{"reference":"Patient/2dc3e469-a1c6-4419-aecc-72e75dc8507b"},"recordedDate":"2025-08-16T08:00:00.000+00:00"},"request":{"method":"PUT","url":"Condition/1edd0637-92e7-44e5-ab3b-afc3cdbfa987"}},{"fullUrl":"https://madie.cms.gov/Condition/ischemic-stroke-7d3b","resource":{"resourceType":"Condition","id":"c4f4d574-c1a9-4a17-be0d-02e796abb10b","meta":{"profile":["http://hl7.org/fhir/us/qicore/StructureDefinition/qicore-condition"]},"clinicalStatus":{"coding":[{"system":"http://terminology.hl7.org/CodeSystem/condition-clinical","code":"active"}]},"verificationStatus":{"coding":[{"system":"http://terminology.hl7.org/CodeSystem/condition-ver-status","code":"confirmed"}]},"category":[{"coding":[{"system":"http://terminology.hl7.org/CodeSystem/condition-category","code":"encounter-diagnosis","display":"Encounter Diagnosis"}]}],"code":{"coding":[{"system":"http://snomed.info/sct","version":"2020-09","code":"111297002","display":"Nonparalytic stroke (disorder)","userSelected":true}]},"subject":{"reference":"Patient/2dc3e469-a1c6-4419-aecc-72e75dc8507b"},"recordedDate":"2025-08-16T08:00:00.000+00:00"},"request":{"method":"PUT","url":"Condition/c4f4d574-c1a9-4a17-be0d-02e796abb10b"}},{"fullUrl":"https://madie.cms.gov/Condition/ischemic-stroke-7d3c","resource":{"resourceType":"Condition","id":"2e5a6d74-76e2-4711-9624-190ed3c9106f","meta":{"profile":["http://hl7.org/fhir/us/qicore/StructureDefinition/qicore-condition"]},"clinicalStatus":{"coding":[{"system":"http://terminology.hl7.org/CodeSystem/condition-clinical","code":"active"}]},"verificationStatus":{"coding":[{"system":"http://terminology.hl7.org/CodeSystem/condition-ver-status","code":"confirmed"}]},"category":[{"coding":[{"system":"http://terminology.hl7.org/CodeSystem/condition-category","code":"encounter-diagnosis","display":"Encounter Diagnosis"}]}],"code":{"coding":[{"system":"http://snomed.info/sct","version":"2020-09","code":"111297002","display":"Nonparalytic stroke (disorder)","userSelected":true}]},"subject":{"reference":"Patient/2dc3e469-a1c6-4419-aecc-72e75dc8507b"},"recordedDate":"2025-08-16T08:00:00.000+00:00"},"request":{"method":"PUT","url":"Condition/2e5a6d74-76e2-4711-9624-190ed3c9106f"}},{"fullUrl":"https://madie.cms.gov/Condition/ischemic-stroke-7d3d","resource":{"resourceType":"Condition","id":"6f9f0d91-79be-46fa-9696-375bc3f7cec0","meta":{"profile":["http://hl7.org/fhir/us/qicore/StructureDefinition/qicore-condition"]},"clinicalStatus":{"coding":[{"system":"http://terminology.hl7.org/CodeSystem/condition-clinical","code":"active"}]},"verificationStatus":{"coding":[{"system":"http://terminology.hl7.org/CodeSystem/condition-ver-status","code":"confirmed"}]},"category":[{"coding":[{"system":"http://terminology.hl7.org/CodeSystem/condition-category","code":"encounter-diagnosis","display":"Encounter Diagnosis"}]}],"code":{"coding":[{"system":"http://snomed.info/sct","version":"2020-09","code":"111297002","display":"Nonparalytic stroke (disorder)","userSelected":true}]},"subject":{"reference":"Patient/2dc3e469-a1c6-4419-aecc-72e75dc8507b"},"recordedDate":"2025-08-16T08:00:00.000+00:00"},"request":{"method":"PUT","url":"Condition/6f9f0d91-79be-46fa-9696-375bc3f7cec0"}},{"fullUrl":"https://madie.cms.gov/Coverage/1","resource":{"resourceType":"Coverage","id":"848872f5-b475-452a-95ea-7cbde3a1a076","meta":{"profile":["http://hl7.org/fhir/us/qicore/StructureDefinition/qicore-coverage"]},"status":"active","beneficiary":{"reference":"Patient/2dc3e469-a1c6-4419-aecc-72e75dc8507b"},"payor":[{"reference":"Organization/ec8cac12-7dd8-4c6e-8c44-d6c645085c80"}]},"request":{"method":"PUT","url":"Coverage/848872f5-b475-452a-95ea-7cbde3a1a076"}},{"fullUrl":"https://madie.cms.gov/Organization/123456","resource":{"resourceType":"Organization","id":"ec8cac12-7dd8-4c6e-8c44-d6c645085c80","meta":{"profile":["http://hl7.org/fhir/us/qicore/StructureDefinition/qicore-organization"]},"identifier":[{"use":"temp","system":"urn:oid:2.16.840.1.113883.4.4","value":"21-3259825"}],"active":true,"type":[{"coding":[{"system":"http://terminology.hl7.org/CodeSystem/organization-type","code":"pay","display":"Payer"}]}],"name":"Blue Cross Blue Shield of Texas","telecom":[{"system":"phone","value":"(+1) 972-766-6900"}],"address":[{"use":"billing","type":"postal","line":["P.O. Box 660044"],"city":"Dallas","state":"TX","postalCode":"75266-0044","country":"USA"}]},"request":{"method":"PUT","url":"Organization/ec8cac12-7dd8-4c6e-8c44-d6c645085c80"}},{"fullUrl":"https://madie.cms.gov/Practitioner/practitioner-123456","resource":{"resourceType":"Practitioner","id":"11334972-05d9-4b76-a157-a8fb76e7e430","identifier":[{"system":"http://hl7.org/fhir/sid/us-npi","value":"123456"}],"name":[{"family":"Evil","prefix":["Dr"]}]},"request":{"method":"PUT","url":"Practitioner/11334972-05d9-4b76-a157-a8fb76e7e430"}},{"fullUrl":"https://madie.cms.gov/MeasureReport/4af14141-5817-4dff-b34d-b427371c6a34","resource":{"resourceType":"MeasureReport","id":"4af14141-5817-4dff-b34d-b427371c6a34","meta":{"profile":["http://hl7.org/fhir/us/cqfmeasures/StructureDefinition/test-case-cqfm"]},"contained":[{"resourceType":"Parameters","id":"4e29d532-ea53-450e-9a8c-b96832ebd170-parameters","parameter":[{"name":"subject","valueString":"2dc3e469-a1c6-4419-aecc-72e75dc8507b"}]}],"extension":[{"url":"http://hl7.org/fhir/us/cqfmeasures/StructureDefinition/cqfm-inputParameters","valueReference":{"reference":"#4e29d532-ea53-450e-9a8c-b96832ebd170-parameters"}},{"url":"http://hl7.org/fhir/us/cqfmeasures/StructureDefinition/cqfm-testCaseDescription","valueMarkdown":"Multiple encounter testing\n"}],"modifierExtension":[{"url":"http://hl7.org/fhir/us/cqfmeasures/StructureDefinition/cqfm-isTestCase","valueBoolean":true}],"status":"complete","type":"individual","measure":"https://madie.cms.gov/Measure/AntithromboticTherapyByEndofHospitalDay2FHIR","period":{"start":"2025-01-01","end":"2025-12-31"},"group":[{"population":[{"code":{"coding":[{"system":"http://terminology.hl7.org/CodeSystem/measure-population","code":"initial-population","display":"Initial Population"}]},"count":3},{"code":{"coding":[{"system":"http://terminology.hl7.org/CodeSystem/measure-population","code":"denominator","display":"Denominator"}]},"count":3},{"code":{"coding":[{"system":"http://terminology.hl7.org/CodeSystem/measure-population","code":"denominator-exclusion","display":"Denominator Exclusion"}]},"count":2},{"code":{"coding":[{"system":"http://terminology.hl7.org/CodeSystem/measure-population","code":"numerator","display":"Numerator"}]},"count":1},{"code":{"coding":[{"system":"http://terminology.hl7.org/CodeSystem/measure-population","code":"denominator-exception","display":"Denominator Exception"}]},"count":0}]}]},"request":{"method":"PUT","url":"MeasureReport/4af14141-5817-4dff-b34d-b427371c6a34"}}]}