{"resourceType":"Bundle","id":"tests-ff9913bf-ff27-4b92-b28c-d3eda9866d2f-bundle","type":"transaction","entry":[{"fullUrl":"https://madie.cms.gov/Patient/ff9913bf-ff27-4b92-b28c-d3eda9866d2f","resource":{"resourceType":"Patient","id":"ff9913bf-ff27-4b92-b28c-d3eda9866d2f","meta":{"profile":["http://hl7.org/fhir/us/qicore/StructureDefinition/qicore-patient"]},"extension":[{"url":"http://hl7.org/fhir/us/core/StructureDefinition/us-core-race","extension":[{"url":"ombCategory","valueCoding":{"system":"urn:oid:2.16.840.1.113883.6.238","code":"2076-8","display":"Native Hawaiian or Other Pacific Islander","userSelected":true}},{"url":"text","valueString":"Native Hawaiian or Other Pacific Islander"}]},{"url":"http://hl7.org/fhir/us/core/StructureDefinition/us-core-ethnicity","extension":[{"url":"ombCategory","valueCoding":{"system":"urn:oid:2.16.840.1.113883.6.238","code":"2186-5","display":"Not Hispanic or Latino","userSelected":true}},{"url":"text","valueString":"Not Hispanic or Latino"}]}],"identifier":[{"type":{"coding":[{"system":"http://terminology.hl7.org/CodeSystem/v2-0203","code":"MR"}]},"system":"https://bonnie-fhir.healthit.gov/","value":"6179e214e2011aa9929f330e"}],"name":[{"family":"DenExcl1Fail","given":["DxExclStartsBeforeEndsDuringED"]}],"gender":"female","birthDate":"1984-12-02"},"request":{"method":"PUT","url":"Patient/ff9913bf-ff27-4b92-b28c-d3eda9866d2f"}},{"fullUrl":"https://madie.cms.gov/Encounter/emergency-department-visit-330a","resource":{"resourceType":"Encounter","id":"emergency-department-visit-330a","meta":{"profile":["http://hl7.org/fhir/us/qicore/StructureDefinition/qicore-encounter"]},"status":"finished","class":{"system":"http://terminology.hl7.org/CodeSystem/v3-ActCode","code":"EMER","display":"emergency","userSelected":true},"type":[{"coding":[{"system":"http://snomed.info/sct","version":"2020-09","code":"4525004","display":"Emergency department patient visit (procedure)","userSelected":true}]}],"subject":{"reference":"Patient/ff9913bf-ff27-4b92-b28c-d3eda9866d2f"},"period":{"start":"2025-10-09T08:05:00.000+00:00","end":"2025-10-10T07:15:00.000+00:00"}},"request":{"method":"PUT","url":"Encounter/emergency-department-visit-330a"}},{"fullUrl":"https://madie.cms.gov/Condition/stemi-330b","resource":{"resourceType":"Condition","id":"stemi-330b","meta":{"profile":["http://hl7.org/fhir/us/qicore/StructureDefinition/qicore-condition"]},"clinicalStatus":{"coding":[{"system":"http://terminology.hl7.org/CodeSystem/condition-clinical","code":"active","display":"active","userSelected":true}]},"category":[{"coding":[{"system":"http://terminology.hl7.org/CodeSystem/condition-category","code":"encounter-diagnosis","display":"Encounter Diagnosis","userSelected":true}]}],"code":{"coding":[{"system":"http://snomed.info/sct","version":"2020-09","code":"401303003","display":"Acute ST segment elevation myocardial infarction (disorder)","userSelected":true}]},"subject":{"reference":"Patient/ff9913bf-ff27-4b92-b28c-d3eda9866d2f"},"onsetDateTime":"2025-10-09T08:30:00.000+00:00"},"request":{"method":"PUT","url":"Condition/stemi-330b"}},{"fullUrl":"https://madie.cms.gov/Condition/neurologic-impairment-330c","resource":{"resourceType":"Condition","id":"neurologic-impairment-330c","meta":{"profile":["http://hl7.org/fhir/us/qicore/StructureDefinition/qicore-condition"]},"clinicalStatus":{"coding":[{"system":"http://terminology.hl7.org/CodeSystem/condition-clinical","version":"4.0.1","code":"inactive","display":"Inactive","userSelected":true}]},"category":[{"coding":[{"system":"http://terminology.hl7.org/CodeSystem/condition-category","code":"encounter-diagnosis","display":"Encounter Diagnosis","userSelected":true}]}],"code":{"coding":[{"system":"http://snomed.info/sct","version":"2020-09","code":"111633007","display":"Open fracture of sacrum AND/OR coccyx with complete cauda equina lesion (disorder)","userSelected":true}]},"subject":{"reference":"Patient/ff9913bf-ff27-4b92-b28c-d3eda9866d2f"},"onsetDateTime":"2025-01-08T08:00:00.000+00:00","abatementDateTime":"2025-10-09T15:15:00.000+00:00"},"request":{"method":"PUT","url":"Condition/neurologic-impairment-330c"}},{"fullUrl":"https://madie.cms.gov/MeasureReport/2f8a5ab7-5582-412a-8b7d-19b76a54c074","resource":{"resourceType":"MeasureReport","id":"2f8a5ab7-5582-412a-8b7d-19b76a54c074","meta":{"profile":["http://hl7.org/fhir/us/cqfmeasures/StructureDefinition/test-case-cqfm"]},"contained":[{"resourceType":"Parameters","id":"59cfb315-e658-4041-81d0-5fb464b2caf7-parameters","parameter":[{"name":"subject","valueString":"ff9913bf-ff27-4b92-b28c-d3eda9866d2f"}]}],"extension":[{"url":"http://hl7.org/fhir/us/cqfmeasures/StructureDefinition/cqfm-inputParameters","valueReference":{"reference":"#59cfb315-e658-4041-81d0-5fb464b2caf7-parameters"}},{"url":"http://hl7.org/fhir/us/cqfmeasures/StructureDefinition/cqfm-testCaseDescription","valueMarkdown":"Patient has Neurologic Impairment (exclusion diagnosis) that starts before ED encounter and ends during ED"}],"modifierExtension":[{"url":"http://hl7.org/fhir/us/cqfmeasures/StructureDefinition/cqfm-isTestCase","valueBoolean":true}],"status":"complete","type":"individual","measure":"https://madie.cms.gov/Measure/AppropriateTreatmentforSTEMIFHIR","period":{"start":"2025-01-01","end":"2025-12-31"},"group":[{"population":[{"code":{"coding":[{"system":"http://terminology.hl7.org/CodeSystem/measure-population","code":"initial-population","display":"Initial Population"}]},"count":1},{"code":{"coding":[{"system":"http://terminology.hl7.org/CodeSystem/measure-population","code":"denominator","display":"Denominator"}]},"count":1},{"code":{"coding":[{"system":"http://terminology.hl7.org/CodeSystem/measure-population","code":"denominator-exclusion","display":"Denominator Exclusion"}]},"count":0},{"code":{"coding":[{"system":"http://terminology.hl7.org/CodeSystem/measure-population","code":"numerator","display":"Numerator"}]},"count":0}]}],"evaluatedResource":[{"reference":"Patient/ff9913bf-ff27-4b92-b28c-d3eda9866d2f"},{"reference":"Encounter/emergency-department-visit-330a"},{"reference":"Condition/stemi-330b"},{"reference":"Condition/neurologic-impairment-330c"}]},"request":{"method":"PUT","url":"MeasureReport/2f8a5ab7-5582-412a-8b7d-19b76a54c074"}}]}