{"resourceType":"Bundle","id":"tests-2930f2ff-3263-4a82-9abe-468b39c142b0-bundle","type":"transaction","entry":[{"fullUrl":"https://madie.cms.gov/Patient/2930f2ff-3263-4a82-9abe-468b39c142b0","resource":{"resourceType":"Patient","id":"2930f2ff-3263-4a82-9abe-468b39c142b0","meta":{"profile":["http://hl7.org/fhir/us/qicore/StructureDefinition/qicore-patient"]},"extension":[{"url":"http://hl7.org/fhir/us/core/StructureDefinition/us-core-race","extension":[{"url":"ombCategory","valueCoding":{"system":"urn:oid:2.16.840.1.113883.6.238","code":"2028-9","display":"Asian","userSelected":true}},{"url":"text","valueString":"Asian"}]},{"url":"http://hl7.org/fhir/us/core/StructureDefinition/us-core-ethnicity","extension":[{"url":"ombCategory","valueCoding":{"system":"urn:oid:2.16.840.1.113883.6.238","code":"2135-2","display":"Hispanic or Latino","userSelected":true}},{"url":"text","valueString":"Hispanic or Latino"}]}],"identifier":[{"type":{"coding":[{"system":"http://terminology.hl7.org/CodeSystem/v2-0203","code":"MR"}]},"system":"https://bonnie-fhir.healthit.gov/","value":"6179ebc6ad1a790b7af75255"}],"name":[{"family":"DenExcl2Pass","given":["PxExclStartsDuringEndsDuringEDrelevantDatetime"]}],"gender":"female","birthDate":"1984-12-02"},"request":{"method":"PUT","url":"Patient/2930f2ff-3263-4a82-9abe-468b39c142b0"}},{"fullUrl":"https://madie.cms.gov/Encounter/emergency-department-visit-330a","resource":{"resourceType":"Encounter","id":"emergency-department-visit-330a","meta":{"profile":["http://hl7.org/fhir/us/qicore/StructureDefinition/qicore-encounter"]},"status":"finished","class":{"system":"http://terminology.hl7.org/CodeSystem/v3-ActCode","code":"EMER","display":"emergency","userSelected":true},"type":[{"coding":[{"system":"http://snomed.info/sct","version":"2020-09","code":"4525004","display":"Emergency department patient visit (procedure)","userSelected":true}]}],"subject":{"reference":"Patient/2930f2ff-3263-4a82-9abe-468b39c142b0"},"period":{"start":"2025-10-09T08:05:00.000+00:00","end":"2025-10-10T07:15:00.000+00:00"}},"request":{"method":"PUT","url":"Encounter/emergency-department-visit-330a"}},{"fullUrl":"https://madie.cms.gov/Condition/stemi-330b","resource":{"resourceType":"Condition","id":"stemi-330b","meta":{"profile":["http://hl7.org/fhir/us/qicore/StructureDefinition/qicore-condition"]},"clinicalStatus":{"coding":[{"system":"http://terminology.hl7.org/CodeSystem/condition-clinical","code":"active","display":"active","userSelected":true}]},"category":[{"coding":[{"system":"http://terminology.hl7.org/CodeSystem/condition-category","code":"encounter-diagnosis","display":"Encounter Diagnosis","userSelected":true}]}],"code":{"coding":[{"system":"http://snomed.info/sct","version":"2020-09","code":"401303003","display":"Acute ST segment elevation myocardial infarction (disorder)","userSelected":true}]},"subject":{"reference":"Patient/2930f2ff-3263-4a82-9abe-468b39c142b0"},"onsetDateTime":"2025-10-09T08:30:00.000+00:00"},"request":{"method":"PUT","url":"Condition/stemi-330b"}},{"fullUrl":"https://madie.cms.gov/Procedure/endotracheal-intubation-524f","resource":{"resourceType":"Procedure","id":"endotracheal-intubation-524f","meta":{"profile":["http://hl7.org/fhir/us/qicore/StructureDefinition/qicore-procedure"]},"extension":[{"url":"http://hl7.org/fhir/us/qicore/StructureDefinition/qicore-recorded","valueDateTime":"2025-10-09T13:15:00.000+00:00"}],"status":"completed","category":{"coding":[{"system":"http://snomed.info/sct","code":"387713003","display":"Surgical procedure","userSelected":true}]},"code":{"coding":[{"system":"http://www.cms.gov/Medicare/Coding/ICD10","code":"5A1935Z","userSelected":true}]},"subject":{"reference":"Patient/2930f2ff-3263-4a82-9abe-468b39c142b0"},"performedDateTime":"2025-10-09T13:15:00.000+00:00"},"request":{"method":"PUT","url":"Procedure/endotracheal-intubation-524f"}},{"fullUrl":"https://madie.cms.gov/MeasureReport/7a0be72f-ea50-48d1-95e9-09121fee896c","resource":{"resourceType":"MeasureReport","id":"7a0be72f-ea50-48d1-95e9-09121fee896c","meta":{"profile":["http://hl7.org/fhir/us/cqfmeasures/StructureDefinition/test-case-cqfm"]},"contained":[{"resourceType":"Parameters","id":"4121a12a-126e-4e23-88f9-a07ba546f464-parameters","parameter":[{"name":"subject","valueString":"2930f2ff-3263-4a82-9abe-468b39c142b0"}]}],"extension":[{"url":"http://hl7.org/fhir/us/cqfmeasures/StructureDefinition/cqfm-inputParameters","valueReference":{"reference":"#4121a12a-126e-4e23-88f9-a07ba546f464-parameters"}},{"url":"http://hl7.org/fhir/us/cqfmeasures/StructureDefinition/cqfm-testCaseDescription","valueMarkdown":"Patient has endotracheal intubation (exclusion procedure) that starts during and ends during the ED encounter - using relevantDatetime"}],"modifierExtension":[{"url":"http://hl7.org/fhir/us/cqfmeasures/StructureDefinition/cqfm-isTestCase","valueBoolean":true}],"status":"complete","type":"individual","measure":"https://madie.cms.gov/Measure/AppropriateTreatmentforSTEMIFHIR","period":{"start":"2025-01-01","end":"2025-12-31"},"group":[{"population":[{"code":{"coding":[{"system":"http://terminology.hl7.org/CodeSystem/measure-population","code":"initial-population","display":"Initial Population"}]},"count":1},{"code":{"coding":[{"system":"http://terminology.hl7.org/CodeSystem/measure-population","code":"denominator","display":"Denominator"}]},"count":1},{"code":{"coding":[{"system":"http://terminology.hl7.org/CodeSystem/measure-population","code":"denominator-exclusion","display":"Denominator Exclusion"}]},"count":1},{"code":{"coding":[{"system":"http://terminology.hl7.org/CodeSystem/measure-population","code":"numerator","display":"Numerator"}]},"count":0}]}],"evaluatedResource":[{"reference":"Patient/2930f2ff-3263-4a82-9abe-468b39c142b0"},{"reference":"Encounter/emergency-department-visit-330a"},{"reference":"Condition/stemi-330b"},{"reference":"Procedure/endotracheal-intubation-524f"}]},"request":{"method":"PUT","url":"MeasureReport/7a0be72f-ea50-48d1-95e9-09121fee896c"}}]}