{"resourceType":"Bundle","id":"tests-816296ad-a84a-48a9-89e4-38817c7e0c8b-bundle","type":"transaction","entry":[{"fullUrl":"https://madie.cms.gov/Patient/816296ad-a84a-48a9-89e4-38817c7e0c8b","resource":{"resourceType":"Patient","id":"816296ad-a84a-48a9-89e4-38817c7e0c8b","meta":{"profile":["http://hl7.org/fhir/us/qicore/StructureDefinition/qicore-patient"]},"extension":[{"url":"http://hl7.org/fhir/us/core/StructureDefinition/us-core-race","extension":[{"url":"ombCategory","valueCoding":{"system":"urn:oid:2.16.840.1.113883.6.238","code":"2076-8","display":"Native Hawaiian or Other Pacific Islander","userSelected":true}},{"url":"text","valueString":"Native Hawaiian or Other Pacific Islander"}]},{"url":"http://hl7.org/fhir/us/core/StructureDefinition/us-core-ethnicity","extension":[{"url":"ombCategory","valueCoding":{"system":"urn:oid:2.16.840.1.113883.6.238","code":"2186-5","display":"Not Hispanic or Latino","userSelected":true}},{"url":"text","valueString":"Not Hispanic or Latino"}]}],"identifier":[{"type":{"coding":[{"system":"http://terminology.hl7.org/CodeSystem/v2-0203","code":"MR"}]},"system":"https://bonnie-fhir.healthit.gov/","value":"66328b236cea4124ba3e75a7"}],"name":[{"family":"DenExcl7Pass","given":["DxStartsDuring90DayPeriodNoAbatementCardiac"]}],"gender":"female","birthDate":"1984-12-02"},"request":{"method":"PUT","url":"Patient/816296ad-a84a-48a9-89e4-38817c7e0c8b"}},{"fullUrl":"https://madie.cms.gov/Encounter/emergency-department-visit-330a","resource":{"resourceType":"Encounter","id":"5bc8a304-124f-4a56-9591-5922c9073f65","meta":{"profile":["http://hl7.org/fhir/us/qicore/StructureDefinition/qicore-encounter"]},"status":"finished","class":{"system":"http://terminology.hl7.org/CodeSystem/v3-ActCode","code":"EMER","display":"emergency","userSelected":true},"type":[{"coding":[{"system":"http://snomed.info/sct","version":"2020-09","code":"4525004","display":"Emergency department patient visit (procedure)","userSelected":true}]}],"subject":{"reference":"Patient/816296ad-a84a-48a9-89e4-38817c7e0c8b"},"period":{"start":"2025-10-09T08:05:00.000+00:00","end":"2025-10-10T07:15:00.000+00:00"}},"request":{"method":"PUT","url":"Encounter/5bc8a304-124f-4a56-9591-5922c9073f65"}},{"fullUrl":"https://madie.cms.gov/Condition/stemi-330b","resource":{"resourceType":"Condition","id":"14b07be0-249a-45d1-805c-ee9dcba0220e","meta":{"profile":["http://hl7.org/fhir/us/qicore/StructureDefinition/qicore-condition"]},"clinicalStatus":{"coding":[{"system":"http://terminology.hl7.org/CodeSystem/condition-clinical","code":"active","display":"active","userSelected":true}]},"category":[{"coding":[{"system":"http://terminology.hl7.org/CodeSystem/condition-category","code":"encounter-diagnosis","display":"Encounter Diagnosis","userSelected":true}]}],"code":{"coding":[{"system":"http://snomed.info/sct","version":"2020-09","code":"401303003","display":"Acute ST segment elevation myocardial infarction (disorder)","userSelected":true}]},"subject":{"reference":"Patient/816296ad-a84a-48a9-89e4-38817c7e0c8b"},"onsetDateTime":"2025-10-09T08:30:00.000+00:00"},"request":{"method":"PUT","url":"Condition/14b07be0-249a-45d1-805c-ee9dcba0220e"}},{"fullUrl":"https://madie.cms.gov/Condition/cardiopulmonary-arrest-75a8","resource":{"resourceType":"Condition","id":"9f3709b0-b2ac-4570-8094-a658f37773c2","meta":{"profile":["http://hl7.org/fhir/us/qicore/StructureDefinition/qicore-condition"]},"clinicalStatus":{"coding":[{"system":"http://terminology.hl7.org/CodeSystem/condition-clinical","code":"active","display":"active","userSelected":true}]},"category":[{"coding":[{"system":"http://terminology.hl7.org/CodeSystem/condition-category","code":"problem-list-item","display":"Problem List Item","userSelected":true}]}],"code":{"coding":[{"system":"http://snomed.info/sct","version":"2020-09","code":"405806007","display":"On examination - collapse -cardiac arrest (disorder)","userSelected":true}]},"subject":{"reference":"Patient/816296ad-a84a-48a9-89e4-38817c7e0c8b"},"onsetDateTime":"2025-10-09T06:00:00.000+00:00"},"request":{"method":"PUT","url":"Condition/9f3709b0-b2ac-4570-8094-a658f37773c2"}},{"fullUrl":"https://madie.cms.gov/Coverage/1","resource":{"resourceType":"Coverage","id":"80b635c9-3f9e-46ad-bf4a-4706e457b0a2","meta":{"profile":["http://hl7.org/fhir/us/qicore/StructureDefinition/qicore-coverage"]},"status":"active","beneficiary":{"reference":"Patient/816296ad-a84a-48a9-89e4-38817c7e0c8b"},"payor":[{"reference":"Organization/41c75c00-82d9-4ab2-98f6-cfaf7fc3381d"}]},"request":{"method":"PUT","url":"Coverage/80b635c9-3f9e-46ad-bf4a-4706e457b0a2"}},{"fullUrl":"https://madie.cms.gov/Organization/123456","resource":{"resourceType":"Organization","id":"41c75c00-82d9-4ab2-98f6-cfaf7fc3381d","meta":{"profile":["http://hl7.org/fhir/us/qicore/StructureDefinition/qicore-organization"]},"identifier":[{"use":"temp","system":"urn:oid:2.16.840.1.113883.4.4","value":"21-3259825"}],"active":true,"type":[{"coding":[{"system":"http://terminology.hl7.org/CodeSystem/organization-type","code":"pay","display":"Payer"}]}],"name":"Blue Cross Blue Shield of Texas","telecom":[{"system":"phone","value":"(+1) 972-766-6900"}],"address":[{"use":"billing","type":"postal","line":["P.O. Box 660044"],"city":"Dallas","state":"TX","postalCode":"75266-0044","country":"USA"}]},"request":{"method":"PUT","url":"Organization/41c75c00-82d9-4ab2-98f6-cfaf7fc3381d"}},{"fullUrl":"https://madie.cms.gov/Practitioner/practitioner-123456","resource":{"resourceType":"Practitioner","id":"dc20dc74-5bac-4847-9717-b675a65079ee","meta":{"profile":["http://hl7.org/fhir/us/qicore/StructureDefinition/qicore-practitioner"]},"identifier":[{"system":"http://hl7.org/fhir/sid/us-npi","value":"123456"}],"name":[{"family":"Evil","prefix":["Dr"]}]},"request":{"method":"PUT","url":"Practitioner/dc20dc74-5bac-4847-9717-b675a65079ee"}},{"fullUrl":"https://madie.cms.gov/MeasureReport/e0b54214-e297-4b14-9adc-4741a256c8a2","resource":{"resourceType":"MeasureReport","id":"e0b54214-e297-4b14-9adc-4741a256c8a2","meta":{"profile":["http://hl7.org/fhir/us/cqfmeasures/StructureDefinition/test-case-cqfm"]},"contained":[{"resourceType":"Parameters","id":"f14adbd1-d4a7-4586-9fcc-216560a1f58f-parameters","parameter":[{"name":"subject","valueString":"816296ad-a84a-48a9-89e4-38817c7e0c8b"}]}],"extension":[{"url":"http://hl7.org/fhir/us/cqfmeasures/StructureDefinition/cqfm-inputParameters","valueReference":{"reference":"#f14adbd1-d4a7-4586-9fcc-216560a1f58f-parameters"}},{"url":"http://hl7.org/fhir/us/cqfmeasures/StructureDefinition/cqfm-testCaseDescription","valueMarkdown":"Patient has STEMI diagnosis during ED Encounter with Cardiopulmonary arrest diagnosis within 90 days before and no abatement."}],"modifierExtension":[{"url":"http://hl7.org/fhir/us/cqfmeasures/StructureDefinition/cqfm-isTestCase","valueBoolean":true}],"status":"complete","type":"individual","measure":"https://madie.cms.gov/Measure/AppropriateTreatmentforSTEMIFHIR","period":{"start":"2025-01-01","end":"2025-12-31"},"group":[{"population":[{"code":{"coding":[{"system":"http://terminology.hl7.org/CodeSystem/measure-population","code":"initial-population","display":"Initial Population"}]},"count":1},{"code":{"coding":[{"system":"http://terminology.hl7.org/CodeSystem/measure-population","code":"denominator","display":"Denominator"}]},"count":1},{"code":{"coding":[{"system":"http://terminology.hl7.org/CodeSystem/measure-population","code":"denominator-exclusion","display":"Denominator Exclusion"}]},"count":1},{"code":{"coding":[{"system":"http://terminology.hl7.org/CodeSystem/measure-population","code":"numerator","display":"Numerator"}]},"count":0},{"code":{"coding":[{"system":"http://terminology.hl7.org/CodeSystem/measure-population","code":"denominator-exception","display":"Denominator Exception"}]},"count":0}]}]},"request":{"method":"PUT","url":"MeasureReport/e0b54214-e297-4b14-9adc-4741a256c8a2"}}]}