{"resourceType":"Bundle","id":"tests-6cda22cb-072b-4c1c-a6e4-f8e5a277d2ce-bundle","type":"transaction","entry":[{"fullUrl":"https://madie.cms.gov/Patient/6cda22cb-072b-4c1c-a6e4-f8e5a277d2ce","resource":{"resourceType":"Patient","id":"6cda22cb-072b-4c1c-a6e4-f8e5a277d2ce","meta":{"profile":["http://hl7.org/fhir/us/qicore/StructureDefinition/qicore-patient"]},"extension":[{"url":"http://hl7.org/fhir/us/core/StructureDefinition/us-core-race","extension":[{"url":"ombCategory","valueCoding":{"system":"urn:oid:2.16.840.1.113883.6.238","code":"2106-3","display":"White","userSelected":true}},{"url":"text","valueString":"White"}]},{"url":"http://hl7.org/fhir/us/core/StructureDefinition/us-core-ethnicity","extension":[{"url":"ombCategory","valueCoding":{"system":"urn:oid:2.16.840.1.113883.6.238","code":"2135-2","display":"Hispanic or Latino","userSelected":true}},{"url":"text","valueString":"Hispanic or Latino"}]}],"identifier":[{"type":{"coding":[{"system":"http://terminology.hl7.org/CodeSystem/v2-0203","code":"MR"}]},"system":"https://bonnie-fhir.healthit.gov/","value":"617826514bf8e25b8f204e13"}],"name":[{"family":"NumPass","given":["PCI90minstartrelevantPeriod"]}],"gender":"female","birthDate":"1984-12-02"},"request":{"method":"PUT","url":"Patient/6cda22cb-072b-4c1c-a6e4-f8e5a277d2ce"}},{"fullUrl":"https://madie.cms.gov/Encounter/emergency-department-visit-4e14","resource":{"resourceType":"Encounter","id":"987e62df-6d55-4444-a410-a782cfc1c2e7","meta":{"profile":["http://hl7.org/fhir/us/qicore/StructureDefinition/qicore-encounter"]},"status":"finished","class":{"system":"http://terminology.hl7.org/CodeSystem/v3-ActCode","code":"EMER","display":"emergency","userSelected":true},"type":[{"coding":[{"system":"http://snomed.info/sct","version":"2020-09","code":"4525004","display":"Emergency department patient visit (procedure)","userSelected":true}]}],"subject":{"reference":"Patient/6cda22cb-072b-4c1c-a6e4-f8e5a277d2ce"},"period":{"start":"2025-10-09T08:05:00.000+00:00","end":"2025-10-10T07:15:00.000+00:00"},"reasonReference":[{"reference":"Condition/NUMERPass-Fibrinolytic30minofEDstart385d-05"}],"diagnosis":[{"condition":{"reference":"Condition/stemi-4e15"}}],"location":[{"location":{"reference":"Location/Location-4e15"},"period":{"start":"2025-10-09T08:07:00.000+00:00","end":"2025-10-10T07:13:00.000+00:00"}}]},"request":{"method":"PUT","url":"Encounter/987e62df-6d55-4444-a410-a782cfc1c2e7"}},{"fullUrl":"https://madie.cms.gov/Location/Location-4e15","resource":{"resourceType":"Location","id":"dfa2d05e-c692-45be-9d58-bb604cba95d0","meta":{"profile":["http://hl7.org/fhir/us/qicore/StructureDefinition/qicore-location"]},"identifier":[{"use":"usual","system":"http://exampleoflocation.com","value":"ED-1.R3"}],"name":"Emergency Department, first floor","type":[{"coding":[{"system":"http://snomed.info/sct","version":"20210611","code":"4525004","display":"Emergency department patient visit (procedure)","userSelected":true}]},{"coding":[{"system":"http://terminology.hl7.org/CodeSystem/v3-RoleCode","version":"2019","code":"ER","display":"Emergency room","userSelected":true}]},{"coding":[{"system":"http://cts.nlm.nih.gov/fhir/CodeSystem/hsloc","version":"2022","code":"1108-0","display":"Emergency Department","userSelected":true}]}]},"request":{"method":"PUT","url":"Location/dfa2d05e-c692-45be-9d58-bb604cba95d0"}},{"fullUrl":"https://madie.cms.gov/Condition/stemi-4e15","resource":{"resourceType":"Condition","id":"1d96da37-1fa2-4cf8-b416-a05e39ca72c1","meta":{"profile":["http://hl7.org/fhir/us/qicore/StructureDefinition/qicore-condition"]},"clinicalStatus":{"coding":[{"system":"http://terminology.hl7.org/CodeSystem/condition-clinical","code":"active","display":"active","userSelected":true}]},"category":[{"coding":[{"system":"http://terminology.hl7.org/CodeSystem/condition-category","code":"encounter-diagnosis","display":"Encounter Diagnosis","userSelected":true}]}],"code":{"coding":[{"system":"http://snomed.info/sct","version":"2020-09","code":"401303003","display":"Acute ST segment elevation myocardial infarction (disorder)","userSelected":true}]},"subject":{"reference":"Patient/6cda22cb-072b-4c1c-a6e4-f8e5a277d2ce"},"recordedDate":"2025-10-26T08:00:00.000+00:00"},"request":{"method":"PUT","url":"Condition/1d96da37-1fa2-4cf8-b416-a05e39ca72c1"}},{"fullUrl":"https://madie.cms.gov/Procedure/percutaneous-coronary-intervention-4e16","resource":{"resourceType":"Procedure","id":"b6ba9e0c-4666-4145-81f0-fb0f82ec755d","meta":{"profile":["http://hl7.org/fhir/us/qicore/StructureDefinition/qicore-procedure"]},"extension":[{"url":"http://hl7.org/fhir/us/qicore/StructureDefinition/qicore-recorded","valueDateTime":"2025-10-09T12:15:00.000+00:00"}],"status":"completed","code":{"coding":[{"system":"http://www.cms.gov/Medicare/Coding/ICD10","version":"2021","code":"0270346","display":"Dilation of Coronary Artery, One Artery, Bifurcation, with Drug-eluting Intraluminal Device, Percutaneous Approach","userSelected":true}]},"subject":{"reference":"Patient/6cda22cb-072b-4c1c-a6e4-f8e5a277d2ce"},"performedPeriod":{"start":"2025-10-09T09:30:00.000+00:00","end":"2025-10-09T12:15:00.000+00:00"}},"request":{"method":"PUT","url":"Procedure/b6ba9e0c-4666-4145-81f0-fb0f82ec755d"}},{"fullUrl":"https://madie.cms.gov/MeasureReport/5b6eb215-5cbb-4fb8-97c1-ea63eddfafef","resource":{"resourceType":"MeasureReport","id":"5b6eb215-5cbb-4fb8-97c1-ea63eddfafef","meta":{"profile":["http://hl7.org/fhir/us/cqfmeasures/StructureDefinition/test-case-cqfm"]},"contained":[{"resourceType":"Parameters","id":"1bd097b6-1396-44ed-879e-45343210054d-parameters","parameter":[{"name":"subject","valueString":"6cda22cb-072b-4c1c-a6e4-f8e5a277d2ce"}]}],"extension":[{"url":"http://hl7.org/fhir/us/cqfmeasures/StructureDefinition/cqfm-inputParameters","valueReference":{"reference":"#1bd097b6-1396-44ed-879e-45343210054d-parameters"}},{"url":"http://hl7.org/fhir/us/cqfmeasures/StructureDefinition/cqfm-testCaseDescription","valueMarkdown":"PCI 90 minutes of start of ED"}],"modifierExtension":[{"url":"http://hl7.org/fhir/us/cqfmeasures/StructureDefinition/cqfm-isTestCase","valueBoolean":true}],"status":"complete","type":"individual","measure":"https://madie.cms.gov/Measure/AppropriateTreatmentforSTEMIFHIR","period":{"start":"2025-01-01","end":"2025-12-31"},"group":[{"population":[{"code":{"coding":[{"system":"http://terminology.hl7.org/CodeSystem/measure-population","code":"initial-population","display":"Initial Population"}]},"count":1},{"code":{"coding":[{"system":"http://terminology.hl7.org/CodeSystem/measure-population","code":"denominator","display":"Denominator"}]},"count":1},{"code":{"coding":[{"system":"http://terminology.hl7.org/CodeSystem/measure-population","code":"denominator-exclusion","display":"Denominator Exclusion"}]},"count":0},{"code":{"coding":[{"system":"http://terminology.hl7.org/CodeSystem/measure-population","code":"numerator","display":"Numerator"}]},"count":1},{"code":{"coding":[{"system":"http://terminology.hl7.org/CodeSystem/measure-population","code":"denominator-exception","display":"Denominator Exception"}]},"count":0}]}]},"request":{"method":"PUT","url":"MeasureReport/5b6eb215-5cbb-4fb8-97c1-ea63eddfafef"}}]}