{"resourceType":"Bundle","id":"tests-ff9913bf-ff27-4b92-b28c-d3eda9866d2f-bundle","type":"transaction","entry":[{"fullUrl":"https://madie.cms.gov/Patient/ff9913bf-ff27-4b92-b28c-d3eda9866d2f","resource":{"resourceType":"Patient","id":"ff9913bf-ff27-4b92-b28c-d3eda9866d2f","meta":{"profile":["http://hl7.org/fhir/us/qicore/StructureDefinition/qicore-patient"]},"extension":[{"url":"http://hl7.org/fhir/us/core/StructureDefinition/us-core-race","extension":[{"url":"ombCategory","valueCoding":{"system":"urn:oid:2.16.840.1.113883.6.238","code":"2076-8","display":"Native Hawaiian or Other Pacific Islander","userSelected":true}},{"url":"text","valueString":"Native Hawaiian or Other Pacific Islander"}]},{"url":"http://hl7.org/fhir/us/core/StructureDefinition/us-core-ethnicity","extension":[{"url":"ombCategory","valueCoding":{"system":"urn:oid:2.16.840.1.113883.6.238","code":"2186-5","display":"Not Hispanic or Latino","userSelected":true}},{"url":"text","valueString":"Not Hispanic or Latino"}]}],"identifier":[{"type":{"coding":[{"system":"http://terminology.hl7.org/CodeSystem/v2-0203","code":"MR"}]},"system":"https://bonnie-fhir.healthit.gov/","value":"6179e214e2011aa9929f330e"}],"name":[{"family":"DenExcl1Fail","given":["DxExclStartsBeforeEndsDuringED"]}],"gender":"female","birthDate":"1984-12-02"},"request":{"method":"PUT","url":"Patient/ff9913bf-ff27-4b92-b28c-d3eda9866d2f"}},{"fullUrl":"https://madie.cms.gov/Encounter/emergency-department-visit-330a","resource":{"resourceType":"Encounter","id":"e4c0c9e0-f193-43e2-84aa-d8fc261cbba6","meta":{"profile":["http://hl7.org/fhir/us/qicore/StructureDefinition/qicore-encounter"]},"status":"finished","class":{"system":"http://terminology.hl7.org/CodeSystem/v3-ActCode","code":"EMER","display":"emergency","userSelected":true},"type":[{"coding":[{"system":"http://snomed.info/sct","version":"2020-09","code":"4525004","display":"Emergency department patient visit (procedure)","userSelected":true}]}],"subject":{"reference":"Patient/ff9913bf-ff27-4b92-b28c-d3eda9866d2f"},"period":{"start":"2025-10-09T08:05:00.000+00:00","end":"2025-10-10T07:15:00.000+00:00"}},"request":{"method":"PUT","url":"Encounter/e4c0c9e0-f193-43e2-84aa-d8fc261cbba6"}},{"fullUrl":"https://madie.cms.gov/Organization/Organization-2","resource":{"resourceType":"Organization","id":"f6075515-d38f-4624-bde8-a1ce20473a69","meta":{"profile":["http://hl7.org/fhir/us/qicore/StructureDefinition/qicore-organization"]},"identifier":[{"use":"temp","system":"urn:oid:2.16.840.1.113883.4.336","value":"APayer"}],"active":true,"type":[{"coding":[{"system":"http://terminology.hl7.org/CodeSystem/organization-type","code":"pay","display":"Payer"}],"text":"Healthcare Payer"}],"name":"Test Medical Center","telecom":[{"system":"phone","value":"(+1) 800-123-4567"},{"system":"email","value":"mypayer@test.org"}],"address":[{"line":["600 Maple Avenue"],"city":"Indianapolis","state":"IN","postalCode":"46237","country":"USA"}]},"request":{"method":"PUT","url":"Organization/f6075515-d38f-4624-bde8-a1ce20473a69"}},{"fullUrl":"https://madie.cms.gov/Coverage/Coverage-1","resource":{"resourceType":"Coverage","id":"a19383ec-1723-4665-b15d-d95d6f6ddd7a","meta":{"profile":["http://hl7.org/fhir/us/qicore/StructureDefinition/qicore-coverage"]},"identifier":[{"system":"http://benefitsinc.com/certificate","value":"12345"}],"status":"active","type":{"coding":[{"system":"https://nahdo.org/sopt","code":"59","display":"Other Private Insurance"}]},"policyHolder":{"reference":"Patient/ff9913bf-ff27-4b92-b28c-d3eda9866d2f"},"subscriber":{"reference":"Patient/ff9913bf-ff27-4b92-b28c-d3eda9866d2f"},"beneficiary":{"reference":"Patient/ff9913bf-ff27-4b92-b28c-d3eda9866d2f"},"dependent":"0","relationship":{"coding":[{"system":"http://terminology.hl7.org/CodeSystem/subscriber-relationship","code":"self"}]},"period":{"start":"2022-01-01T06:00:00.000Z","end":"2026-01-01T11:06:01.000Z"},"payor":[{"reference":"Organization/f6075515-d38f-4624-bde8-a1ce20473a69"}],"order":9},"request":{"method":"PUT","url":"Coverage/a19383ec-1723-4665-b15d-d95d6f6ddd7a"}},{"fullUrl":"https://madie.cms.gov/Condition/stemi-330b","resource":{"resourceType":"Condition","id":"f5ec785d-a975-47e3-93b8-87e51662c72e","meta":{"profile":["http://hl7.org/fhir/us/qicore/StructureDefinition/qicore-condition"]},"clinicalStatus":{"coding":[{"system":"http://terminology.hl7.org/CodeSystem/condition-clinical","code":"active","display":"active","userSelected":true}]},"category":[{"coding":[{"system":"http://terminology.hl7.org/CodeSystem/condition-category","code":"encounter-diagnosis","display":"Encounter Diagnosis","userSelected":true}]}],"code":{"coding":[{"system":"http://snomed.info/sct","version":"2020-09","code":"401303003","display":"Acute ST segment elevation myocardial infarction (disorder)","userSelected":true}]},"subject":{"reference":"Patient/ff9913bf-ff27-4b92-b28c-d3eda9866d2f"},"onsetDateTime":"2025-10-09T08:30:00.000+00:00"},"request":{"method":"PUT","url":"Condition/f5ec785d-a975-47e3-93b8-87e51662c72e"}},{"fullUrl":"https://madie.cms.gov/Condition/neurologic-impairment-330c","resource":{"resourceType":"Condition","id":"0b5fc4ac-911d-4908-bbe1-9115764b1953","meta":{"profile":["http://hl7.org/fhir/us/qicore/StructureDefinition/qicore-condition"]},"clinicalStatus":{"coding":[{"system":"http://terminology.hl7.org/CodeSystem/condition-clinical","version":"4.0.1","code":"inactive","display":"Inactive","userSelected":true}]},"category":[{"coding":[{"system":"http://terminology.hl7.org/CodeSystem/condition-category","code":"encounter-diagnosis","display":"Encounter Diagnosis","userSelected":true}]}],"code":{"coding":[{"system":"http://snomed.info/sct","version":"2020-09","code":"111633007","display":"Open fracture of sacrum AND/OR coccyx with complete cauda equina lesion (disorder)","userSelected":true}]},"subject":{"reference":"Patient/ff9913bf-ff27-4b92-b28c-d3eda9866d2f"},"onsetDateTime":"2025-01-08T08:00:00.000+00:00","abatementDateTime":"2025-10-09T15:15:00.000+00:00"},"request":{"method":"PUT","url":"Condition/0b5fc4ac-911d-4908-bbe1-9115764b1953"}},{"fullUrl":"https://madie.cms.gov/MeasureReport/ff4b43ef-48d4-4eab-8cc1-b1b606be6152","resource":{"resourceType":"MeasureReport","id":"ff4b43ef-48d4-4eab-8cc1-b1b606be6152","meta":{"profile":["http://hl7.org/fhir/us/cqfmeasures/StructureDefinition/test-case-cqfm"]},"contained":[{"resourceType":"Parameters","id":"8f8da8bf-1f80-4eb2-961a-d60d87542c85-parameters","parameter":[{"name":"subject","valueString":"ff9913bf-ff27-4b92-b28c-d3eda9866d2f"}]}],"extension":[{"url":"http://hl7.org/fhir/us/cqfmeasures/StructureDefinition/cqfm-inputParameters","valueReference":{"reference":"#8f8da8bf-1f80-4eb2-961a-d60d87542c85-parameters"}},{"url":"http://hl7.org/fhir/us/cqfmeasures/StructureDefinition/cqfm-testCaseDescription","valueMarkdown":"Patient has Neurologic Impairment (exclusion diagnosis) that starts before ED encounter and ends during ED"}],"modifierExtension":[{"url":"http://hl7.org/fhir/us/cqfmeasures/StructureDefinition/cqfm-isTestCase","valueBoolean":true}],"status":"complete","type":"individual","measure":"https://madie.cms.gov/Measure/AppropriateTreatmentforSTEMIFHIR","period":{"start":"2025-01-01","end":"2025-12-31"},"group":[{"population":[{"code":{"coding":[{"system":"http://terminology.hl7.org/CodeSystem/measure-population","code":"initial-population","display":"Initial Population"}]},"count":1},{"code":{"coding":[{"system":"http://terminology.hl7.org/CodeSystem/measure-population","code":"denominator","display":"Denominator"}]},"count":1},{"code":{"coding":[{"system":"http://terminology.hl7.org/CodeSystem/measure-population","code":"denominator-exclusion","display":"Denominator Exclusion"}]},"count":0},{"code":{"coding":[{"system":"http://terminology.hl7.org/CodeSystem/measure-population","code":"numerator","display":"Numerator"}]},"count":0},{"code":{"coding":[{"system":"http://terminology.hl7.org/CodeSystem/measure-population","code":"denominator-exception","display":"Denominator Exception"}]},"count":0}]}]},"request":{"method":"PUT","url":"MeasureReport/ff4b43ef-48d4-4eab-8cc1-b1b606be6152"}}]}