{"resourceType":"Bundle","id":"tests-0c9d7ae1-4643-4c50-bc48-0274a3f2d234-bundle","type":"transaction","entry":[{"fullUrl":"https://madie.cms.gov/Patient/0c9d7ae1-4643-4c50-bc48-0274a3f2d234","resource":{"resourceType":"Patient","id":"0c9d7ae1-4643-4c50-bc48-0274a3f2d234","meta":{"profile":["http://hl7.org/fhir/us/qicore/StructureDefinition/qicore-patient"]},"extension":[{"url":"http://hl7.org/fhir/us/core/StructureDefinition/us-core-race","extension":[{"url":"ombCategory","valueCoding":{"system":"urn:oid:2.16.840.1.113883.6.238","code":"2028-9","display":"Asian"}},{"url":"text","valueString":"Asian"}]},{"url":"http://hl7.org/fhir/us/core/StructureDefinition/us-core-ethnicity","extension":[{"url":"ombCategory","valueCoding":{"system":"urn:oid:2.16.840.1.113883.6.238","code":"2135-2","display":"Hispanic or Latino"}},{"url":"text","valueString":"Hispanic or Latino"}]}],"identifier":[{"system":"http://hospital.smarthealthit.org","value":"999999995"}],"name":[{"family":"Bertha","given":["Betty"]}],"gender":"female","birthDate":"1959-12-31"},"request":{"method":"PUT","url":"Patient/0c9d7ae1-4643-4c50-bc48-0274a3f2d234"}},{"fullUrl":"https://madie.cms.gov/Encounter/Encounter-11","resource":{"resourceType":"Encounter","id":"f45ca2bc-ffb1-4202-8ff0-4eaa9a798b2b","meta":{"profile":["http://hl7.org/fhir/us/qicore/StructureDefinition/qicore-encounter"]},"status":"finished","class":{"system":"http://terminology.hl7.org/CodeSystem/v3-ActCode","code":"AMB","display":"ambulatory"},"type":[{"coding":[{"system":"http://snomed.info/sct","code":"185463005","display":"Visit out of hours (procedure)"}]}],"subject":{"reference":"Patient/0c9d7ae1-4643-4c50-bc48-0274a3f2d234"},"period":{"start":"2025-01-01T00:00:00.000Z","end":"2025-01-01T00:00:00.000Z"}},"request":{"method":"PUT","url":"Encounter/f45ca2bc-ffb1-4202-8ff0-4eaa9a798b2b"}},{"fullUrl":"https://madie.cms.gov/Condition/Condition-11","resource":{"resourceType":"Condition","id":"e8059d17-4025-49c2-ae18-7c541f013afb","meta":{"profile":["http://hl7.org/fhir/us/qicore/StructureDefinition/qicore-condition"]},"clinicalStatus":{"coding":[{"system":"http://terminology.hl7.org/CodeSystem/condition-clinical","code":"active"}]},"category":[{"coding":[{"system":"http://terminology.hl7.org/CodeSystem/condition-category","code":"problem-list-item","display":"Problem List Item"}]}],"code":{"coding":[{"system":"http://snomed.info/sct","code":"102781000119107","display":"Sensory neuropathy due to type 1 diabetes mellitus (disorder)"}]},"subject":{"reference":"Patient/0c9d7ae1-4643-4c50-bc48-0274a3f2d234"},"onsetDateTime":"2025-01-01T00:00:00.000Z"},"request":{"method":"PUT","url":"Condition/e8059d17-4025-49c2-ae18-7c541f013afb"}},{"fullUrl":"https://madie.cms.gov/Encounter/Encounter-11.1","resource":{"resourceType":"Encounter","id":"95673929-6f1a-48ec-9e02-c3bf7c21207e","meta":{"profile":["http://hl7.org/fhir/us/qicore/StructureDefinition/qicore-encounter"]},"status":"finished","class":{"system":"http://terminology.hl7.org/CodeSystem/v3-ActCode","code":"AMB","display":"ambulatory"},"type":[{"coding":[{"system":"http://snomed.info/sct","code":"10378005","display":"Hospital admission, emergency, from emergency room, accidental injury (procedure)"}]}],"subject":{"reference":"Patient/0c9d7ae1-4643-4c50-bc48-0274a3f2d234"},"period":{"start":"2024-01-01T00:00:00.000Z","end":"2024-01-01T00:00:00.000Z"},"diagnosis":[{"condition":{"reference":"Condition/11.1"}}]},"request":{"method":"PUT","url":"Encounter/95673929-6f1a-48ec-9e02-c3bf7c21207e"}},{"fullUrl":"https://madie.cms.gov/Condition/11.1","resource":{"resourceType":"Condition","id":"4418af23-9216-44b1-88c1-688c7ce4e634","meta":{"profile":["http://hl7.org/fhir/us/qicore/StructureDefinition/qicore-condition"]},"clinicalStatus":{"coding":[{"system":"http://terminology.hl7.org/CodeSystem/condition-clinical","code":"active"}]},"category":[{"coding":[{"system":"http://terminology.hl7.org/CodeSystem/condition-category","code":"problem-list-item","display":"Problem List Item"}]}],"code":{"coding":[{"system":"http://snomed.info/sct","code":"100721000119109","display":"High grade astrocytoma of brain (disorder)"}]},"subject":{"reference":"Patient/0c9d7ae1-4643-4c50-bc48-0274a3f2d234"},"onsetDateTime":"2025-01-01T00:00:00.000Z"},"request":{"method":"PUT","url":"Condition/4418af23-9216-44b1-88c1-688c7ce4e634"}},{"fullUrl":"https://madie.cms.gov/DeviceRequest/DeviceRequest-11","resource":{"resourceType":"DeviceRequest","id":"da33fee0-a7ed-4475-bf83-85c907006236","meta":{"profile":["http://hl7.org/fhir/us/qicore/StructureDefinition/qicore-devicerequest"]},"modifierExtension":[{"url":"http://hl7.org/fhir/us/qicore/StructureDefinition/qicore-doNotPeform","valueBoolean":false}],"status":"completed","intent":"order","codeCodeableConcept":{"coding":[{"system":"http://snomed.info/sct","code":"183240000","display":"Self-propelled wheelchair (physical object)"}]},"subject":{"reference":"Patient/0c9d7ae1-4643-4c50-bc48-0274a3f2d234"},"authoredOn":"2025-01-01T00:00:00.000Z"},"request":{"method":"PUT","url":"DeviceRequest/da33fee0-a7ed-4475-bf83-85c907006236"}},{"fullUrl":"https://madie.cms.gov/MeasureReport/8c116e5a-4d5a-4bb0-9ecd-81d5cc230ee2","resource":{"resourceType":"MeasureReport","id":"8c116e5a-4d5a-4bb0-9ecd-81d5cc230ee2","meta":{"profile":["http://hl7.org/fhir/us/cqfmeasures/StructureDefinition/test-case-cqfm"]},"contained":[{"resourceType":"Parameters","id":"1e809e88-ad62-4d5e-92e7-be3775b76e15-parameters","parameter":[{"name":"subject","valueString":"0c9d7ae1-4643-4c50-bc48-0274a3f2d234"}]}],"extension":[{"url":"http://hl7.org/fhir/us/cqfmeasures/StructureDefinition/cqfm-inputParameters","valueReference":{"reference":"#1e809e88-ad62-4d5e-92e7-be3775b76e15-parameters"}},{"url":"http://hl7.org/fhir/us/cqfmeasures/StructureDefinition/cqfm-testCaseDescription","valueMarkdown":"Patient 66yo w/ an Office Visit  Encounter 1/1 of the MP, Diabetes Condition ending 1/1 during the MP, & an Advanced Illness & Frailty Encounter that starts on 1/1 of the year before the MP."}],"modifierExtension":[{"url":"http://hl7.org/fhir/us/cqfmeasures/StructureDefinition/cqfm-isTestCase","valueBoolean":true}],"status":"complete","type":"individual","measure":"https://madie.cms.gov/Measure/DiabetesEyeExamFHIR","period":{"start":"2025-01-01","end":"2025-12-31"},"group":[{"population":[{"code":{"coding":[{"system":"http://terminology.hl7.org/CodeSystem/measure-population","code":"initial-population","display":"Initial Population"}]},"count":1},{"code":{"coding":[{"system":"http://terminology.hl7.org/CodeSystem/measure-population","code":"denominator","display":"Denominator"}]},"count":1},{"code":{"coding":[{"system":"http://terminology.hl7.org/CodeSystem/measure-population","code":"denominator-exclusion","display":"Denominator Exclusion"}]},"count":1},{"code":{"coding":[{"system":"http://terminology.hl7.org/CodeSystem/measure-population","code":"numerator","display":"Numerator"}]},"count":0}]}]},"request":{"method":"PUT","url":"MeasureReport/8c116e5a-4d5a-4bb0-9ecd-81d5cc230ee2"}}]}