{"resourceType":"Bundle","id":"tests-dcd62616-c203-4ddf-817a-4ce8622e23ca-bundle","type":"transaction","entry":[{"fullUrl":"https://madie.cms.gov/Patient/dcd62616-c203-4ddf-817a-4ce8622e23ca","resource":{"resourceType":"Patient","id":"dcd62616-c203-4ddf-817a-4ce8622e23ca","meta":{"profile":["http://hl7.org/fhir/us/qicore/StructureDefinition/qicore-patient"]},"extension":[{"url":"http://hl7.org/fhir/us/core/StructureDefinition/us-core-race","extension":[{"url":"ombCategory","valueCoding":{"system":"urn:oid:2.16.840.1.113883.6.238","code":"2028-9","display":"Asian","userSelected":true}},{"url":"text","valueString":"Asian"}]},{"url":"http://hl7.org/fhir/us/core/StructureDefinition/us-core-ethnicity","extension":[{"url":"ombCategory","valueCoding":{"system":"urn:oid:2.16.840.1.113883.6.238","code":"2135-2","display":"Hispanic or Latino","userSelected":true}},{"url":"text","valueString":"Hispanic or Latino"}]}],"identifier":[{"type":{"coding":[{"system":"http://terminology.hl7.org/CodeSystem/v2-0203","code":"MR"}]},"system":"http://hospital.smarthealthit.org","value":"999999995"}],"name":[{"family":"Bertha","given":["Betty"]}],"gender":"female","birthDate":"2007-12-31"},"request":{"method":"PUT","url":"Patient/dcd62616-c203-4ddf-817a-4ce8622e23ca"}},{"fullUrl":"https://madie.cms.gov/Encounter/Encounter-25","resource":{"resourceType":"Encounter","id":"db52d90a-a8f4-4308-9b01-b428c2db1262","meta":{"profile":["http://hl7.org/fhir/us/qicore/StructureDefinition/qicore-encounter"]},"status":"finished","class":{"system":"http://terminology.hl7.org/CodeSystem/v3-ActCode","code":"AMB","display":"ambulatory"},"type":[{"coding":[{"system":"http://snomed.info/sct","code":"185463005","display":"Visit out of hours (procedure)"}]}],"subject":{"reference":"Patient/dcd62616-c203-4ddf-817a-4ce8622e23ca"},"period":{"start":"2025-01-01T00:00:00.000Z","end":"2025-01-01T00:00:00.000Z"}},"request":{"method":"PUT","url":"Encounter/db52d90a-a8f4-4308-9b01-b428c2db1262"}},{"fullUrl":"https://madie.cms.gov/Condition/Condition-25","resource":{"resourceType":"Condition","id":"373edf16-3905-47ee-af89-72dbc9aab013","meta":{"profile":["http://hl7.org/fhir/us/qicore/StructureDefinition/qicore-condition"]},"clinicalStatus":{"coding":[{"system":"http://terminology.hl7.org/CodeSystem/condition-clinical","code":"active"}]},"category":[{"coding":[{"system":"http://terminology.hl7.org/CodeSystem/condition-category","code":"problem-list-item","display":"Problem List Item"}]}],"code":{"coding":[{"system":"http://snomed.info/sct","code":"102781000119107","display":"Sensory neuropathy due to type 1 diabetes mellitus (disorder)"}]},"subject":{"reference":"Patient/dcd62616-c203-4ddf-817a-4ce8622e23ca"},"onsetDateTime":"2025-01-01T00:00:00.000Z"},"request":{"method":"PUT","url":"Condition/373edf16-3905-47ee-af89-72dbc9aab013"}},{"fullUrl":"https://madie.cms.gov/Condition/Condition-25.1","resource":{"resourceType":"Condition","id":"b98d1337-4abd-4763-95cc-c956003ddfef","meta":{"profile":["http://hl7.org/fhir/us/qicore/StructureDefinition/qicore-condition"]},"clinicalStatus":{"coding":[{"system":"http://terminology.hl7.org/CodeSystem/condition-clinical","code":"active"}]},"category":[{"coding":[{"system":"http://terminology.hl7.org/CodeSystem/condition-category","code":"problem-list-item","display":"Problem List Item"}]}],"code":{"coding":[{"system":"http://snomed.info/sct","code":"193349004","display":"Preproliferative retinopathy due to diabetes mellitus (disorder)"}]},"subject":{"reference":"Patient/dcd62616-c203-4ddf-817a-4ce8622e23ca"},"onsetDateTime":"2024-01-01T00:00:00.000Z"},"request":{"method":"PUT","url":"Condition/b98d1337-4abd-4763-95cc-c956003ddfef"}},{"fullUrl":"https://madie.cms.gov/Observation/Observation-25","resource":{"resourceType":"Observation","id":"c6a81abc-569b-4a30-9d18-3804bb2f7e13","meta":{"profile":["http://hl7.org/fhir/us/qicore/StructureDefinition/qicore-observation"]},"status":"final","category":[{"coding":[{"system":"http://terminology.hl7.org/CodeSystem/observation-category","code":"exam"}]}],"code":{"coding":[{"system":"http://snomed.info/sct","code":"252779009","display":"Single bright white flash electroretinography (procedure)"}]},"subject":{"reference":"Patient/dcd62616-c203-4ddf-817a-4ce8622e23ca"},"effectivePeriod":{"start":"2025-12-31T23:59:59.000Z","end":"2025-12-31T23:59:59.000Z"}},"request":{"method":"PUT","url":"Observation/c6a81abc-569b-4a30-9d18-3804bb2f7e13"}},{"fullUrl":"https://madie.cms.gov/MeasureReport/9d85b650-ed9e-453c-a077-053055522809","resource":{"resourceType":"MeasureReport","id":"9d85b650-ed9e-453c-a077-053055522809","meta":{"profile":["http://hl7.org/fhir/us/cqfmeasures/StructureDefinition/test-case-cqfm"]},"contained":[{"resourceType":"Parameters","id":"b80ce817-83fb-43bc-8cab-aaf73eec4097-parameters","parameter":[{"name":"subject","valueString":"dcd62616-c203-4ddf-817a-4ce8622e23ca"}]}],"extension":[{"url":"http://hl7.org/fhir/us/cqfmeasures/StructureDefinition/cqfm-inputParameters","valueReference":{"reference":"#b80ce817-83fb-43bc-8cab-aaf73eec4097-parameters"}},{"url":"http://hl7.org/fhir/us/cqfmeasures/StructureDefinition/cqfm-testCaseDescription","valueMarkdown":"Patient 18yo w/ an Office Visit Encounter, Diabetes Condition ending 1/1 during the MP, and Retinopathy Condition 1/1 of the year before the MP, with an Eye Exam Observation 12/31 of the MP."}],"modifierExtension":[{"url":"http://hl7.org/fhir/us/cqfmeasures/StructureDefinition/cqfm-isTestCase","valueBoolean":true}],"status":"complete","type":"individual","measure":"https://madie.cms.gov/Measure/DiabetesEyeExamFHIR","period":{"start":"2025-01-01","end":"2025-12-31"},"group":[{"population":[{"code":{"coding":[{"system":"http://terminology.hl7.org/CodeSystem/measure-population","code":"initial-population","display":"Initial Population"}]},"count":1},{"code":{"coding":[{"system":"http://terminology.hl7.org/CodeSystem/measure-population","code":"denominator","display":"Denominator"}]},"count":1},{"code":{"coding":[{"system":"http://terminology.hl7.org/CodeSystem/measure-population","code":"denominator-exclusion","display":"Denominator Exclusion"}]},"count":0},{"code":{"coding":[{"system":"http://terminology.hl7.org/CodeSystem/measure-population","code":"numerator","display":"Numerator"}]},"count":1}]}]},"request":{"method":"PUT","url":"MeasureReport/9d85b650-ed9e-453c-a077-053055522809"}}]}