{
  "resourceType": "Bundle",
  "id": "63594c7a6aee9629c82981df",
  "type": "transaction",
  "entry": [ {
    "fullUrl": "https://madie.cms.gov/Patient/7866f492-2f4f-4953-afee-598e0e8fac0e",
    "resource": {
      "resourceType": "Patient",
      "id": "7866f492-2f4f-4953-afee-598e0e8fac0e",
      "meta": {
        "profile": [ "http://hl7.org/fhir/us/qicore/StructureDefinition/qicore-patient" ]
      },
      "text": {
        "status": "generated",
        "div": "<div xmlns=\"http://www.w3.org/1999/xhtml\"><div class=\"hapiHeaderText\">Risk_ObstetricalVTE<b>RISKPass </b></div><table class=\"hapiPropertyTable\"><tbody><tr><td>Date of birth</td><td><span>01 February 2004</span></td></tr></tbody></table></div>"
      },
      "extension": [ {
        "url": "http://hl7.org/fhir/us/core/StructureDefinition/us-core-race",
        "extension": [ {
          "url": "ombCategory",
          "valueCoding": {
            "system": "urn:oid:2.16.840.1.113883.6.238",
            "code": "1002-5",
            "display": "American Indian or Alaska Native",
            "userSelected": true
          }
        }, {
          "url": "text",
          "valueString": "American Indian or Alaska Native"
        } ]
      }, {
        "url": "http://hl7.org/fhir/us/core/StructureDefinition/us-core-ethnicity",
        "extension": [ {
          "url": "ombCategory",
          "valueCoding": {
            "system": "urn:oid:2.16.840.1.113883.6.238",
            "code": "2135-2",
            "display": "Hispanic or Latino",
            "userSelected": true
          }
        }, {
          "url": "text",
          "valueString": "Hispanic or Latino"
        } ]
      } ],
      "identifier": [ {
        "type": {
          "coding": [ {
            "system": "http://terminology.hl7.org/CodeSystem/v2-0203",
            "code": "MR"
          } ]
        },
        "system": "https://bonnie-fhir.healthit.gov/",
        "value": "63594c7a6aee9629c82981df"
      } ],
      "active": true,
      "name": [ {
        "use": "usual",
        "family": "RiskPass",
        "given": [ "Risk_ObstetricalVTE" ]
      } ],
      "gender": "female",
      "birthDate": "2004-02-01"
    },
    "request": {
      "method": "PUT",
      "url": "Patient/7866f492-2f4f-4953-afee-598e0e8fac0e"
    }
  }, {
    "fullUrl": "https://madie.cms.gov/Observation/ddf978c0-9379-46a0-9bc4-aa9e1a3a0a94",
    "resource": {
      "resourceType": "Observation",
      "id": "ddf978c0-9379-46a0-9bc4-aa9e1a3a0a94",
      "meta": {
        "profile": [ "http://hl7.org/fhir/us/qicore/StructureDefinition/qicore-observation" ]
      },
      "status": "final",
      "category": [ {
        "coding": [ {
          "system": "http://terminology.hl7.org/CodeSystem/observation-category",
          "code": "exam",
          "display": "exam",
          "userSelected": true
        } ]
      } ],
      "code": {
        "coding": [ {
          "system": "http://loinc.org",
          "code": "93857-1"
        } ]
      },
      "subject": {
        "reference": "Patient/7866f492-2f4f-4953-afee-598e0e8fac0e"
      },
      "effectiveDateTime": "2025-02-01T08:00:00.000+00:00",
      "valueDateTime": "2025-02-01T08:00:00+00:00"
    },
    "request": {
      "method": "PUT",
      "url": "Observation/ddf978c0-9379-46a0-9bc4-aa9e1a3a0a94"
    }
  }, {
    "fullUrl": "https://madie.cms.gov/Observation/369a05c6-b7fd-4f9b-8b65-cd1d1c98bd29",
    "resource": {
      "resourceType": "Observation",
      "id": "369a05c6-b7fd-4f9b-8b65-cd1d1c98bd29",
      "meta": {
        "profile": [ "http://hl7.org/fhir/us/qicore/StructureDefinition/qicore-observation" ]
      },
      "status": "final",
      "category": [ {
        "coding": [ {
          "system": "http://terminology.hl7.org/CodeSystem/observation-category",
          "code": "exam",
          "display": "exam",
          "userSelected": true
        } ]
      } ],
      "code": {
        "coding": [ {
          "system": "http://loinc.org",
          "code": "11778-8"
        } ]
      },
      "subject": {
        "reference": "Patient/7866f492-2f4f-4953-afee-598e0e8fac0e"
      },
      "effectiveDateTime": "2025-02-01T08:00:00.000+00:00",
      "valueDateTime": "2025-02-01T00:00:00.000+00:00"
    },
    "request": {
      "method": "PUT",
      "url": "Observation/369a05c6-b7fd-4f9b-8b65-cd1d1c98bd29"
    }
  }, {
    "fullUrl": "https://madie.cms.gov/Encounter/5aa4465a-a130-4bc5-9c6d-90cad975c1d5",
    "resource": {
      "resourceType": "Encounter",
      "id": "5aa4465a-a130-4bc5-9c6d-90cad975c1d5",
      "meta": {
        "profile": [ "http://hl7.org/fhir/us/qicore/StructureDefinition/qicore-encounter" ]
      },
      "status": "finished",
      "class": {
        "system": "http://terminology.hl7.org/CodeSystem/v3-ActCode",
        "code": "IMP",
        "display": "inpatient encounter"
      },
      "type": [ {
        "coding": [ {
          "system": "http://snomed.info/sct",
          "code": "183452005"
        } ]
      } ],
      "subject": {
        "reference": "Patient/7866f492-2f4f-4953-afee-598e0e8fac0e"
      },
      "period": {
        "start": "2025-02-01T08:00:00.000Z",
        "end": "2025-02-05T08:15:00.000Z"
      },
      "diagnosis": [ {
        "extension": [ {
          "url": "http://hl7.org/fhir/us/qicore/StructureDefinition/qicore-encounter-diagnosisPresentOnAdmission",
          "valueCodeableConcept": {
            "coding": [ {
              "system": "https://www.cms.gov/Medicare/Medicare-Fee-for-Service-Payment/HospitalAcqCond/Coding",
              "code": "Y"
            } ]
          }
        } ],
        "condition": {
          "reference": "Condition/58bf7738-c3f2-4df9-8cf4-b368d4e25a41"
        }
      }, {
        "extension": [ {
          "url": "http://hl7.org/fhir/us/qicore/StructureDefinition/qicore-encounter-diagnosisPresentOnAdmission",
          "valueCodeableConcept": {
            "coding": [ {
              "system": "https://www.cms.gov/Medicare/Medicare-Fee-for-Service-Payment/HospitalAcqCond/Coding",
              "code": "N"
            } ]
          }
        } ],
        "condition": {
          "reference": "Condition/a5df471b-1869-4bbd-a943-603ba1d80042"
        }
      } ]
    },
    "request": {
      "method": "PUT",
      "url": "Encounter/5aa4465a-a130-4bc5-9c6d-90cad975c1d5"
    }
  }, {
    "fullUrl": "https://madie.cms.gov/Procedure/dc8b3480-aedf-4a13-826d-e677c9c2dd88",
    "resource": {
      "resourceType": "Procedure",
      "id": "dc8b3480-aedf-4a13-826d-e677c9c2dd88",
      "meta": {
        "profile": [ "http://hl7.org/fhir/us/qicore/StructureDefinition/qicore-procedure" ]
      },
      "extension": [ {
        "url": "http://hl7.org/fhir/us/qicore/StructureDefinition/qicore-recorded",
        "valueDateTime": "2013-04-05T09:35:00-04:00"
      } ],
      "status": "completed",
      "code": {
        "coding": [ {
          "system": "http://snomed.info/sct",
          "code": "10745001"
        } ]
      },
      "subject": {
        "reference": "Patient/7866f492-2f4f-4953-afee-598e0e8fac0e"
      },
      "performedDateTime": "2025-02-01T08:00:00.000+00:00"
    },
    "request": {
      "method": "PUT",
      "url": "Procedure/dc8b3480-aedf-4a13-826d-e677c9c2dd88"
    }
  }, {
    "fullUrl": "https://madie.cms.gov/Condition/a5df471b-1869-4bbd-a943-603ba1d80042",
    "resource": {
      "resourceType": "Condition",
      "id": "a5df471b-1869-4bbd-a943-603ba1d80042",
      "meta": {
        "profile": [ "http://hl7.org/fhir/us/qicore/StructureDefinition/qicore-condition" ]
      },
      "category": [ {
        "coding": [ {
          "system": "http://terminology.hl7.org/CodeSystem/condition-category",
          "code": "encounter-diagnosis",
          "display": "Encounter Diagnosis"
        } ]
      } ],
      "code": {
        "coding": [ {
          "system": "http://hl7.org/fhir/sid/icd-10-cm",
          "version": "2023",
          "code": "A32.7",
          "display": "Listerial sepsis",
          "userSelected": true
        } ]
      },
      "subject": {
        "reference": "Patient/7866f492-2f4f-4953-afee-598e0e8fac0e"
      },
      "recordedDate": "2025-10-26T08:00:00.000+00:00"
    },
    "request": {
      "method": "PUT",
      "url": "Condition/a5df471b-1869-4bbd-a943-603ba1d80042"
    }
  }, {
    "fullUrl": "https://madie.cms.gov/Condition/58bf7738-c3f2-4df9-8cf4-b368d4e25a41",
    "resource": {
      "resourceType": "Condition",
      "id": "58bf7738-c3f2-4df9-8cf4-b368d4e25a41",
      "meta": {
        "profile": [ "http://hl7.org/fhir/us/qicore/StructureDefinition/qicore-condition" ]
      },
      "category": [ {
        "coding": [ {
          "system": "http://terminology.hl7.org/CodeSystem/condition-category",
          "code": "encounter-diagnosis",
          "display": "Encounter Diagnosis"
        } ]
      } ],
      "code": {
        "coding": [ {
          "system": "http://hl7.org/fhir/sid/icd-10-cm",
          "version": "2023",
          "code": "O22.30",
          "display": "Obstetrical VTE",
          "userSelected": true
        } ]
      },
      "subject": {
        "reference": "Patient/7866f492-2f4f-4953-afee-598e0e8fac0e"
      },
      "recordedDate": "2025-10-26T08:00:00.000+00:00"
    },
    "request": {
      "method": "PUT",
      "url": "Condition/58bf7738-c3f2-4df9-8cf4-b368d4e25a41"
    }
  }, {
    "fullUrl": "https://madie.cms.gov/MeasureReport/3512eff1-d029-4b18-9fe8-8bab7bc80bc4",
    "resource": {
      "resourceType": "MeasureReport",
      "id": "3512eff1-d029-4b18-9fe8-8bab7bc80bc4",
      "meta": {
        "profile": [ "http://hl7.org/fhir/us/cqfmeasures/StructureDefinition/test-case-cqfm" ]
      },
      "contained": [ {
        "resourceType": "Parameters",
        "id": "24eee802-4bc7-4f56-80e3-6a16ab94a80b-parameters",
        "parameter": [ {
          "name": "subject",
          "valueString": "7866f492-2f4f-4953-afee-598e0e8fac0e"
        } ]
      } ],
      "extension": [ {
        "url": "http://hl7.org/fhir/us/cqfmeasures/StructureDefinition/cqfm-inputParameters",
        "valueReference": {
          "reference": "#24eee802-4bc7-4f56-80e3-6a16ab94a80b-parameters"
        }
      }, {
        "url": "http://hl7.org/fhir/us/cqfmeasures/StructureDefinition/cqfm-testCaseDescription",
        "valueMarkdown": "Risk variable of obstetrical VTE\n\n"
      } ],
      "modifierExtension": [ {
        "url": "http://hl7.org/fhir/us/cqfmeasures/StructureDefinition/cqfm-isTestCase",
        "valueBoolean": true
      } ],
      "status": "complete",
      "type": "individual",
      "measure": "https://madie.cms.gov/Measure/CMS1028FHIRPCSevereOBComps",
      "period": {
        "start": "2025-01-01",
        "end": "2025-12-31"
      },
      "group": [ {
        "population": [ {
          "code": {
            "coding": [ {
              "system": "http://terminology.hl7.org/CodeSystem/measure-population",
              "code": "initial-population",
              "display": "Initial Population"
            } ]
          },
          "count": 1
        }, {
          "code": {
            "coding": [ {
              "system": "http://terminology.hl7.org/CodeSystem/measure-population",
              "code": "denominator",
              "display": "Denominator"
            } ]
          },
          "count": 1
        }, {
          "code": {
            "coding": [ {
              "system": "http://terminology.hl7.org/CodeSystem/measure-population",
              "code": "numerator",
              "display": "Numerator"
            } ]
          },
          "count": 1
        }, {
          "code": {
            "coding": [ {
              "system": "http://terminology.hl7.org/CodeSystem/measure-population",
              "code": "numerator-exclusion",
              "display": "Numerator Exclusion"
            } ]
          },
          "count": 0
        } ]
      }, {
        "population": [ {
          "code": {
            "coding": [ {
              "system": "http://terminology.hl7.org/CodeSystem/measure-population",
              "code": "initial-population",
              "display": "Initial Population"
            } ]
          },
          "count": 1
        }, {
          "code": {
            "coding": [ {
              "system": "http://terminology.hl7.org/CodeSystem/measure-population",
              "code": "denominator",
              "display": "Denominator"
            } ]
          },
          "count": 1
        }, {
          "code": {
            "coding": [ {
              "system": "http://terminology.hl7.org/CodeSystem/measure-population",
              "code": "numerator",
              "display": "Numerator"
            } ]
          },
          "count": 1
        }, {
          "code": {
            "coding": [ {
              "system": "http://terminology.hl7.org/CodeSystem/measure-population",
              "code": "numerator-exclusion",
              "display": "Numerator Exclusion"
            } ]
          },
          "count": 0
        } ]
      } ],
      "evaluatedResource": [ {
        "reference": "Patient/7866f492-2f4f-4953-afee-598e0e8fac0e"
      }, {
        "reference": "Observation/ddf978c0-9379-46a0-9bc4-aa9e1a3a0a94"
      }, {
        "reference": "Observation/369a05c6-b7fd-4f9b-8b65-cd1d1c98bd29"
      }, {
        "reference": "Encounter/5aa4465a-a130-4bc5-9c6d-90cad975c1d5"
      }, {
        "reference": "Procedure/dc8b3480-aedf-4a13-826d-e677c9c2dd88"
      }, {
        "reference": "Condition/a5df471b-1869-4bbd-a943-603ba1d80042"
      }, {
        "reference": "Condition/58bf7738-c3f2-4df9-8cf4-b368d4e25a41"
      } ]
    },
    "request": {
      "method": "PUT",
      "url": "MeasureReport/3512eff1-d029-4b18-9fe8-8bab7bc80bc4"
    }
  } ]
}