{"resourceType":"Bundle","id":"tests-a959f507-685c-4d5e-b8e4-dc02063dba36-bundle","type":"transaction","entry":[{"fullUrl":"https://madie.cms.gov/Patient/a959f507-685c-4d5e-b8e4-dc02063dba36","resource":{"resourceType":"Patient","id":"a959f507-685c-4d5e-b8e4-dc02063dba36","meta":{"profile":["http://hl7.org/fhir/us/qicore/StructureDefinition/qicore-patient"]},"text":{"status":"generated","div":"<div xmlns=\"http://www.w3.org/1999/xhtml\"><div class=\"hapiHeaderText\">Turns 18 day of Encounter <b>DENOMPASS </b></div><table class=\"hapiPropertyTable\"><tbody><tr><td>Identifier</td><td>f0eda1c9668fdacdcad3378589bf6e0a71e7dec1618f14fca4d442ec96e402b1</td></tr><tr><td>Date of birth</td><td><span>29 September 2006</span></td></tr></tbody></table></div>"},"extension":[{"url":"http://hl7.org/fhir/us/core/StructureDefinition/us-core-race","extension":[{"url":"ombCategory","valueCoding":{"system":"urn:oid:2.16.840.1.113883.6.238","code":"1002-5","display":"American Indian or Alaska Native","userSelected":true}},{"url":"text","valueString":"American Indian or Alaska Native"}]},{"url":"http://hl7.org/fhir/us/core/StructureDefinition/us-core-ethnicity","extension":[{"url":"ombCategory","valueCoding":{"system":"urn:oid:2.16.840.1.113883.6.238","code":"2135-2","display":"Hispanic or Latino","userSelected":true}},{"url":"text","valueString":"Hispanic or Latino"}]}],"identifier":[{"type":{"coding":[{"system":"http://terminology.hl7.org/CodeSystem/v2-0203","code":"MR"}]},"system":"http://bonnie-fhir.healthit.gov/","value":"IPPFail-Age17InEDAge18DayOfIPAdmitCreatinineLT48hrs"}],"active":true,"name":[{"use":"usual","family":"IPPFail","given":["Age17InEDAge18DayOfIPAdmitCreatinineLT48hrs"]}],"gender":"female","birthDate":"2006-09-29"},"request":{"method":"PUT","url":"Patient/a959f507-685c-4d5e-b8e4-dc02063dba36"}},{"fullUrl":"https://madie.cms.gov/Encounter/IPPFail-Age17InEDAge18DayOfIPAdmitCreatinineLT48hrs-01","resource":{"resourceType":"Encounter","id":"70a3ecf9-8ca5-4beb-9488-d28511a49a5f","meta":{"profile":["http://hl7.org/fhir/us/qicore/StructureDefinition/qicore-encounter"]},"status":"finished","class":{"system":"http://terminology.hl7.org/CodeSystem/v3-ActCode","code":"EMER","display":"emergency"},"type":[{"coding":[{"system":"http://snomed.info/sct","code":"4525004"}]}],"subject":{"reference":"Patient/a959f507-685c-4d5e-b8e4-dc02063dba36"},"period":{"start":"2025-09-29T06:00:00.000Z","end":"2025-09-29T08:00:00.000Z"}},"request":{"method":"PUT","url":"Encounter/70a3ecf9-8ca5-4beb-9488-d28511a49a5f"}},{"fullUrl":"https://madie.cms.gov/Encounter/IPPFail-Age17InEDAge18DayOfIPAdmitCreatinineLT48hrs-02","resource":{"resourceType":"Encounter","id":"9fa8a55e-d294-4e13-9e2b-597a5f31b8af","meta":{"profile":["http://hl7.org/fhir/us/qicore/StructureDefinition/qicore-encounter"]},"status":"finished","class":{"system":"http://terminology.hl7.org/CodeSystem/v3-ActCode","code":"IMP","display":"inpatient encounter"},"type":[{"coding":[{"system":"http://snomed.info/sct","code":"183452005"}]}],"subject":{"reference":"Patient/a959f507-685c-4d5e-b8e4-dc02063dba36"},"period":{"start":"2025-09-29T08:00:00.000Z","end":"2025-10-03T20:00:00.000Z"}},"request":{"method":"PUT","url":"Encounter/9fa8a55e-d294-4e13-9e2b-597a5f31b8af"}},{"fullUrl":"https://madie.cms.gov/MedicationAdministration/IPPFail-Age17InEDAge18DayOfIPAdmitCreatinineLT48hrs-21","resource":{"resourceType":"MedicationAdministration","id":"164f0c0b-0b3b-4b6a-856d-6640e4d2af8a","meta":{"profile":["http://hl7.org/fhir/us/qicore/StructureDefinition/qicore-medicationadministration"]},"status":"completed","medicationCodeableConcept":{"coding":[{"system":"http://www.nlm.nih.gov/research/umls/rxnorm","code":"1010600"}]},"subject":{"reference":"Patient/a959f507-685c-4d5e-b8e4-dc02063dba36"},"effectivePeriod":{"start":"2025-09-29T08:00:00.000Z","end":"2025-09-29T08:15:00.000Z"}},"request":{"method":"PUT","url":"MedicationAdministration/164f0c0b-0b3b-4b6a-856d-6640e4d2af8a"}},{"fullUrl":"https://madie.cms.gov/Observation/IPPFail-Age17InEDAge18DayOfIPAdmitCreatinineLT48hrs-19","resource":{"resourceType":"Observation","id":"caf61331-c53f-4659-a62a-f461056549c1","meta":{"profile":["http://hl7.org/fhir/us/qicore/StructureDefinition/qicore-observation"]},"status":"final","category":[{"coding":[{"system":"http://terminology.hl7.org/CodeSystem/observation-category","code":"laboratory","display":"Laboratory"}]}],"code":{"coding":[{"system":"http://loinc.org","version":"2.72","code":"2160-0","display":"Creatinine [Mass/volume] in Serum or Plasma","userSelected":true}]},"subject":{"reference":"Patient/a959f507-685c-4d5e-b8e4-dc02063dba36"},"effectiveDateTime":"2025-10-01T05:50:00+00:00","issued":"2025-10-01T08:20:00+00:00","valueQuantity":{"value":0.6,"unit":"mg/dL","system":"http://unitsofmeasure.org","code":"mg/dL"}},"request":{"method":"PUT","url":"Observation/caf61331-c53f-4659-a62a-f461056549c1"}},{"fullUrl":"https://madie.cms.gov/Observation/IPPFail-Age17InEDAge18DayOfIPAdmitCreatinineLT48hrs-18","resource":{"resourceType":"Observation","id":"8388efdb-e9ce-4999-a278-e39989648649","meta":{"profile":["http://hl7.org/fhir/us/qicore/StructureDefinition/qicore-observation"]},"status":"final","category":[{"coding":[{"system":"http://terminology.hl7.org/CodeSystem/observation-category","code":"laboratory","display":"Laboratory"}]}],"code":{"coding":[{"system":"http://loinc.org","code":"2160-0","display":"Creatinine [Mass/volume] in Serum or Plasma"}]},"subject":{"reference":"Patient/a959f507-685c-4d5e-b8e4-dc02063dba36"},"effectiveDateTime":"2025-09-29T07:59:00+00:00","issued":"2025-09-29T08:29:00+00:00","valueQuantity":{"value":0.8,"unit":"mg/dL","system":"http://unitsofmeasure.org","code":"mg/dL"}},"request":{"method":"PUT","url":"Observation/8388efdb-e9ce-4999-a278-e39989648649"}},{"fullUrl":"https://madie.cms.gov/Observation/IPPFail-Age17InEDAge18DayOfIPAdmitCreatinineLT48hrs-17","resource":{"resourceType":"Observation","id":"c35ea164-cb56-4d00-bc95-c6b4ff1c3b1b","meta":{"profile":["http://hl7.org/fhir/us/qicore/StructureDefinition/qicore-observation"]},"status":"final","category":[{"coding":[{"system":"http://terminology.hl7.org/CodeSystem/observation-category","code":"laboratory","display":"Laboratory"}]}],"code":{"coding":[{"system":"http://loinc.org","version":"2.72","code":"2160-0","display":"Creatinine [Mass/volume] in Serum or Plasma","userSelected":true}]},"subject":{"reference":"Patient/a959f507-685c-4d5e-b8e4-dc02063dba36"},"effectiveDateTime":"2025-09-29T08:01:00+00:00","issued":"2025-09-29T08:31:00+00:00","valueQuantity":{"value":1.1,"unit":"mg/dL","system":"http://unitsofmeasure.org","code":"mg/dL"}},"request":{"method":"PUT","url":"Observation/c35ea164-cb56-4d00-bc95-c6b4ff1c3b1b"}},{"fullUrl":"https://madie.cms.gov/Observation/IPPFail-Age17InEDAge18DayOfIPAdmitCreatinineLT48hrs-15","resource":{"resourceType":"Observation","id":"40ef3409-64c8-43e1-a203-b08a7a8bfb8f","meta":{"profile":["http://hl7.org/fhir/us/qicore/StructureDefinition/qicore-observation"]},"status":"final","category":[{"coding":[{"system":"http://terminology.hl7.org/CodeSystem/observation-category","code":"laboratory","display":"Laboratory"}]}],"code":{"coding":[{"system":"http://loinc.org","code":"2160-0","display":"Creatinine [Mass/volume] in Serum or Plasma"}]},"subject":{"reference":"Patient/a959f507-685c-4d5e-b8e4-dc02063dba36"},"effectiveDateTime":"2025-09-29T07:00:00+00:00","issued":"2025-09-29T07:30:00+00:00","valueQuantity":{"value":0.9,"unit":"mg/dL","system":"http://unitsofmeasure.org","code":"mg/dL"}},"request":{"method":"PUT","url":"Observation/40ef3409-64c8-43e1-a203-b08a7a8bfb8f"}},{"fullUrl":"https://madie.cms.gov/Observation/IPPFail-Age17InEDAge18DayOfIPAdmitCreatinineLT48hrs-16","resource":{"resourceType":"Observation","id":"78a98c1f-3a85-437e-9add-9a551e20e537","meta":{"profile":["http://hl7.org/fhir/us/qicore/StructureDefinition/qicore-observation"]},"status":"final","category":[{"coding":[{"system":"http://terminology.hl7.org/CodeSystem/observation-category","code":"laboratory","display":"Laboratory"}]}],"code":{"coding":[{"system":"http://loinc.org","version":"2.72","code":"2160-0","display":"Creatinine [Mass/volume] in Serum or Plasma","userSelected":true}]},"subject":{"reference":"Patient/a959f507-685c-4d5e-b8e4-dc02063dba36"},"effectiveDateTime":"2025-09-29T07:35:00+00:00","issued":"2025-09-29T08:05:00+00:00","valueQuantity":{"value":1.6,"unit":"mg/dL","system":"http://unitsofmeasure.org","code":"mg/dL"}},"request":{"method":"PUT","url":"Observation/78a98c1f-3a85-437e-9add-9a551e20e537"}},{"fullUrl":"https://madie.cms.gov/Coverage/IPPFail-Age17InEDAge18DayOfIPAdmitCreatinineLT48hrs-61","resource":{"resourceType":"Coverage","id":"1ee4f346-455a-4b48-a2e7-2223b92785ff","meta":{"profile":["http://hl7.org/fhir/us/qicore/StructureDefinition/qicore-coverage"]},"status":"active","type":{"coding":[{"system":"https://nahdo.org/sopt","version":"9.2","code":"211","display":"Medicaid HMO"}]},"beneficiary":{"reference":"Patient/a959f507-685c-4d5e-b8e4-dc02063dba36"},"period":{"start":"2023-12-01T00:00:00+00:00"},"payor":[{"reference":"Organization/77e4d06f-5e3c-436a-a598-80cefcca5028"}]},"request":{"method":"PUT","url":"Coverage/1ee4f346-455a-4b48-a2e7-2223b92785ff"}},{"fullUrl":"https://madie.cms.gov/Organization/IPPFail-Age17InEDAge18DayOfIPAdmitCreatinineLT48hrs-98","resource":{"resourceType":"Organization","id":"77e4d06f-5e3c-436a-a598-80cefcca5028","meta":{"profile":["http://hl7.org/fhir/us/qicore/StructureDefinition/qicore-organization"]},"identifier":[{"use":"temp","system":"urn:oid:2.16.840.1.113883.4.4","value":"21-3259825"}],"active":true,"type":[{"coding":[{"system":"http://terminology.hl7.org/CodeSystem/organization-type","code":"pay","display":"Payer"}]}],"name":"Blue Cross Blue Shield of Texas","telecom":[{"system":"phone","value":"(+1) 972-766-6900"}],"address":[{"use":"billing","type":"postal","line":["P.O. Box 660044"],"city":"Dallas","state":"TX","postalCode":"75266-0044","country":"USA"}]},"request":{"method":"PUT","url":"Organization/77e4d06f-5e3c-436a-a598-80cefcca5028"}},{"fullUrl":"https://madie.cms.gov/MeasureReport/1846d486-e9e7-45d8-9953-6020526a5475","resource":{"resourceType":"MeasureReport","id":"1846d486-e9e7-45d8-9953-6020526a5475","meta":{"profile":["http://hl7.org/fhir/us/cqfmeasures/StructureDefinition/test-case-cqfm"]},"contained":[{"resourceType":"Parameters","id":"b30738cd-aafd-4bd8-b80d-69b230b519d0-parameters","parameter":[{"name":"subject","valueString":"a959f507-685c-4d5e-b8e4-dc02063dba36"}]}],"extension":[{"url":"http://hl7.org/fhir/us/cqfmeasures/StructureDefinition/cqfm-inputParameters","valueReference":{"reference":"#b30738cd-aafd-4bd8-b80d-69b230b519d0-parameters"}},{"url":"http://hl7.org/fhir/us/cqfmeasures/StructureDefinition/cqfm-testCaseDescription","valueMarkdown":"Not 18 on INPT admission\nVScode: Initial Population=[]"}],"modifierExtension":[{"url":"http://hl7.org/fhir/us/cqfmeasures/StructureDefinition/cqfm-isTestCase","valueBoolean":true}],"status":"complete","type":"individual","measure":"https://madie.cms.gov/Measure/HospitalHarmAcuteKidneyInjuryFHIR","period":{"start":"2025-01-01","end":"2025-12-31"},"group":[{"population":[{"code":{"coding":[{"system":"http://terminology.hl7.org/CodeSystem/measure-population","code":"initial-population","display":"Initial Population"}]},"count":0},{"code":{"coding":[{"system":"http://terminology.hl7.org/CodeSystem/measure-population","code":"denominator","display":"Denominator"}]},"count":0},{"code":{"coding":[{"system":"http://terminology.hl7.org/CodeSystem/measure-population","code":"denominator-exclusion","display":"Denominator Exclusion"}]},"count":0},{"code":{"coding":[{"system":"http://terminology.hl7.org/CodeSystem/measure-population","code":"numerator","display":"Numerator"}]},"count":0}]}]},"request":{"method":"PUT","url":"MeasureReport/1846d486-e9e7-45d8-9953-6020526a5475"}}]}