{"resourceType":"Bundle","id":"tests-ce6698d6-ca56-44f7-9390-17e3e7a3dfde-bundle","type":"transaction","entry":[{"fullUrl":"https://madie.cms.gov/Patient/ce6698d6-ca56-44f7-9390-17e3e7a3dfde","resource":{"resourceType":"Patient","id":"ce6698d6-ca56-44f7-9390-17e3e7a3dfde","meta":{"profile":["http://hl7.org/fhir/us/qicore/StructureDefinition/qicore-patient"]},"text":{"status":"generated","div":"<div xmlns=\"http://www.w3.org/1999/xhtml\"><div class=\"hapiHeaderText\">Turns 18 day of Encounter <b>NUMERPass </b></div><table class=\"hapiPropertyTable\"><tbody><tr><td>Identifier</td><td>f0eda1c9668fdacdcad3378589bf6e0a71e7dec1618f14fca4d442ec96e402b1</td></tr><tr><td>Date of birth</td><td><span>29 September 2006</span></td></tr></tbody></table></div>"},"extension":[{"url":"http://hl7.org/fhir/us/core/StructureDefinition/us-core-race","extension":[{"url":"ombCategory","valueCoding":{"system":"urn:oid:2.16.840.1.113883.6.238","code":"1002-5","display":"American Indian or Alaska Native","userSelected":true}},{"url":"text","valueString":"American Indian or Alaska Native"}]},{"url":"http://hl7.org/fhir/us/core/StructureDefinition/us-core-ethnicity","extension":[{"url":"ombCategory","valueCoding":{"system":"urn:oid:2.16.840.1.113883.6.238","code":"2135-2","display":"Hispanic or Latino","userSelected":true}},{"url":"text","valueString":"Hispanic or Latino"}]}],"identifier":[{"type":{"coding":[{"system":"http://terminology.hl7.org/CodeSystem/v2-0203","code":"MR"}]},"system":"http://bonnie-fhir.healthit.gov/","value":"NUMERPass-TwoEncountersCreatinineDoubled"}],"active":true,"name":[{"use":"usual","family":"NUMERPass","given":["TwoEncountersCreatinineDoubled"]}],"gender":"female","birthDate":"1982-10-10"},"request":{"method":"PUT","url":"Patient/ce6698d6-ca56-44f7-9390-17e3e7a3dfde"}},{"fullUrl":"https://madie.cms.gov/Encounter/NUMERPass-TwoEncountersCreatinineDoubled-01","resource":{"resourceType":"Encounter","id":"2f189229-1f61-451f-bea5-2865daa3ccf4","meta":{"profile":["http://hl7.org/fhir/us/qicore/StructureDefinition/qicore-encounter"]},"status":"finished","class":{"system":"http://terminology.hl7.org/CodeSystem/v3-ActCode","code":"IMP","display":"inpatient encounter"},"type":[{"coding":[{"system":"http://snomed.info/sct","code":"183452005"}]}],"subject":{"reference":"Patient/ce6698d6-ca56-44f7-9390-17e3e7a3dfde"},"period":{"start":"2025-09-29T08:00:00.000Z","end":"2025-10-03T20:00:00.000Z"}},"request":{"method":"PUT","url":"Encounter/2f189229-1f61-451f-bea5-2865daa3ccf4"}},{"fullUrl":"https://madie.cms.gov/Encounter/NUMERPass-TwoEncountersCreatinineDoubled-02","resource":{"resourceType":"Encounter","id":"c5ee2c43-f78c-4ce6-910e-b1bc0392bca5","meta":{"profile":["http://hl7.org/fhir/us/qicore/StructureDefinition/qicore-encounter"]},"status":"finished","class":{"system":"http://terminology.hl7.org/CodeSystem/v3-ActCode","code":"IMP","display":"inpatient encounter"},"type":[{"coding":[{"system":"http://snomed.info/sct","code":"183452005"}]}],"subject":{"reference":"Patient/ce6698d6-ca56-44f7-9390-17e3e7a3dfde"},"period":{"start":"2025-11-01T08:00:00.000Z","end":"2025-11-06T20:15:00.000Z"}},"request":{"method":"PUT","url":"Encounter/c5ee2c43-f78c-4ce6-910e-b1bc0392bca5"}},{"fullUrl":"https://madie.cms.gov/Observation/NUMERPass-TwoEncountersCreatinineDoubled-21","resource":{"resourceType":"Observation","id":"81c54c19-a8e6-40e7-a4d1-27fc5926d0ae","meta":{"profile":["http://hl7.org/fhir/us/qicore/StructureDefinition/qicore-observation"]},"status":"final","category":[{"coding":[{"system":"http://terminology.hl7.org/CodeSystem/observation-category","code":"laboratory","display":"Laboratory"}]}],"code":{"coding":[{"system":"http://loinc.org","version":"2.72","code":"2160-0","display":"Creatinine [Mass/volume] in Serum or Plasma","userSelected":true}]},"subject":{"reference":"Patient/ce6698d6-ca56-44f7-9390-17e3e7a3dfde"},"effectiveDateTime":"2025-11-03T10:15:00+00:00","issued":"2025-11-03T10:45:00+00:00","valueQuantity":{"value":1.82,"unit":"mg/dL","system":"http://unitsofmeasure.org","code":"mg/dL"}},"request":{"method":"PUT","url":"Observation/81c54c19-a8e6-40e7-a4d1-27fc5926d0ae"}},{"fullUrl":"https://madie.cms.gov/Observation/NUMERPass-TwoEncountersCreatinineDoubled-20","resource":{"resourceType":"Observation","id":"a3c35058-c949-4dee-ad16-0b826d60ce84","meta":{"profile":["http://hl7.org/fhir/us/qicore/StructureDefinition/qicore-observation"]},"status":"final","category":[{"coding":[{"system":"http://terminology.hl7.org/CodeSystem/observation-category","code":"laboratory","display":"Laboratory"}]}],"code":{"coding":[{"system":"http://loinc.org","version":"2.72","code":"2160-0","display":"Creatinine [Mass/volume] in Serum or Plasma","userSelected":true}]},"subject":{"reference":"Patient/ce6698d6-ca56-44f7-9390-17e3e7a3dfde"},"effectiveDateTime":"2025-11-01T10:15:00+00:00","issued":"2025-11-01T10:45:00+00:00","valueQuantity":{"value":0.91,"unit":"mg/dL","system":"http://unitsofmeasure.org","code":"mg/dL"}},"request":{"method":"PUT","url":"Observation/a3c35058-c949-4dee-ad16-0b826d60ce84"}},{"fullUrl":"https://madie.cms.gov/Observation/NUMERPass-TwoEncountersCreatinineDoubled-19","resource":{"resourceType":"Observation","id":"fd673178-f2fe-4aa4-9bc1-47ff9c695229","meta":{"profile":["http://hl7.org/fhir/us/qicore/StructureDefinition/qicore-observation"]},"status":"final","category":[{"coding":[{"system":"http://terminology.hl7.org/CodeSystem/observation-category","code":"laboratory","display":"Laboratory"}]}],"code":{"coding":[{"system":"http://loinc.org","version":"2.72","code":"2160-0","display":"Creatinine [Mass/volume] in Serum or Plasma","userSelected":true}]},"subject":{"reference":"Patient/ce6698d6-ca56-44f7-9390-17e3e7a3dfde"},"effectiveDateTime":"2025-11-01T08:15:00+00:00","issued":"2025-11-01T08:45:00+00:00","valueQuantity":{"value":0.91,"unit":"mg/dL","system":"http://unitsofmeasure.org","code":"mg/dL"}},"request":{"method":"PUT","url":"Observation/fd673178-f2fe-4aa4-9bc1-47ff9c695229"}},{"fullUrl":"https://madie.cms.gov/Observation/NUMERPass-TwoEncountersCreatinineDoubled-18","resource":{"resourceType":"Observation","id":"8747bbc4-26f5-4172-88bf-501b0bd4847b","meta":{"profile":["http://hl7.org/fhir/us/qicore/StructureDefinition/qicore-observation"]},"status":"final","category":[{"coding":[{"system":"http://terminology.hl7.org/CodeSystem/observation-category","code":"laboratory","display":"Laboratory"}]}],"code":{"coding":[{"system":"http://loinc.org","code":"2160-0","display":"Creatinine [Mass/volume] in Serum or Plasma"}]},"subject":{"reference":"Patient/ce6698d6-ca56-44f7-9390-17e3e7a3dfde"},"effectiveDateTime":"2025-10-01T09:01:00+00:00","issued":"2025-10-01T09:31:00+00:00","valueQuantity":{"value":1.8,"unit":"mg/dL","system":"http://unitsofmeasure.org","code":"mg/dL"}},"request":{"method":"PUT","url":"Observation/8747bbc4-26f5-4172-88bf-501b0bd4847b"}},{"fullUrl":"https://madie.cms.gov/Observation/NUMERPass-TwoEncountersCreatinineDoubled-17","resource":{"resourceType":"Observation","id":"d77eb9c2-b27f-4fc1-9029-282bded717ff","meta":{"profile":["http://hl7.org/fhir/us/qicore/StructureDefinition/qicore-observation"]},"status":"final","category":[{"coding":[{"system":"http://terminology.hl7.org/CodeSystem/observation-category","code":"laboratory","display":"Laboratory"}]}],"code":{"coding":[{"system":"http://loinc.org","version":"2.72","code":"2160-0","display":"Creatinine [Mass/volume] in Serum or Plasma","userSelected":true}]},"subject":{"reference":"Patient/ce6698d6-ca56-44f7-9390-17e3e7a3dfde"},"effectiveDateTime":"2025-10-01T08:01:00+00:00","issued":"2025-10-01T08:31:00+00:00","valueQuantity":{"value":0.9,"unit":"mg/dL","system":"http://unitsofmeasure.org","code":"mg/dL"}},"request":{"method":"PUT","url":"Observation/d77eb9c2-b27f-4fc1-9029-282bded717ff"}},{"fullUrl":"https://madie.cms.gov/Observation/NUMERPass-TwoEncountersCreatinineDoubled-15","resource":{"resourceType":"Observation","id":"c0039a91-af7f-406c-966d-deb8a60faa61","meta":{"profile":["http://hl7.org/fhir/us/qicore/StructureDefinition/qicore-observation"]},"status":"final","category":[{"coding":[{"system":"http://terminology.hl7.org/CodeSystem/observation-category","code":"laboratory","display":"Laboratory"}]}],"code":{"coding":[{"system":"http://loinc.org","code":"2160-0","display":"Creatinine [Mass/volume] in Serum or Plasma"}]},"subject":{"reference":"Patient/ce6698d6-ca56-44f7-9390-17e3e7a3dfde"},"effectiveDateTime":"2025-10-01T07:00:00+00:00","issued":"2025-10-01T07:30:00+00:00","valueQuantity":{"value":0.9,"unit":"mg/dL","system":"http://unitsofmeasure.org","code":"mg/dL"}},"request":{"method":"PUT","url":"Observation/c0039a91-af7f-406c-966d-deb8a60faa61"}},{"fullUrl":"https://madie.cms.gov/Observation/NUMERPass-TwoEncountersCreatinineDoubled-16","resource":{"resourceType":"Observation","id":"23d39441-8720-4db7-b221-2ecad2362cfa","meta":{"profile":["http://hl7.org/fhir/us/qicore/StructureDefinition/qicore-observation"]},"status":"final","category":[{"coding":[{"system":"http://terminology.hl7.org/CodeSystem/observation-category","code":"laboratory","display":"Laboratory"}]}],"code":{"coding":[{"system":"http://loinc.org","version":"2.72","code":"2160-0","display":"Creatinine [Mass/volume] in Serum or Plasma","userSelected":true}]},"subject":{"reference":"Patient/ce6698d6-ca56-44f7-9390-17e3e7a3dfde"},"effectiveDateTime":"2025-10-01T07:35:00+00:00","issued":"2025-10-01T08:05:00+00:00","valueQuantity":{"value":0.9,"unit":"mg/dL","system":"http://unitsofmeasure.org","code":"mg/dL"}},"request":{"method":"PUT","url":"Observation/23d39441-8720-4db7-b221-2ecad2362cfa"}},{"fullUrl":"https://madie.cms.gov/Coverage/NUMERPass-TwoEncountersCreatinineDoubled-61","resource":{"resourceType":"Coverage","id":"e4bc5ba6-13ab-4df3-ab3d-dd36b18c9c1b","meta":{"profile":["http://hl7.org/fhir/us/qicore/StructureDefinition/qicore-coverage"]},"status":"active","type":{"coding":[{"system":"https://nahdo.org/sopt","version":"9.2","code":"211","display":"Medicaid HMO"}]},"beneficiary":{"reference":"Patient/ce6698d6-ca56-44f7-9390-17e3e7a3dfde"},"period":{"start":"2023-12-01T00:00:00+00:00"},"payor":[{"reference":"Organization/84b56847-ad40-4bf6-b612-9e42ad2a84e5"}]},"request":{"method":"PUT","url":"Coverage/e4bc5ba6-13ab-4df3-ab3d-dd36b18c9c1b"}},{"fullUrl":"https://madie.cms.gov/Organization/NUMERPass-TwoEncountersCreatinineDoubled-98","resource":{"resourceType":"Organization","id":"84b56847-ad40-4bf6-b612-9e42ad2a84e5","meta":{"profile":["http://hl7.org/fhir/us/qicore/StructureDefinition/qicore-organization"]},"identifier":[{"use":"temp","system":"urn:oid:2.16.840.1.113883.4.4","value":"21-3259825"}],"active":true,"type":[{"coding":[{"system":"http://terminology.hl7.org/CodeSystem/organization-type","code":"pay","display":"Payer"}]}],"name":"Blue Cross Blue Shield of Texas","telecom":[{"system":"phone","value":"(+1) 972-766-6900"}],"address":[{"use":"billing","type":"postal","line":["P.O. Box 660044"],"city":"Dallas","state":"TX","postalCode":"75266-0044","country":"USA"}]},"request":{"method":"PUT","url":"Organization/84b56847-ad40-4bf6-b612-9e42ad2a84e5"}},{"fullUrl":"https://madie.cms.gov/MeasureReport/09cf18ec-5935-4266-94ad-b3327dd8813d","resource":{"resourceType":"MeasureReport","id":"09cf18ec-5935-4266-94ad-b3327dd8813d","meta":{"profile":["http://hl7.org/fhir/us/cqfmeasures/StructureDefinition/test-case-cqfm"]},"contained":[{"resourceType":"Parameters","id":"109cb0c0-f82a-4579-a0a1-0d8145863490-parameters","parameter":[{"name":"subject","valueString":"ce6698d6-ca56-44f7-9390-17e3e7a3dfde"}]}],"extension":[{"url":"http://hl7.org/fhir/us/cqfmeasures/StructureDefinition/cqfm-inputParameters","valueReference":{"reference":"#109cb0c0-f82a-4579-a0a1-0d8145863490-parameters"}},{"url":"http://hl7.org/fhir/us/cqfmeasures/StructureDefinition/cqfm-testCaseDescription","valueMarkdown":"Both Enc Cr after 48 hrs: 1.81, 1.82. This is double of earlier creat 0.9, .91. Meets Numerator for both Enc.\nVScode: Numerator=[Encounter(id=NUMERPass-TwoEncountersCreatinineDoubled-01), Encounter(id=NUMERPass-TwoEncountersCreatinineDoubled-02)]\n"}],"modifierExtension":[{"url":"http://hl7.org/fhir/us/cqfmeasures/StructureDefinition/cqfm-isTestCase","valueBoolean":true}],"status":"complete","type":"individual","measure":"https://madie.cms.gov/Measure/HospitalHarmAcuteKidneyInjuryFHIR","period":{"start":"2025-01-01","end":"2025-12-31"},"group":[{"population":[{"code":{"coding":[{"system":"http://terminology.hl7.org/CodeSystem/measure-population","code":"initial-population","display":"Initial Population"}]},"count":2},{"code":{"coding":[{"system":"http://terminology.hl7.org/CodeSystem/measure-population","code":"denominator","display":"Denominator"}]},"count":2},{"code":{"coding":[{"system":"http://terminology.hl7.org/CodeSystem/measure-population","code":"denominator-exclusion","display":"Denominator Exclusion"}]},"count":0},{"code":{"coding":[{"system":"http://terminology.hl7.org/CodeSystem/measure-population","code":"numerator","display":"Numerator"}]},"count":2}]}]},"request":{"method":"PUT","url":"MeasureReport/09cf18ec-5935-4266-94ad-b3327dd8813d"}}]}