{"resourceType":"Bundle","id":"tests-3731688f-4261-42cc-943a-202b69beab97-bundle","type":"transaction","entry":[{"fullUrl":"https://madie.cms.gov/Patient/3731688f-4261-42cc-943a-202b69beab97","resource":{"resourceType":"Patient","id":"3731688f-4261-42cc-943a-202b69beab97","meta":{"profile":["http://hl7.org/fhir/us/qicore/StructureDefinition/qicore-patient"]},"text":{"status":"generated","div":"<div xmlns=\"http://www.w3.org/1999/xhtml\"><div class=\"hapiHeaderText\">Turns 18 day of Encounter <b>DENEXPass </b></div><table class=\"hapiPropertyTable\"><tbody><tr><td>Identifier</td><td>f0eda1c9668fdacdcad3378589bf6e0a71e7dec1618f14fca4d442ec96e402b1</td></tr><tr><td>Date of birth</td><td><span>29 September 2006</span></td></tr></tbody></table></div>"},"extension":[{"url":"http://hl7.org/fhir/us/core/StructureDefinition/us-core-race","extension":[{"url":"ombCategory","valueCoding":{"system":"urn:oid:2.16.840.1.113883.6.238","code":"1002-5","display":"American Indian or Alaska Native","userSelected":true}},{"url":"text","valueString":"American Indian or Alaska Native"}]},{"url":"http://hl7.org/fhir/us/core/StructureDefinition/us-core-ethnicity","extension":[{"url":"ombCategory","valueCoding":{"system":"urn:oid:2.16.840.1.113883.6.238","code":"2135-2","display":"Hispanic or Latino","userSelected":true}},{"url":"text","valueString":"Hispanic or Latino"}]}],"identifier":[{"type":{"coding":[{"system":"http://terminology.hl7.org/CodeSystem/v2-0203","code":"MR"}]},"system":"http://bonnie-fhir.healthit.gov/","value":"DENEXPass-TwoEncFemaleeGFRLowAndHigh"}],"active":true,"name":[{"use":"usual","family":"DENEXPass","given":["TwoEncFemaleeGFRLowAndHigh"]}],"gender":"female","birthDate":"1982-10-10"},"request":{"method":"PUT","url":"Patient/3731688f-4261-42cc-943a-202b69beab97"}},{"fullUrl":"https://madie.cms.gov/Encounter/DENEXPass-TwoEncFemaleeGFRLowAndHigh-01","resource":{"resourceType":"Encounter","id":"ad4b7a89-43f8-46c2-93a6-7119f9349122","meta":{"profile":["http://hl7.org/fhir/us/qicore/StructureDefinition/qicore-encounter"]},"status":"finished","class":{"system":"http://terminology.hl7.org/CodeSystem/v3-ActCode","code":"EMER","display":"emergency"},"type":[{"coding":[{"system":"http://snomed.info/sct","code":"4525004"}]}],"subject":{"reference":"Patient/3731688f-4261-42cc-943a-202b69beab97"},"period":{"start":"2025-09-29T08:00:00.000Z","end":"2025-09-29T20:00:00.000Z"}},"request":{"method":"PUT","url":"Encounter/ad4b7a89-43f8-46c2-93a6-7119f9349122"}},{"fullUrl":"https://madie.cms.gov/Encounter/DENEXPass-TwoEncFemaleeGFRLowAndHigh-02","resource":{"resourceType":"Encounter","id":"70b36e9f-4059-4922-a376-5522316b79d0","meta":{"profile":["http://hl7.org/fhir/us/qicore/StructureDefinition/qicore-encounter"]},"status":"finished","class":{"system":"http://terminology.hl7.org/CodeSystem/v3-ActCode","code":"IMP","display":"inpatient encounter"},"type":[{"coding":[{"system":"http://snomed.info/sct","code":"183452005"}]}],"subject":{"reference":"Patient/3731688f-4261-42cc-943a-202b69beab97"},"period":{"start":"2025-09-29T20:01:00.000Z","end":"2025-10-03T20:00:00.000Z"}},"request":{"method":"PUT","url":"Encounter/70b36e9f-4059-4922-a376-5522316b79d0"}},{"fullUrl":"https://madie.cms.gov/Encounter/DENEXPass-TwoEncFemaleeGFRLowAndHigh-03","resource":{"resourceType":"Encounter","id":"e38100ae-3bcd-4aca-baba-db45010875dd","meta":{"profile":["http://hl7.org/fhir/us/qicore/StructureDefinition/qicore-encounter"]},"status":"finished","class":{"system":"http://terminology.hl7.org/CodeSystem/v3-ActCode","code":"IMP","display":"inpatient encounter"},"type":[{"coding":[{"system":"http://snomed.info/sct","code":"183452005"}]}],"subject":{"reference":"Patient/3731688f-4261-42cc-943a-202b69beab97"},"period":{"start":"2025-11-04T08:00:00.000Z","end":"2025-11-12T08:15:00.000Z"}},"request":{"method":"PUT","url":"Encounter/e38100ae-3bcd-4aca-baba-db45010875dd"}},{"fullUrl":"https://madie.cms.gov/Observation/DENEXPass-TwoEncFemaleeGFRLowAndHigh-20","resource":{"resourceType":"Observation","id":"a72bfa35-7e58-4307-88c8-aea1e2482f20","meta":{"profile":["http://hl7.org/fhir/us/qicore/StructureDefinition/qicore-observation"]},"status":"final","category":[{"coding":[{"system":"http://terminology.hl7.org/CodeSystem/observation-category","code":"laboratory","display":"Laboratory"}]}],"code":{"coding":[{"system":"http://loinc.org","version":"2.72","code":"2160-0","display":"Creatinine [Mass/volume] in Serum or Plasma","userSelected":true}]},"subject":{"reference":"Patient/3731688f-4261-42cc-943a-202b69beab97"},"effectiveDateTime":"2025-11-07T09:00:00+00:00","issued":"2025-11-07T09:30:00+00:00","valueQuantity":{"value":0.7,"unit":"mg/dL","system":"http://unitsofmeasure.org","code":"mg/dL"}},"request":{"method":"PUT","url":"Observation/a72bfa35-7e58-4307-88c8-aea1e2482f20"}},{"fullUrl":"https://madie.cms.gov/Observation/DENEXPass-TwoEncFemaleeGFRLowAndHigh-19","resource":{"resourceType":"Observation","id":"aceef589-a873-4c94-bc43-3e70a2a13e2d","meta":{"profile":["http://hl7.org/fhir/us/qicore/StructureDefinition/qicore-observation"]},"status":"final","category":[{"coding":[{"system":"http://terminology.hl7.org/CodeSystem/observation-category","code":"laboratory","display":"Laboratory"}]}],"code":{"coding":[{"system":"http://loinc.org","version":"2.72","code":"2160-0","display":"Creatinine [Mass/volume] in Serum or Plasma","userSelected":true}]},"subject":{"reference":"Patient/3731688f-4261-42cc-943a-202b69beab97"},"effectiveDateTime":"2025-11-05T09:00:00+00:00","issued":"2025-11-05T09:30:00+00:00","valueQuantity":{"value":0.7,"unit":"mg/dL","system":"http://unitsofmeasure.org","code":"mg/dL"}},"request":{"method":"PUT","url":"Observation/aceef589-a873-4c94-bc43-3e70a2a13e2d"}},{"fullUrl":"https://madie.cms.gov/Observation/DENEXPass-TwoEncFemaleeGFRLowAndHigh-18","resource":{"resourceType":"Observation","id":"93056778-289e-4720-bfdc-3cba313171d8","meta":{"profile":["http://hl7.org/fhir/us/qicore/StructureDefinition/qicore-observation"]},"status":"final","category":[{"coding":[{"system":"http://terminology.hl7.org/CodeSystem/observation-category","code":"laboratory","display":"Laboratory"}]}],"code":{"coding":[{"system":"http://loinc.org","code":"2160-0","display":"Creatinine [Mass/volume] in Serum or Plasma"}]},"subject":{"reference":"Patient/3731688f-4261-42cc-943a-202b69beab97"},"effectiveDateTime":"2025-11-04T09:00:00+00:00","issued":"2025-11-04T09:30:00+00:00","valueQuantity":{"value":1.5,"unit":"mg/dL","system":"http://unitsofmeasure.org","code":"mg/dL"}},"request":{"method":"PUT","url":"Observation/93056778-289e-4720-bfdc-3cba313171d8"}},{"fullUrl":"https://madie.cms.gov/Observation/DENEXPass-TwoEncFemaleeGFRLowAndHigh-17","resource":{"resourceType":"Observation","id":"835204d6-1282-41ef-90bd-36764c0df795","meta":{"profile":["http://hl7.org/fhir/us/qicore/StructureDefinition/qicore-observation"]},"status":"final","category":[{"coding":[{"system":"http://terminology.hl7.org/CodeSystem/observation-category","code":"laboratory","display":"Laboratory"}]}],"code":{"coding":[{"system":"http://loinc.org","version":"2.72","code":"2160-0","display":"Creatinine [Mass/volume] in Serum or Plasma","userSelected":true}]},"subject":{"reference":"Patient/3731688f-4261-42cc-943a-202b69beab97"},"effectiveDateTime":"2025-10-01T08:01:00+00:00","issued":"2025-10-01T08:31:00+00:00","valueQuantity":{"value":1.14,"unit":"mg/dL","system":"http://unitsofmeasure.org","code":"mg/dL"}},"request":{"method":"PUT","url":"Observation/835204d6-1282-41ef-90bd-36764c0df795"}},{"fullUrl":"https://madie.cms.gov/Observation/DENEXPass-TwoEncFemaleeGFRLowAndHigh-15","resource":{"resourceType":"Observation","id":"30b1401e-d399-4d0a-8e9c-dfc49b33d540","meta":{"profile":["http://hl7.org/fhir/us/qicore/StructureDefinition/qicore-observation"]},"status":"final","category":[{"coding":[{"system":"http://terminology.hl7.org/CodeSystem/observation-category","code":"laboratory","display":"Laboratory"}]}],"code":{"coding":[{"system":"http://loinc.org","code":"2160-0","display":"Creatinine [Mass/volume] in Serum or Plasma"}]},"subject":{"reference":"Patient/3731688f-4261-42cc-943a-202b69beab97"},"effectiveDateTime":"2025-10-01T07:00:00+00:00","issued":"2025-10-01T07:30:00+00:00","valueQuantity":{"value":1,"unit":"mg/dL","system":"http://unitsofmeasure.org","code":"mg/dL"}},"request":{"method":"PUT","url":"Observation/30b1401e-d399-4d0a-8e9c-dfc49b33d540"}},{"fullUrl":"https://madie.cms.gov/Observation/DENEXPass-TwoEncFemaleeGFRLowAndHigh-16","resource":{"resourceType":"Observation","id":"d8ae21a2-51f8-4028-a184-2c5fa51f0e1f","meta":{"profile":["http://hl7.org/fhir/us/qicore/StructureDefinition/qicore-observation"]},"status":"final","category":[{"coding":[{"system":"http://terminology.hl7.org/CodeSystem/observation-category","code":"laboratory","display":"Laboratory"}]}],"code":{"coding":[{"system":"http://loinc.org","version":"2.72","code":"2160-0","display":"Creatinine [Mass/volume] in Serum or Plasma","userSelected":true}]},"subject":{"reference":"Patient/3731688f-4261-42cc-943a-202b69beab97"},"effectiveDateTime":"2025-10-01T07:35:00+00:00","issued":"2025-10-01T08:05:00+00:00","valueQuantity":{"value":1.12,"unit":"mg/dL","system":"http://unitsofmeasure.org","code":"mg/dL"}},"request":{"method":"PUT","url":"Observation/d8ae21a2-51f8-4028-a184-2c5fa51f0e1f"}},{"fullUrl":"https://madie.cms.gov/Coverage/DENEXPass-TwoEncFemaleeGFRLowAndHigh-61","resource":{"resourceType":"Coverage","id":"86bcef4a-c29b-4dd2-97bc-1081f5042aa8","meta":{"profile":["http://hl7.org/fhir/us/qicore/StructureDefinition/qicore-coverage"]},"status":"active","type":{"coding":[{"system":"https://nahdo.org/sopt","version":"9.2","code":"211","display":"Medicaid HMO"}]},"beneficiary":{"reference":"Patient/3731688f-4261-42cc-943a-202b69beab97"},"period":{"start":"2023-12-01T00:00:00+00:00"},"payor":[{"reference":"Organization/42846cc3-1db0-4bf7-b9ff-8b81fa6e835d"}]},"request":{"method":"PUT","url":"Coverage/86bcef4a-c29b-4dd2-97bc-1081f5042aa8"}},{"fullUrl":"https://madie.cms.gov/Organization/DENEXPass-TwoEncFemaleeGFRLowAndHigh-98","resource":{"resourceType":"Organization","id":"42846cc3-1db0-4bf7-b9ff-8b81fa6e835d","meta":{"profile":["http://hl7.org/fhir/us/qicore/StructureDefinition/qicore-organization"]},"identifier":[{"use":"temp","system":"urn:oid:2.16.840.1.113883.4.4","value":"21-3259825"}],"active":true,"type":[{"coding":[{"system":"http://terminology.hl7.org/CodeSystem/organization-type","code":"pay","display":"Payer"}]}],"name":"Blue Cross Blue Shield of Texas","telecom":[{"system":"phone","value":"(+1) 972-766-6900"}],"address":[{"use":"billing","type":"postal","line":["P.O. Box 660044"],"city":"Dallas","state":"TX","postalCode":"75266-0044","country":"USA"}]},"request":{"method":"PUT","url":"Organization/42846cc3-1db0-4bf7-b9ff-8b81fa6e835d"}},{"fullUrl":"https://madie.cms.gov/MeasureReport/d86ae986-26ba-4e6d-aa3a-1c4a079b480e","resource":{"resourceType":"MeasureReport","id":"d86ae986-26ba-4e6d-aa3a-1c4a079b480e","meta":{"profile":["http://hl7.org/fhir/us/cqfmeasures/StructureDefinition/test-case-cqfm"]},"contained":[{"resourceType":"Parameters","id":"72e40300-be3f-49f5-a229-2b8c38286be2-parameters","parameter":[{"name":"subject","valueString":"3731688f-4261-42cc-943a-202b69beab97"}]}],"extension":[{"url":"http://hl7.org/fhir/us/cqfmeasures/StructureDefinition/cqfm-inputParameters","valueReference":{"reference":"#72e40300-be3f-49f5-a229-2b8c38286be2-parameters"}},{"url":"http://hl7.org/fhir/us/cqfmeasures/StructureDefinition/cqfm-testCaseDescription","valueMarkdown":"IP Female Enc #1 with eGFR of 63. SCr is within first 24 hours.\nVScode: Denominator Exclusion=[Encounter(id=DENEXPass-TwoEncFemaleeGFRLowAndHigh-03)]"}],"modifierExtension":[{"url":"http://hl7.org/fhir/us/cqfmeasures/StructureDefinition/cqfm-isTestCase","valueBoolean":true}],"status":"complete","type":"individual","measure":"https://madie.cms.gov/Measure/HospitalHarmAcuteKidneyInjuryFHIR","period":{"start":"2025-01-01","end":"2025-12-31"},"group":[{"population":[{"code":{"coding":[{"system":"http://terminology.hl7.org/CodeSystem/measure-population","code":"initial-population","display":"Initial Population"}]},"count":2},{"code":{"coding":[{"system":"http://terminology.hl7.org/CodeSystem/measure-population","code":"denominator","display":"Denominator"}]},"count":2},{"code":{"coding":[{"system":"http://terminology.hl7.org/CodeSystem/measure-population","code":"denominator-exclusion","display":"Denominator Exclusion"}]},"count":1},{"code":{"coding":[{"system":"http://terminology.hl7.org/CodeSystem/measure-population","code":"numerator","display":"Numerator"}]},"count":0}]}]},"request":{"method":"PUT","url":"MeasureReport/d86ae986-26ba-4e6d-aa3a-1c4a079b480e"}}]}