{"resourceType":"Bundle","id":"tests-143372f5-cf0d-420f-a55c-63e0c74e8013-bundle","type":"transaction","entry":[{"fullUrl":"https://madie.cms.gov/Patient/143372f5-cf0d-420f-a55c-63e0c74e8013","resource":{"resourceType":"Patient","id":"143372f5-cf0d-420f-a55c-63e0c74e8013","meta":{"profile":["http://hl7.org/fhir/us/qicore/StructureDefinition/qicore-patient"]},"text":{"status":"generated","div":"<div xmlns=\"http://www.w3.org/1999/xhtml\"><div class=\"hapiHeaderText\">Age17InpatientHospStartTime <b>IPPFail </b></div><table class=\"hapiPropertyTable\"><tbody><tr><td>Identifier</td><td>f0eda1c9668fdacdcad3378589bf6e0a71e7dec1618f14fca4d442ec96e402b1</td></tr><tr><td>Date of birth</td><td><span>30 September 2006</span></td></tr></tbody></table></div>"},"extension":[{"url":"http://hl7.org/fhir/us/core/StructureDefinition/us-core-race","extension":[{"url":"ombCategory","valueCoding":{"system":"urn:oid:2.16.840.1.113883.6.238","code":"1002-5","display":"American Indian or Alaska Native","userSelected":true}},{"url":"text","valueString":"American Indian or Alaska Native"}]},{"url":"http://hl7.org/fhir/us/core/StructureDefinition/us-core-ethnicity","extension":[{"url":"ombCategory","valueCoding":{"system":"urn:oid:2.16.840.1.113883.6.238","code":"2135-2","display":"Hispanic or Latino","userSelected":true}},{"url":"text","valueString":"Hispanic or Latino"}]}],"identifier":[{"type":{"coding":[{"system":"http://terminology.hl7.org/CodeSystem/v2-0203","code":"MR"}]},"system":"http://bonnie-fhir.healthit.gov/","value":"IPPFail-Age17InpatientHospStartTime"}],"active":true,"name":[{"use":"usual","family":"IPPFail","given":["Age17InpatientHospStartTime"]}],"gender":"female","birthDate":"2008-09-30"},"request":{"method":"PUT","url":"Patient/143372f5-cf0d-420f-a55c-63e0c74e8013"}},{"fullUrl":"https://madie.cms.gov/Encounter/IPPFail-Age17InpatientHospStartTime-01","resource":{"resourceType":"Encounter","id":"6cf1de48-9684-4b3e-a9da-25db3edc33b4","meta":{"profile":["http://hl7.org/fhir/us/qicore/StructureDefinition/qicore-encounter"]},"status":"finished","class":{"system":"http://terminology.hl7.org/CodeSystem/v3-ActCode","code":"EMER","display":"emergency"},"type":[{"coding":[{"system":"http://snomed.info/sct","code":"4525004"}]}],"subject":{"reference":"Patient/143372f5-cf0d-420f-a55c-63e0c74e8013"},"period":{"start":"2025-09-29T06:00:00.000Z","end":"2025-09-29T08:00:00.000Z"}},"request":{"method":"PUT","url":"Encounter/6cf1de48-9684-4b3e-a9da-25db3edc33b4"}},{"fullUrl":"https://madie.cms.gov/Encounter/IPPFail-Age17InpatientHospStartTime-02","resource":{"resourceType":"Encounter","id":"b309f0b8-c1e9-4203-9dcc-9867f4a1abe8","meta":{"profile":["http://hl7.org/fhir/us/qicore/StructureDefinition/qicore-encounter"]},"status":"finished","class":{"system":"http://terminology.hl7.org/CodeSystem/v3-ActCode","code":"IMP","display":"inpatient encounter"},"type":[{"coding":[{"system":"http://snomed.info/sct","code":"183452005"}]}],"subject":{"reference":"Patient/143372f5-cf0d-420f-a55c-63e0c74e8013"},"period":{"start":"2025-09-29T08:00:00.000Z","end":"2025-10-03T20:00:00.000Z"}},"request":{"method":"PUT","url":"Encounter/b309f0b8-c1e9-4203-9dcc-9867f4a1abe8"}},{"fullUrl":"https://madie.cms.gov/MedicationAdministration/IPPFail-Age17InpatientHospStartTime-21","resource":{"resourceType":"MedicationAdministration","id":"f412640c-cab8-4fd9-8b61-172a534059da","meta":{"profile":["http://hl7.org/fhir/us/qicore/StructureDefinition/qicore-medicationadministration"]},"status":"completed","medicationCodeableConcept":{"coding":[{"system":"http://www.nlm.nih.gov/research/umls/rxnorm","code":"1010600"}]},"subject":{"reference":"Patient/143372f5-cf0d-420f-a55c-63e0c74e8013"},"effectivePeriod":{"start":"2025-09-29T08:00:00.000Z","end":"2025-09-29T08:15:00.000Z"}},"request":{"method":"PUT","url":"MedicationAdministration/f412640c-cab8-4fd9-8b61-172a534059da"}},{"fullUrl":"https://madie.cms.gov/Observation/IPPFail-Age17InpatientHospStartTime-19","resource":{"resourceType":"Observation","id":"36a6e4d0-811e-41f5-8288-e73b787c8e7e","meta":{"profile":["http://hl7.org/fhir/us/qicore/StructureDefinition/qicore-observation"]},"status":"final","category":[{"coding":[{"system":"http://terminology.hl7.org/CodeSystem/observation-category","code":"laboratory","display":"Laboratory"}]}],"code":{"coding":[{"system":"http://loinc.org","version":"2.72","code":"2160-0","display":"Creatinine [Mass/volume] in Serum or Plasma","userSelected":true}]},"subject":{"reference":"Patient/143372f5-cf0d-420f-a55c-63e0c74e8013"},"effectiveDateTime":"2025-10-01T07:50:00+00:00","issued":"2025-10-01T08:20:00+00:00","valueQuantity":{"value":0.6,"unit":"mg/dL","system":"http://unitsofmeasure.org","code":"mg/dL"}},"request":{"method":"PUT","url":"Observation/36a6e4d0-811e-41f5-8288-e73b787c8e7e"}},{"fullUrl":"https://madie.cms.gov/Observation/IPPFail-Age17InpatientHospStartTime-18","resource":{"resourceType":"Observation","id":"73b0e6c5-2bd3-4273-b491-3d673b0090b6","meta":{"profile":["http://hl7.org/fhir/us/qicore/StructureDefinition/qicore-observation"]},"status":"final","category":[{"coding":[{"system":"http://terminology.hl7.org/CodeSystem/observation-category","code":"laboratory","display":"Laboratory"}]}],"code":{"coding":[{"system":"http://loinc.org","code":"2160-0","display":"Creatinine [Mass/volume] in Serum or Plasma"}]},"subject":{"reference":"Patient/143372f5-cf0d-420f-a55c-63e0c74e8013"},"effectiveDateTime":"2025-09-29T07:59:00+00:00","issued":"2025-09-29T08:29:00+00:00","valueQuantity":{"value":0.8,"unit":"mg/dL","system":"http://unitsofmeasure.org","code":"mg/dL"}},"request":{"method":"PUT","url":"Observation/73b0e6c5-2bd3-4273-b491-3d673b0090b6"}},{"fullUrl":"https://madie.cms.gov/Observation/IPPFail-Age17InpatientHospStartTime-17","resource":{"resourceType":"Observation","id":"80ff8bf0-c35a-4a15-afe2-aace703d6376","meta":{"profile":["http://hl7.org/fhir/us/qicore/StructureDefinition/qicore-observation"]},"status":"final","category":[{"coding":[{"system":"http://terminology.hl7.org/CodeSystem/observation-category","code":"laboratory","display":"Laboratory"}]}],"code":{"coding":[{"system":"http://loinc.org","version":"2.72","code":"2160-0","display":"Creatinine [Mass/volume] in Serum or Plasma","userSelected":true}]},"subject":{"reference":"Patient/143372f5-cf0d-420f-a55c-63e0c74e8013"},"effectiveDateTime":"2025-09-29T08:01:00+00:00","issued":"2025-09-29T08:31:00+00:00","valueQuantity":{"value":1.1,"unit":"mg/dL","system":"http://unitsofmeasure.org","code":"mg/dL"}},"request":{"method":"PUT","url":"Observation/80ff8bf0-c35a-4a15-afe2-aace703d6376"}},{"fullUrl":"https://madie.cms.gov/Observation/IPPFail-Age17InpatientHospStartTime-15","resource":{"resourceType":"Observation","id":"41d27116-b4c5-4716-befd-4a48f9fce962","meta":{"profile":["http://hl7.org/fhir/us/qicore/StructureDefinition/qicore-observation"]},"status":"final","category":[{"coding":[{"system":"http://terminology.hl7.org/CodeSystem/observation-category","code":"laboratory","display":"Laboratory"}]}],"code":{"coding":[{"system":"http://loinc.org","code":"2160-0","display":"Creatinine [Mass/volume] in Serum or Plasma"}]},"subject":{"reference":"Patient/143372f5-cf0d-420f-a55c-63e0c74e8013"},"effectiveDateTime":"2025-09-29T07:00:00+00:00","issued":"2025-09-29T07:30:00+00:00","valueQuantity":{"value":0.9,"unit":"mg/dL","system":"http://unitsofmeasure.org","code":"mg/dL"}},"request":{"method":"PUT","url":"Observation/41d27116-b4c5-4716-befd-4a48f9fce962"}},{"fullUrl":"https://madie.cms.gov/Observation/IPPFail-Age17InpatientHospStartTime-16","resource":{"resourceType":"Observation","id":"422f408f-c4d9-49df-93cc-220cc78efbfa","meta":{"profile":["http://hl7.org/fhir/us/qicore/StructureDefinition/qicore-observation"]},"status":"final","category":[{"coding":[{"system":"http://terminology.hl7.org/CodeSystem/observation-category","code":"laboratory","display":"Laboratory"}]}],"code":{"coding":[{"system":"http://loinc.org","version":"2.72","code":"2160-0","display":"Creatinine [Mass/volume] in Serum or Plasma","userSelected":true}]},"subject":{"reference":"Patient/143372f5-cf0d-420f-a55c-63e0c74e8013"},"effectiveDateTime":"2025-09-29T07:35:00+00:00","issued":"2025-09-29T08:05:00+00:00","valueQuantity":{"value":1.6,"unit":"mg/dL","system":"http://unitsofmeasure.org","code":"mg/dL"}},"request":{"method":"PUT","url":"Observation/422f408f-c4d9-49df-93cc-220cc78efbfa"}},{"fullUrl":"https://madie.cms.gov/Coverage/IPPFail-Age17InpatientHospStartTime-61","resource":{"resourceType":"Coverage","id":"9223c4c9-554f-40b3-8981-a07577e7b907","meta":{"profile":["http://hl7.org/fhir/us/qicore/StructureDefinition/qicore-coverage"]},"status":"active","type":{"coding":[{"system":"https://nahdo.org/sopt","version":"9.2","code":"512","display":"Commercial Managed Care - PPO"}]},"beneficiary":{"reference":"Patient/143372f5-cf0d-420f-a55c-63e0c74e8013"},"period":{"start":"2023-12-01T00:00:00+00:00"},"payor":[{"reference":"Organization/024e2731-b045-43bf-80d2-684774c5b51c"}]},"request":{"method":"PUT","url":"Coverage/9223c4c9-554f-40b3-8981-a07577e7b907"}},{"fullUrl":"https://madie.cms.gov/Organization/IPPFail-Age17InpatientHospStartTime-98","resource":{"resourceType":"Organization","id":"024e2731-b045-43bf-80d2-684774c5b51c","meta":{"profile":["http://hl7.org/fhir/us/qicore/StructureDefinition/qicore-organization"]},"identifier":[{"use":"temp","system":"urn:oid:2.16.840.1.113883.4.4","value":"21-3259825"}],"active":true,"type":[{"coding":[{"system":"http://terminology.hl7.org/CodeSystem/organization-type","code":"pay","display":"Payer"}]}],"name":"Blue Cross Blue Shield of Texas","telecom":[{"system":"phone","value":"(+1) 972-766-6900"}],"address":[{"use":"billing","type":"postal","line":["P.O. Box 660044"],"city":"Dallas","state":"TX","postalCode":"75266-0044","country":"USA"}]},"request":{"method":"PUT","url":"Organization/024e2731-b045-43bf-80d2-684774c5b51c"}},{"fullUrl":"https://madie.cms.gov/MeasureReport/cb0c7ea9-1ae4-409b-820c-d4d836a8a603","resource":{"resourceType":"MeasureReport","id":"cb0c7ea9-1ae4-409b-820c-d4d836a8a603","meta":{"profile":["http://hl7.org/fhir/us/cqfmeasures/StructureDefinition/test-case-cqfm"]},"contained":[{"resourceType":"Parameters","id":"0f26925f-6941-4c30-9ca2-0760468535b8-parameters","parameter":[{"name":"subject","valueString":"143372f5-cf0d-420f-a55c-63e0c74e8013"}]}],"extension":[{"url":"http://hl7.org/fhir/us/cqfmeasures/StructureDefinition/cqfm-inputParameters","valueReference":{"reference":"#0f26925f-6941-4c30-9ca2-0760468535b8-parameters"}},{"url":"http://hl7.org/fhir/us/cqfmeasures/StructureDefinition/cqfm-testCaseDescription","valueMarkdown":"Not 18 on INPT admission\nVScode: Initial Population=[]"}],"modifierExtension":[{"url":"http://hl7.org/fhir/us/cqfmeasures/StructureDefinition/cqfm-isTestCase","valueBoolean":true}],"status":"complete","type":"individual","measure":"https://madie.cms.gov/Measure/HospitalHarmAcuteKidneyInjuryFHIR","period":{"start":"2025-01-01","end":"2025-12-31"},"group":[{"population":[{"code":{"coding":[{"system":"http://terminology.hl7.org/CodeSystem/measure-population","code":"initial-population","display":"Initial Population"}]},"count":0},{"code":{"coding":[{"system":"http://terminology.hl7.org/CodeSystem/measure-population","code":"denominator","display":"Denominator"}]},"count":0},{"code":{"coding":[{"system":"http://terminology.hl7.org/CodeSystem/measure-population","code":"denominator-exclusion","display":"Denominator Exclusion"}]},"count":0},{"code":{"coding":[{"system":"http://terminology.hl7.org/CodeSystem/measure-population","code":"numerator","display":"Numerator"}]},"count":0}]}]},"request":{"method":"PUT","url":"MeasureReport/cb0c7ea9-1ae4-409b-820c-d4d836a8a603"}}]}