{"resourceType":"Bundle","id":"tests-143372f5-cf0d-420f-a55c-63e0c74e8013-bundle","type":"transaction","entry":[{"fullUrl":"https://madie.cms.gov/Patient/143372f5-cf0d-420f-a55c-63e0c74e8013","resource":{"resourceType":"Patient","id":"143372f5-cf0d-420f-a55c-63e0c74e8013","meta":{"profile":["http://hl7.org/fhir/us/qicore/StructureDefinition/qicore-patient"]},"text":{"status":"generated","div":"<div xmlns=\"http://www.w3.org/1999/xhtml\"><div class=\"hapiHeaderText\">Age17InpatientHospStartTime <b>IPPFail </b></div><table class=\"hapiPropertyTable\"><tbody><tr><td>Identifier</td><td>f0eda1c9668fdacdcad3378589bf6e0a71e7dec1618f14fca4d442ec96e402b1</td></tr><tr><td>Date of birth</td><td><span>30 September 2006</span></td></tr></tbody></table></div>"},"extension":[{"url":"http://hl7.org/fhir/us/core/StructureDefinition/us-core-race","extension":[{"url":"ombCategory","valueCoding":{"system":"urn:oid:2.16.840.1.113883.6.238","code":"1002-5","display":"American Indian or Alaska Native","userSelected":true}},{"url":"text","valueString":"American Indian or Alaska Native"}]},{"url":"http://hl7.org/fhir/us/core/StructureDefinition/us-core-ethnicity","extension":[{"url":"ombCategory","valueCoding":{"system":"urn:oid:2.16.840.1.113883.6.238","code":"2135-2","display":"Hispanic or Latino","userSelected":true}},{"url":"text","valueString":"Hispanic or Latino"}]}],"identifier":[{"type":{"coding":[{"system":"http://terminology.hl7.org/CodeSystem/v2-0203","code":"MR"}]},"system":"http://bonnie-fhir.healthit.gov/","value":"IPPFail-Age17InpatientHospStartTime"}],"active":true,"name":[{"use":"usual","family":"IPPFail","given":["Age17InpatientHospStartTime"]}],"gender":"female","birthDate":"2008-09-30"},"request":{"method":"PUT","url":"Patient/143372f5-cf0d-420f-a55c-63e0c74e8013"}},{"fullUrl":"https://madie.cms.gov/Encounter/IPPFail-Age17InpatientHospStartTime-01","resource":{"resourceType":"Encounter","id":"1a46f9b8-d17c-47ff-920a-d1c53235e937","meta":{"profile":["http://hl7.org/fhir/us/qicore/StructureDefinition/qicore-encounter"]},"status":"finished","class":{"system":"http://terminology.hl7.org/CodeSystem/v3-ActCode","code":"EMER","display":"emergency"},"type":[{"coding":[{"system":"http://snomed.info/sct","code":"4525004"}]}],"subject":{"reference":"Patient/143372f5-cf0d-420f-a55c-63e0c74e8013"},"period":{"start":"2025-09-29T06:00:00.000Z","end":"2025-09-29T08:00:00.000Z"}},"request":{"method":"PUT","url":"Encounter/1a46f9b8-d17c-47ff-920a-d1c53235e937"}},{"fullUrl":"https://madie.cms.gov/Encounter/IPPFail-Age17InpatientHospStartTime-02","resource":{"resourceType":"Encounter","id":"022b7e8e-3dbe-412c-a290-b60c687784ec","meta":{"profile":["http://hl7.org/fhir/us/qicore/StructureDefinition/qicore-encounter"]},"status":"finished","class":{"system":"http://terminology.hl7.org/CodeSystem/v3-ActCode","code":"IMP","display":"inpatient encounter"},"type":[{"coding":[{"system":"http://snomed.info/sct","code":"183452005"}]}],"subject":{"reference":"Patient/143372f5-cf0d-420f-a55c-63e0c74e8013"},"period":{"start":"2025-09-29T08:00:00.000Z","end":"2025-10-03T20:00:00.000Z"}},"request":{"method":"PUT","url":"Encounter/022b7e8e-3dbe-412c-a290-b60c687784ec"}},{"fullUrl":"https://madie.cms.gov/MedicationAdministration/IPPFail-Age17InpatientHospStartTime-21","resource":{"resourceType":"MedicationAdministration","id":"c289a7fd-06a6-44be-aacb-12dfa90a2bc7","meta":{"profile":["http://hl7.org/fhir/us/qicore/StructureDefinition/qicore-medicationadministration"]},"status":"completed","medicationCodeableConcept":{"coding":[{"system":"http://www.nlm.nih.gov/research/umls/rxnorm","code":"1010600"}]},"subject":{"reference":"Patient/143372f5-cf0d-420f-a55c-63e0c74e8013"},"effectivePeriod":{"start":"2025-09-29T08:00:00.000Z","end":"2025-09-29T08:15:00.000Z"}},"request":{"method":"PUT","url":"MedicationAdministration/c289a7fd-06a6-44be-aacb-12dfa90a2bc7"}},{"fullUrl":"https://madie.cms.gov/Observation/IPPFail-Age17InpatientHospStartTime-19","resource":{"resourceType":"Observation","id":"c72b2f03-2e1e-4ab1-8283-ad66540221ac","meta":{"profile":["http://hl7.org/fhir/us/qicore/StructureDefinition/qicore-observation"]},"status":"final","category":[{"coding":[{"system":"http://terminology.hl7.org/CodeSystem/observation-category","code":"laboratory","display":"Laboratory"}]}],"code":{"coding":[{"system":"http://loinc.org","version":"2.72","code":"2160-0","display":"Creatinine [Mass/volume] in Serum or Plasma","userSelected":true}]},"subject":{"reference":"Patient/143372f5-cf0d-420f-a55c-63e0c74e8013"},"effectiveDateTime":"2025-10-01T07:50:00+00:00","issued":"2025-10-01T08:20:00+00:00","valueQuantity":{"value":0.6,"unit":"mg/dL","system":"http://unitsofmeasure.org","code":"mg/dL"}},"request":{"method":"PUT","url":"Observation/c72b2f03-2e1e-4ab1-8283-ad66540221ac"}},{"fullUrl":"https://madie.cms.gov/Observation/IPPFail-Age17InpatientHospStartTime-18","resource":{"resourceType":"Observation","id":"3e816f08-dbae-4855-91ca-f6619aadc8f2","meta":{"profile":["http://hl7.org/fhir/us/qicore/StructureDefinition/qicore-observation"]},"status":"final","category":[{"coding":[{"system":"http://terminology.hl7.org/CodeSystem/observation-category","code":"laboratory","display":"Laboratory"}]}],"code":{"coding":[{"system":"http://loinc.org","code":"2160-0","display":"Creatinine [Mass/volume] in Serum or Plasma"}]},"subject":{"reference":"Patient/143372f5-cf0d-420f-a55c-63e0c74e8013"},"effectiveDateTime":"2025-09-29T07:59:00+00:00","issued":"2025-09-29T08:29:00+00:00","valueQuantity":{"value":0.8,"unit":"mg/dL","system":"http://unitsofmeasure.org","code":"mg/dL"}},"request":{"method":"PUT","url":"Observation/3e816f08-dbae-4855-91ca-f6619aadc8f2"}},{"fullUrl":"https://madie.cms.gov/Observation/IPPFail-Age17InpatientHospStartTime-17","resource":{"resourceType":"Observation","id":"0651ca6b-fe99-4794-84a6-dc2eed6765b1","meta":{"profile":["http://hl7.org/fhir/us/qicore/StructureDefinition/qicore-observation"]},"status":"final","category":[{"coding":[{"system":"http://terminology.hl7.org/CodeSystem/observation-category","code":"laboratory","display":"Laboratory"}]}],"code":{"coding":[{"system":"http://loinc.org","version":"2.72","code":"2160-0","display":"Creatinine [Mass/volume] in Serum or Plasma","userSelected":true}]},"subject":{"reference":"Patient/143372f5-cf0d-420f-a55c-63e0c74e8013"},"effectiveDateTime":"2025-09-29T08:01:00+00:00","issued":"2025-09-29T08:31:00+00:00","valueQuantity":{"value":1.1,"unit":"mg/dL","system":"http://unitsofmeasure.org","code":"mg/dL"}},"request":{"method":"PUT","url":"Observation/0651ca6b-fe99-4794-84a6-dc2eed6765b1"}},{"fullUrl":"https://madie.cms.gov/Observation/IPPFail-Age17InpatientHospStartTime-15","resource":{"resourceType":"Observation","id":"29a46166-43f2-4d33-b706-540950b9cd88","meta":{"profile":["http://hl7.org/fhir/us/qicore/StructureDefinition/qicore-observation"]},"status":"final","category":[{"coding":[{"system":"http://terminology.hl7.org/CodeSystem/observation-category","code":"laboratory","display":"Laboratory"}]}],"code":{"coding":[{"system":"http://loinc.org","code":"2160-0","display":"Creatinine [Mass/volume] in Serum or Plasma"}]},"subject":{"reference":"Patient/143372f5-cf0d-420f-a55c-63e0c74e8013"},"effectiveDateTime":"2025-09-29T07:00:00+00:00","issued":"2025-09-29T07:30:00+00:00","valueQuantity":{"value":0.9,"unit":"mg/dL","system":"http://unitsofmeasure.org","code":"mg/dL"}},"request":{"method":"PUT","url":"Observation/29a46166-43f2-4d33-b706-540950b9cd88"}},{"fullUrl":"https://madie.cms.gov/Observation/IPPFail-Age17InpatientHospStartTime-16","resource":{"resourceType":"Observation","id":"ebaca49b-7996-4069-9f3d-a2db4e397b7f","meta":{"profile":["http://hl7.org/fhir/us/qicore/StructureDefinition/qicore-observation"]},"status":"final","category":[{"coding":[{"system":"http://terminology.hl7.org/CodeSystem/observation-category","code":"laboratory","display":"Laboratory"}]}],"code":{"coding":[{"system":"http://loinc.org","version":"2.72","code":"2160-0","display":"Creatinine [Mass/volume] in Serum or Plasma","userSelected":true}]},"subject":{"reference":"Patient/143372f5-cf0d-420f-a55c-63e0c74e8013"},"effectiveDateTime":"2025-09-29T07:35:00+00:00","issued":"2025-09-29T08:05:00+00:00","valueQuantity":{"value":1.6,"unit":"mg/dL","system":"http://unitsofmeasure.org","code":"mg/dL"}},"request":{"method":"PUT","url":"Observation/ebaca49b-7996-4069-9f3d-a2db4e397b7f"}},{"fullUrl":"https://madie.cms.gov/Coverage/IPPFail-Age17InpatientHospStartTime-61","resource":{"resourceType":"Coverage","id":"fe051cf3-b914-4130-b366-820a34375960","meta":{"profile":["http://hl7.org/fhir/us/qicore/StructureDefinition/qicore-coverage"]},"status":"active","type":{"coding":[{"system":"https://nahdo.org/sopt","version":"9.2","code":"512","display":"Commercial Managed Care - PPO"}]},"beneficiary":{"reference":"Patient/143372f5-cf0d-420f-a55c-63e0c74e8013"},"period":{"start":"2023-12-01T00:00:00+00:00"},"payor":[{"reference":"Organization/84b56847-ad40-4bf6-b612-9e42ad2a84e5"}]},"request":{"method":"PUT","url":"Coverage/fe051cf3-b914-4130-b366-820a34375960"}},{"fullUrl":"https://madie.cms.gov/Organization/IPPFail-Age17InpatientHospStartTime-98","resource":{"resourceType":"Organization","id":"84b56847-ad40-4bf6-b612-9e42ad2a84e5","meta":{"profile":["http://hl7.org/fhir/us/qicore/StructureDefinition/qicore-organization"]},"identifier":[{"use":"temp","system":"urn:oid:2.16.840.1.113883.4.4","value":"21-3259825"}],"active":true,"type":[{"coding":[{"system":"http://terminology.hl7.org/CodeSystem/organization-type","code":"pay","display":"Payer"}]}],"name":"Blue Cross Blue Shield of Texas","telecom":[{"system":"phone","value":"(+1) 972-766-6900"}],"address":[{"use":"billing","type":"postal","line":["P.O. Box 660044"],"city":"Dallas","state":"TX","postalCode":"75266-0044","country":"USA"}]},"request":{"method":"PUT","url":"Organization/84b56847-ad40-4bf6-b612-9e42ad2a84e5"}},{"fullUrl":"https://madie.cms.gov/MeasureReport/cb0c7ea9-1ae4-409b-820c-d4d836a8a603","resource":{"resourceType":"MeasureReport","id":"cb0c7ea9-1ae4-409b-820c-d4d836a8a603","meta":{"profile":["http://hl7.org/fhir/us/cqfmeasures/StructureDefinition/test-case-cqfm"]},"contained":[{"resourceType":"Parameters","id":"0f26925f-6941-4c30-9ca2-0760468535b8-parameters","parameter":[{"name":"subject","valueString":"143372f5-cf0d-420f-a55c-63e0c74e8013"}]}],"extension":[{"url":"http://hl7.org/fhir/us/cqfmeasures/StructureDefinition/cqfm-inputParameters","valueReference":{"reference":"#0f26925f-6941-4c30-9ca2-0760468535b8-parameters"}},{"url":"http://hl7.org/fhir/us/cqfmeasures/StructureDefinition/cqfm-testCaseDescription","valueMarkdown":"Not 18 on INPT admission\nVScode: Initial Population=[]"}],"modifierExtension":[{"url":"http://hl7.org/fhir/us/cqfmeasures/StructureDefinition/cqfm-isTestCase","valueBoolean":true}],"status":"complete","type":"individual","measure":"https://madie.cms.gov/Measure/HospitalHarmAcuteKidneyInjuryFHIR","period":{"start":"2025-01-01","end":"2025-12-31"},"group":[{"population":[{"code":{"coding":[{"system":"http://terminology.hl7.org/CodeSystem/measure-population","code":"initial-population","display":"Initial Population"}]},"count":0},{"code":{"coding":[{"system":"http://terminology.hl7.org/CodeSystem/measure-population","code":"denominator","display":"Denominator"}]},"count":0},{"code":{"coding":[{"system":"http://terminology.hl7.org/CodeSystem/measure-population","code":"denominator-exclusion","display":"Denominator Exclusion"}]},"count":0},{"code":{"coding":[{"system":"http://terminology.hl7.org/CodeSystem/measure-population","code":"numerator","display":"Numerator"}]},"count":0}]}]},"request":{"method":"PUT","url":"MeasureReport/cb0c7ea9-1ae4-409b-820c-d4d836a8a603"}}]}