{"resourceType":"Bundle","id":"tests-e4178f9a-886d-45b8-b5a4-7ec61f7d4201-bundle","type":"transaction","entry":[{"fullUrl":"https://madie.cms.gov/Patient/e4178f9a-886d-45b8-b5a4-7ec61f7d4201","resource":{"resourceType":"Patient","id":"e4178f9a-886d-45b8-b5a4-7ec61f7d4201","meta":{"profile":["http://hl7.org/fhir/us/qicore/StructureDefinition/qicore-patient"]},"text":{"status":"generated","div":"<div xmlns=\"http://www.w3.org/1999/xhtml\"><div class=\"hapiHeaderText\">Turns 18 day of Encounter <b>NUMERPass </b></div><table class=\"hapiPropertyTable\"><tbody><tr><td>Identifier</td><td>f0eda1c9668fdacdcad3378589bf6e0a71e7dec1618f14fca4d442ec96e402b1</td></tr><tr><td>Date of birth</td><td><span>29 September 2006</span></td></tr></tbody></table></div>"},"extension":[{"url":"http://hl7.org/fhir/us/core/StructureDefinition/us-core-race","extension":[{"url":"ombCategory","valueCoding":{"system":"urn:oid:2.16.840.1.113883.6.238","code":"1002-5","display":"American Indian or Alaska Native","userSelected":true}},{"url":"text","valueString":"American Indian or Alaska Native"}]},{"url":"http://hl7.org/fhir/us/core/StructureDefinition/us-core-ethnicity","extension":[{"url":"ombCategory","valueCoding":{"system":"urn:oid:2.16.840.1.113883.6.238","code":"2135-2","display":"Hispanic or Latino","userSelected":true}},{"url":"text","valueString":"Hispanic or Latino"}]}],"identifier":[{"type":{"coding":[{"system":"http://terminology.hl7.org/CodeSystem/v2-0203","code":"MR"}]},"system":"http://bonnie-fhir.healthit.gov/","value":"NUMERPass-TwoEncountersSecondCreatinineDoubled"}],"active":true,"name":[{"use":"usual","family":"NUMERPass","given":["TwoEncountersSecondCreatinineDoubled"]}],"gender":"female","birthDate":"1982-10-10"},"request":{"method":"PUT","url":"Patient/e4178f9a-886d-45b8-b5a4-7ec61f7d4201"}},{"fullUrl":"https://madie.cms.gov/Encounter/NUMERPass-TwoEncountersSecondCreatinineDoubled-01","resource":{"resourceType":"Encounter","id":"286e8e53-7188-49db-9d16-080807653f50","meta":{"profile":["http://hl7.org/fhir/us/qicore/StructureDefinition/qicore-encounter"]},"status":"finished","class":{"system":"http://terminology.hl7.org/CodeSystem/v3-ActCode","code":"IMP","display":"inpatient encounter"},"type":[{"coding":[{"system":"http://snomed.info/sct","code":"183452005"}]}],"subject":{"reference":"Patient/e4178f9a-886d-45b8-b5a4-7ec61f7d4201"},"period":{"start":"2025-09-29T08:00:00.000Z","end":"2025-10-03T20:00:00.000Z"}},"request":{"method":"PUT","url":"Encounter/286e8e53-7188-49db-9d16-080807653f50"}},{"fullUrl":"https://madie.cms.gov/Encounter/NUMERPass-TwoEncountersSecondCreatinineDoubled-02","resource":{"resourceType":"Encounter","id":"d866d370-218b-45b6-b66d-86f37a6bc510","meta":{"profile":["http://hl7.org/fhir/us/qicore/StructureDefinition/qicore-encounter"]},"status":"finished","class":{"system":"http://terminology.hl7.org/CodeSystem/v3-ActCode","code":"IMP","display":"inpatient encounter"},"type":[{"coding":[{"system":"http://snomed.info/sct","code":"183452005"}]}],"subject":{"reference":"Patient/e4178f9a-886d-45b8-b5a4-7ec61f7d4201"},"period":{"start":"2025-11-01T08:00:00.000Z","end":"2025-11-06T20:15:00.000Z"}},"request":{"method":"PUT","url":"Encounter/d866d370-218b-45b6-b66d-86f37a6bc510"}},{"fullUrl":"https://madie.cms.gov/Observation/NUMERPass-TwoEncountersSecondCreatinineDoubled-21","resource":{"resourceType":"Observation","id":"8432c2e5-cc21-4e22-825f-c18be2b4eed3","meta":{"profile":["http://hl7.org/fhir/us/qicore/StructureDefinition/qicore-observation"]},"status":"final","category":[{"coding":[{"system":"http://terminology.hl7.org/CodeSystem/observation-category","code":"laboratory","display":"Laboratory"}]}],"code":{"coding":[{"system":"http://loinc.org","version":"2.72","code":"2160-0","display":"Creatinine [Mass/volume] in Serum or Plasma","userSelected":true}]},"subject":{"reference":"Patient/e4178f9a-886d-45b8-b5a4-7ec61f7d4201"},"effectiveDateTime":"2025-11-03T10:15:00+00:00","issued":"2025-11-03T10:45:00+00:00","valueQuantity":{"value":1.82,"unit":"mg/dL","system":"http://unitsofmeasure.org","code":"mg/dL"}},"request":{"method":"PUT","url":"Observation/8432c2e5-cc21-4e22-825f-c18be2b4eed3"}},{"fullUrl":"https://madie.cms.gov/Observation/NUMERPass-TwoEncountersSecondCreatinineDoubled-20","resource":{"resourceType":"Observation","id":"11bb884b-bf42-4827-9033-b4f63861eac5","meta":{"profile":["http://hl7.org/fhir/us/qicore/StructureDefinition/qicore-observation"]},"status":"final","category":[{"coding":[{"system":"http://terminology.hl7.org/CodeSystem/observation-category","code":"laboratory","display":"Laboratory"}]}],"code":{"coding":[{"system":"http://loinc.org","version":"2.72","code":"2160-0","display":"Creatinine [Mass/volume] in Serum or Plasma","userSelected":true}]},"subject":{"reference":"Patient/e4178f9a-886d-45b8-b5a4-7ec61f7d4201"},"effectiveDateTime":"2025-11-01T10:15:00+00:00","issued":"2025-11-01T10:45:00+00:00","valueQuantity":{"value":0.91,"unit":"mg/dL","system":"http://unitsofmeasure.org","code":"mg/dL"}},"request":{"method":"PUT","url":"Observation/11bb884b-bf42-4827-9033-b4f63861eac5"}},{"fullUrl":"https://madie.cms.gov/Observation/NUMERPass-TwoEncountersSecondCreatinineDoubled-19","resource":{"resourceType":"Observation","id":"4865f127-4e5d-48ac-b057-57ae9f439693","meta":{"profile":["http://hl7.org/fhir/us/qicore/StructureDefinition/qicore-observation"]},"status":"final","category":[{"coding":[{"system":"http://terminology.hl7.org/CodeSystem/observation-category","code":"laboratory","display":"Laboratory"}]}],"code":{"coding":[{"system":"http://loinc.org","version":"2.72","code":"2160-0","display":"Creatinine [Mass/volume] in Serum or Plasma","userSelected":true}]},"subject":{"reference":"Patient/e4178f9a-886d-45b8-b5a4-7ec61f7d4201"},"effectiveDateTime":"2025-11-01T08:15:00+00:00","issued":"2025-11-01T08:45:00+00:00","valueQuantity":{"value":0.91,"unit":"mg/dL","system":"http://unitsofmeasure.org","code":"mg/dL"}},"request":{"method":"PUT","url":"Observation/4865f127-4e5d-48ac-b057-57ae9f439693"}},{"fullUrl":"https://madie.cms.gov/Observation/NUMERPass-TwoEncountersSecondCreatinineDoubled-18","resource":{"resourceType":"Observation","id":"aeec1c64-cd24-4ff5-8f70-6e21e7754b5f","meta":{"profile":["http://hl7.org/fhir/us/qicore/StructureDefinition/qicore-observation"]},"status":"final","category":[{"coding":[{"system":"http://terminology.hl7.org/CodeSystem/observation-category","code":"laboratory","display":"Laboratory"}]}],"code":{"coding":[{"system":"http://loinc.org","code":"2160-0","display":"Creatinine [Mass/volume] in Serum or Plasma"}]},"subject":{"reference":"Patient/e4178f9a-886d-45b8-b5a4-7ec61f7d4201"},"effectiveDateTime":"2025-10-01T09:01:00+00:00","issued":"2025-10-01T09:31:00+00:00","valueQuantity":{"value":1.79,"unit":"mg/dL","system":"http://unitsofmeasure.org","code":"mg/dL"}},"request":{"method":"PUT","url":"Observation/aeec1c64-cd24-4ff5-8f70-6e21e7754b5f"}},{"fullUrl":"https://madie.cms.gov/Observation/NUMERPass-TwoEncountersSecondCreatinineDoubled-17","resource":{"resourceType":"Observation","id":"8d3678cb-56a4-4b0f-bd8d-7154c64cb583","meta":{"profile":["http://hl7.org/fhir/us/qicore/StructureDefinition/qicore-observation"]},"status":"final","category":[{"coding":[{"system":"http://terminology.hl7.org/CodeSystem/observation-category","code":"laboratory","display":"Laboratory"}]}],"code":{"coding":[{"system":"http://loinc.org","version":"2.72","code":"2160-0","display":"Creatinine [Mass/volume] in Serum or Plasma","userSelected":true}]},"subject":{"reference":"Patient/e4178f9a-886d-45b8-b5a4-7ec61f7d4201"},"effectiveDateTime":"2025-10-01T08:01:00+00:00","issued":"2025-10-01T08:31:00+00:00","valueQuantity":{"value":0.9,"unit":"mg/dL","system":"http://unitsofmeasure.org","code":"mg/dL"}},"request":{"method":"PUT","url":"Observation/8d3678cb-56a4-4b0f-bd8d-7154c64cb583"}},{"fullUrl":"https://madie.cms.gov/Observation/NUMERPass-TwoEncountersSecondCreatinineDoubled-15","resource":{"resourceType":"Observation","id":"fe2ddcbb-5bbe-49d4-b052-96fb4d7190bf","meta":{"profile":["http://hl7.org/fhir/us/qicore/StructureDefinition/qicore-observation"]},"status":"final","category":[{"coding":[{"system":"http://terminology.hl7.org/CodeSystem/observation-category","code":"laboratory","display":"Laboratory"}]}],"code":{"coding":[{"system":"http://loinc.org","code":"2160-0","display":"Creatinine [Mass/volume] in Serum or Plasma"}]},"subject":{"reference":"Patient/e4178f9a-886d-45b8-b5a4-7ec61f7d4201"},"effectiveDateTime":"2025-10-01T07:00:00+00:00","issued":"2025-10-01T07:30:00+00:00","valueQuantity":{"value":0.9,"unit":"mg/dL","system":"http://unitsofmeasure.org","code":"mg/dL"}},"request":{"method":"PUT","url":"Observation/fe2ddcbb-5bbe-49d4-b052-96fb4d7190bf"}},{"fullUrl":"https://madie.cms.gov/Observation/NUMERPass-TwoEncountersSecondCreatinineDoubled-16","resource":{"resourceType":"Observation","id":"53c65773-7486-4061-ae8e-8afd927752fc","meta":{"profile":["http://hl7.org/fhir/us/qicore/StructureDefinition/qicore-observation"]},"status":"final","category":[{"coding":[{"system":"http://terminology.hl7.org/CodeSystem/observation-category","code":"laboratory","display":"Laboratory"}]}],"code":{"coding":[{"system":"http://loinc.org","version":"2.72","code":"2160-0","display":"Creatinine [Mass/volume] in Serum or Plasma","userSelected":true}]},"subject":{"reference":"Patient/e4178f9a-886d-45b8-b5a4-7ec61f7d4201"},"effectiveDateTime":"2025-10-01T07:35:00+00:00","issued":"2025-10-01T08:05:00+00:00","valueQuantity":{"value":0.9,"unit":"mg/dL","system":"http://unitsofmeasure.org","code":"mg/dL"}},"request":{"method":"PUT","url":"Observation/53c65773-7486-4061-ae8e-8afd927752fc"}},{"fullUrl":"https://madie.cms.gov/Coverage/NUMERPass-TwoEncountersSecondCreatinineDoubled-61","resource":{"resourceType":"Coverage","id":"6f41b0c4-6a77-449d-a268-f9782a6fa68c","meta":{"profile":["http://hl7.org/fhir/us/qicore/StructureDefinition/qicore-coverage"]},"status":"active","type":{"coding":[{"system":"https://nahdo.org/sopt","version":"9.2","code":"211","display":"Medicaid HMO"}]},"beneficiary":{"reference":"Patient/e4178f9a-886d-45b8-b5a4-7ec61f7d4201"},"period":{"start":"2023-12-01T00:00:00+00:00"},"payor":[{"reference":"Organization/80573fa1-cf83-4e9a-8f21-86a018689678"}]},"request":{"method":"PUT","url":"Coverage/6f41b0c4-6a77-449d-a268-f9782a6fa68c"}},{"fullUrl":"https://madie.cms.gov/Organization/NUMERPass-TwoEncountersSecondCreatinineDoubled-98","resource":{"resourceType":"Organization","id":"80573fa1-cf83-4e9a-8f21-86a018689678","meta":{"profile":["http://hl7.org/fhir/us/qicore/StructureDefinition/qicore-organization"]},"identifier":[{"use":"temp","system":"urn:oid:2.16.840.1.113883.4.4","value":"21-3259825"}],"active":true,"type":[{"coding":[{"system":"http://terminology.hl7.org/CodeSystem/organization-type","code":"pay","display":"Payer"}]}],"name":"Blue Cross Blue Shield of Texas","telecom":[{"system":"phone","value":"(+1) 972-766-6900"}],"address":[{"use":"billing","type":"postal","line":["P.O. Box 660044"],"city":"Dallas","state":"TX","postalCode":"75266-0044","country":"USA"}]},"request":{"method":"PUT","url":"Organization/80573fa1-cf83-4e9a-8f21-86a018689678"}},{"fullUrl":"https://madie.cms.gov/MeasureReport/989dae44-58d1-4054-b018-9a3c65f0daba","resource":{"resourceType":"MeasureReport","id":"989dae44-58d1-4054-b018-9a3c65f0daba","meta":{"profile":["http://hl7.org/fhir/us/cqfmeasures/StructureDefinition/test-case-cqfm"]},"contained":[{"resourceType":"Parameters","id":"eff124c2-5b28-4cc8-96b5-9aaa12056296-parameters","parameter":[{"name":"subject","valueString":"e4178f9a-886d-45b8-b5a4-7ec61f7d4201"}]}],"extension":[{"url":"http://hl7.org/fhir/us/cqfmeasures/StructureDefinition/cqfm-inputParameters","valueReference":{"reference":"#eff124c2-5b28-4cc8-96b5-9aaa12056296-parameters"}},{"url":"http://hl7.org/fhir/us/cqfmeasures/StructureDefinition/cqfm-testCaseDescription","valueMarkdown":"IP Enc #2 w/creat after 48 hrs: 1.82. This is double of earlier creat .91. Meets Numerator for second Encounter"}],"modifierExtension":[{"url":"http://hl7.org/fhir/us/cqfmeasures/StructureDefinition/cqfm-isTestCase","valueBoolean":true}],"status":"complete","type":"individual","measure":"https://madie.cms.gov/Measure/HospitalHarmAcuteKidneyInjuryFHIR","period":{"start":"2025-01-01","end":"2025-12-31"},"group":[{"population":[{"code":{"coding":[{"system":"http://terminology.hl7.org/CodeSystem/measure-population","code":"initial-population","display":"Initial Population"}]},"count":2},{"code":{"coding":[{"system":"http://terminology.hl7.org/CodeSystem/measure-population","code":"denominator","display":"Denominator"}]},"count":2},{"code":{"coding":[{"system":"http://terminology.hl7.org/CodeSystem/measure-population","code":"denominator-exclusion","display":"Denominator Exclusion"}]},"count":0},{"code":{"coding":[{"system":"http://terminology.hl7.org/CodeSystem/measure-population","code":"numerator","display":"Numerator"}]},"count":1}]}]},"request":{"method":"PUT","url":"MeasureReport/989dae44-58d1-4054-b018-9a3c65f0daba"}}]}