{"resourceType":"Bundle","id":"tests-7d065cf3-b345-4761-a9cb-1246372b933f-bundle","type":"transaction","entry":[{"fullUrl":"https://madie.cms.gov/Patient/7d065cf3-b345-4761-a9cb-1246372b933f","resource":{"resourceType":"Patient","id":"7d065cf3-b345-4761-a9cb-1246372b933f","meta":{"profile":["http://hl7.org/fhir/us/qicore/StructureDefinition/qicore-patient"]},"text":{"status":"generated","div":"<div xmlns=\"http://www.w3.org/1999/xhtml\"><div class=\"hapiHeaderText\">Turns 18 day of Encounter <b>NUMERPass </b></div><table class=\"hapiPropertyTable\"><tbody><tr><td>Identifier</td><td>f0eda1c9668fdacdcad3378589bf6e0a71e7dec1618f14fca4d442ec96e402b1</td></tr><tr><td>Date of birth</td><td><span>29 September 2006</span></td></tr></tbody></table></div>"},"extension":[{"url":"http://hl7.org/fhir/us/core/StructureDefinition/us-core-race","extension":[{"url":"ombCategory","valueCoding":{"system":"urn:oid:2.16.840.1.113883.6.238","code":"1002-5","display":"American Indian or Alaska Native","userSelected":true}},{"url":"text","valueString":"American Indian or Alaska Native"}]},{"url":"http://hl7.org/fhir/us/core/StructureDefinition/us-core-ethnicity","extension":[{"url":"ombCategory","valueCoding":{"system":"urn:oid:2.16.840.1.113883.6.238","code":"2135-2","display":"Hispanic or Latino","userSelected":true}},{"url":"text","valueString":"Hispanic or Latino"}]}],"identifier":[{"type":{"coding":[{"system":"http://terminology.hl7.org/CodeSystem/v2-0203","code":"MR"}]},"system":"http://bonnie-fhir.healthit.gov/","value":"NUMERPass-SCrIncrease2xExtended"}],"active":true,"name":[{"use":"usual","family":"NUMERPass","given":["SCrIncrease2xExtended"]}],"gender":"male","birthDate":"1982-10-10"},"request":{"method":"PUT","url":"Patient/7d065cf3-b345-4761-a9cb-1246372b933f"}},{"fullUrl":"https://madie.cms.gov/Encounter/NUMERPass-SCrIncrease2xExtended-01","resource":{"resourceType":"Encounter","id":"d9cca59b-7f6c-4605-97f1-c3bd7e926d50","meta":{"profile":["http://hl7.org/fhir/us/qicore/StructureDefinition/qicore-encounter"]},"status":"finished","class":{"system":"http://terminology.hl7.org/CodeSystem/v3-ActCode","code":"EMER","display":"emergency"},"type":[{"coding":[{"system":"http://snomed.info/sct","code":"4525004"}]}],"subject":{"reference":"Patient/7d065cf3-b345-4761-a9cb-1246372b933f"},"period":{"start":"2025-09-29T08:00:00.000Z","end":"2025-09-30T20:00:00.000Z"}},"request":{"method":"PUT","url":"Encounter/d9cca59b-7f6c-4605-97f1-c3bd7e926d50"}},{"fullUrl":"https://madie.cms.gov/Encounter/NUMERPass-SCrIncrease2xExtended-02","resource":{"resourceType":"Encounter","id":"4650f77a-6ae7-47c2-a972-7ca5b2fe307f","meta":{"profile":["http://hl7.org/fhir/us/qicore/StructureDefinition/qicore-encounter"]},"status":"finished","class":{"system":"http://terminology.hl7.org/CodeSystem/v3-ActCode","code":"IMP","display":"inpatient encounter"},"type":[{"coding":[{"system":"http://snomed.info/sct","code":"183452005"}]}],"subject":{"reference":"Patient/7d065cf3-b345-4761-a9cb-1246372b933f"},"period":{"start":"2025-09-29T20:00:00.000Z","end":"2025-10-11T08:15:00.000Z"}},"request":{"method":"PUT","url":"Encounter/4650f77a-6ae7-47c2-a972-7ca5b2fe307f"}},{"fullUrl":"https://madie.cms.gov/Observation/NUMERPass-SCrIncrease2xExtended-16","resource":{"resourceType":"Observation","id":"891748d8-39ea-4a6b-bf94-5e5d1234ab48","meta":{"profile":["http://hl7.org/fhir/us/qicore/StructureDefinition/qicore-observation"]},"status":"final","category":[{"coding":[{"system":"http://terminology.hl7.org/CodeSystem/observation-category","code":"laboratory","display":"Laboratory"}]}],"code":{"coding":[{"system":"http://loinc.org","version":"2.72","code":"2160-0","display":"Creatinine [Mass/volume] in Serum or Plasma","userSelected":true}]},"subject":{"reference":"Patient/7d065cf3-b345-4761-a9cb-1246372b933f"},"effectiveDateTime":"2025-09-30T09:00:00+00:00","issued":"2025-09-30T09:30:00+00:00","valueQuantity":{"value":1.1,"unit":"mg/dL","system":"http://unitsofmeasure.org","code":"mg/dL"}},"request":{"method":"PUT","url":"Observation/891748d8-39ea-4a6b-bf94-5e5d1234ab48"}},{"fullUrl":"https://madie.cms.gov/Observation/NUMERPass-SCrIncrease2xExtended-15","resource":{"resourceType":"Observation","id":"6681ca5d-cd90-4210-851a-3510e6ca1bfd","meta":{"profile":["http://hl7.org/fhir/us/qicore/StructureDefinition/qicore-observation"]},"status":"final","category":[{"coding":[{"system":"http://terminology.hl7.org/CodeSystem/observation-category","code":"laboratory","display":"Laboratory"}]}],"code":{"coding":[{"system":"http://loinc.org","version":"2.72","code":"2160-0","display":"Creatinine [Mass/volume] in Serum or Plasma","userSelected":true}]},"subject":{"reference":"Patient/7d065cf3-b345-4761-a9cb-1246372b933f"},"effectiveDateTime":"2025-09-30T08:00:00+00:00","issued":"2025-09-30T08:30:00+00:00","valueQuantity":{"value":1,"unit":"mg/dL","system":"http://unitsofmeasure.org","code":"mg/dL"}},"request":{"method":"PUT","url":"Observation/6681ca5d-cd90-4210-851a-3510e6ca1bfd"}},{"fullUrl":"https://madie.cms.gov/Observation/NUMERPass-SCrIncrease2xExtended-17","resource":{"resourceType":"Observation","id":"cec04e10-c368-4739-b5e9-02a2b5ff7103","meta":{"profile":["http://hl7.org/fhir/us/qicore/StructureDefinition/qicore-observation"]},"status":"final","category":[{"coding":[{"system":"http://terminology.hl7.org/CodeSystem/observation-category","code":"laboratory","display":"Laboratory"}]}],"code":{"coding":[{"system":"http://loinc.org","version":"2.72","code":"2160-0","display":"Creatinine [Mass/volume] in Serum or Plasma","userSelected":true}]},"subject":{"reference":"Patient/7d065cf3-b345-4761-a9cb-1246372b933f"},"effectiveDateTime":"2025-10-02T08:00:00+00:00","issued":"2025-10-02T08:30:00+00:00","valueQuantity":{"value":1.1,"unit":"mg/dL","system":"http://unitsofmeasure.org","code":"mg/dL"}},"request":{"method":"PUT","url":"Observation/cec04e10-c368-4739-b5e9-02a2b5ff7103"}},{"fullUrl":"https://madie.cms.gov/Observation/NUMERPass-SCrIncrease2xExtended-18","resource":{"resourceType":"Observation","id":"9824440c-05c6-4740-9c7c-05417d77afdb","meta":{"profile":["http://hl7.org/fhir/us/qicore/StructureDefinition/qicore-observation"]},"status":"final","category":[{"coding":[{"system":"http://terminology.hl7.org/CodeSystem/observation-category","code":"laboratory","display":"Laboratory"}]}],"code":{"coding":[{"system":"http://loinc.org","code":"2160-0","display":"Creatinine [Mass/volume] in Serum or Plasma"}]},"subject":{"reference":"Patient/7d065cf3-b345-4761-a9cb-1246372b933f"},"effectiveDateTime":"2025-10-03T08:00:00+00:00","issued":"2025-10-03T08:30:00+00:00","valueQuantity":{"value":2.2,"unit":"mg/dL","system":"http://unitsofmeasure.org","code":"mg/dL"}},"request":{"method":"PUT","url":"Observation/9824440c-05c6-4740-9c7c-05417d77afdb"}},{"fullUrl":"https://madie.cms.gov/Observation/NUMERPass-SCrIncrease2xExtended-19","resource":{"resourceType":"Observation","id":"b85dbf08-625c-4fee-97c9-be7d8c38026a","meta":{"profile":["http://hl7.org/fhir/us/qicore/StructureDefinition/qicore-observation"]},"status":"final","category":[{"coding":[{"system":"http://terminology.hl7.org/CodeSystem/observation-category","code":"laboratory","display":"Laboratory"}]}],"code":{"coding":[{"system":"http://loinc.org","code":"2160-0","display":"Creatinine [Mass/volume] in Serum or Plasma"}]},"subject":{"reference":"Patient/7d065cf3-b345-4761-a9cb-1246372b933f"},"effectiveDateTime":"2025-10-05T08:00:00+00:00","issued":"2025-10-05T08:30:00+00:00","valueQuantity":{"value":1.9,"unit":"mg/dL","system":"http://unitsofmeasure.org","code":"mg/dL"}},"request":{"method":"PUT","url":"Observation/b85dbf08-625c-4fee-97c9-be7d8c38026a"}},{"fullUrl":"https://madie.cms.gov/Observation/NUMERPass-SCrIncrease2xExtended-20","resource":{"resourceType":"Observation","id":"ed61b9ce-bcf4-4df2-8345-8d9767e478de","meta":{"profile":["http://hl7.org/fhir/us/qicore/StructureDefinition/qicore-observation"]},"status":"final","category":[{"coding":[{"system":"http://terminology.hl7.org/CodeSystem/observation-category","code":"laboratory","display":"Laboratory"}]}],"code":{"coding":[{"system":"http://loinc.org","code":"2160-0","display":"Creatinine [Mass/volume] in Serum or Plasma"}]},"subject":{"reference":"Patient/7d065cf3-b345-4761-a9cb-1246372b933f"},"effectiveDateTime":"2025-10-07T08:00:00+00:00","issued":"2025-10-07T08:30:00+00:00","valueQuantity":{"value":1.8,"unit":"mg/dL","system":"http://unitsofmeasure.org","code":"mg/dL"}},"request":{"method":"PUT","url":"Observation/ed61b9ce-bcf4-4df2-8345-8d9767e478de"}},{"fullUrl":"https://madie.cms.gov/Coverage/NUMERPass-SCrIncrease2xExtended-61","resource":{"resourceType":"Coverage","id":"b8e8e5a7-bdfc-426e-8740-934a36f935dd","meta":{"profile":["http://hl7.org/fhir/us/qicore/StructureDefinition/qicore-coverage"]},"status":"active","type":{"coding":[{"system":"https://nahdo.org/sopt","version":"9.2","code":"211","display":"Medicaid HMO"}]},"beneficiary":{"reference":"Patient/7d065cf3-b345-4761-a9cb-1246372b933f"},"period":{"start":"2023-12-01T00:00:00+00:00"},"payor":[{"reference":"Organization/33ead57e-5e04-40e4-95ea-bc3cdbd58917"}]},"request":{"method":"PUT","url":"Coverage/b8e8e5a7-bdfc-426e-8740-934a36f935dd"}},{"fullUrl":"https://madie.cms.gov/Organization/NUMERPass-SCrIncrease2xExtended-98","resource":{"resourceType":"Organization","id":"33ead57e-5e04-40e4-95ea-bc3cdbd58917","meta":{"profile":["http://hl7.org/fhir/us/qicore/StructureDefinition/qicore-organization"]},"identifier":[{"use":"temp","system":"urn:oid:2.16.840.1.113883.4.4","value":"21-3259825"}],"active":true,"type":[{"coding":[{"system":"http://terminology.hl7.org/CodeSystem/organization-type","code":"pay","display":"Payer"}]}],"name":"Blue Cross Blue Shield of Texas","telecom":[{"system":"phone","value":"(+1) 972-766-6900"}],"address":[{"use":"billing","type":"postal","line":["P.O. Box 660044"],"city":"Dallas","state":"TX","postalCode":"75266-0044","country":"USA"}]},"request":{"method":"PUT","url":"Organization/33ead57e-5e04-40e4-95ea-bc3cdbd58917"}},{"fullUrl":"https://madie.cms.gov/MeasureReport/aaeb9105-9aa9-4844-96c2-8a6329121f93","resource":{"resourceType":"MeasureReport","id":"aaeb9105-9aa9-4844-96c2-8a6329121f93","meta":{"profile":["http://hl7.org/fhir/us/cqfmeasures/StructureDefinition/test-case-cqfm"]},"contained":[{"resourceType":"Parameters","id":"062ff6bc-4728-46e3-884e-ab3e18674f3f-parameters","parameter":[{"name":"subject","valueString":"7d065cf3-b345-4761-a9cb-1246372b933f"}]}],"extension":[{"url":"http://hl7.org/fhir/us/cqfmeasures/StructureDefinition/cqfm-inputParameters","valueReference":{"reference":"#062ff6bc-4728-46e3-884e-ab3e18674f3f-parameters"}},{"url":"http://hl7.org/fhir/us/cqfmeasures/StructureDefinition/cqfm-testCaseDescription","valueMarkdown":"2TimeIncreaseInCreatUseRelevantPeriod MALE\nVScode: Numerator=[Encounter(id=NUMERPass-SCrIncrease2xExtended-02)]"}],"modifierExtension":[{"url":"http://hl7.org/fhir/us/cqfmeasures/StructureDefinition/cqfm-isTestCase","valueBoolean":true}],"status":"complete","type":"individual","measure":"https://madie.cms.gov/Measure/HospitalHarmAcuteKidneyInjuryFHIR","period":{"start":"2025-01-01","end":"2025-12-31"},"group":[{"population":[{"code":{"coding":[{"system":"http://terminology.hl7.org/CodeSystem/measure-population","code":"initial-population","display":"Initial Population"}]},"count":1},{"code":{"coding":[{"system":"http://terminology.hl7.org/CodeSystem/measure-population","code":"denominator","display":"Denominator"}]},"count":1},{"code":{"coding":[{"system":"http://terminology.hl7.org/CodeSystem/measure-population","code":"denominator-exclusion","display":"Denominator Exclusion"}]},"count":0},{"code":{"coding":[{"system":"http://terminology.hl7.org/CodeSystem/measure-population","code":"numerator","display":"Numerator"}]},"count":1}]}]},"request":{"method":"PUT","url":"MeasureReport/aaeb9105-9aa9-4844-96c2-8a6329121f93"}}]}