{"resourceType":"Bundle","id":"tests-3731688f-4261-42cc-943a-202b69beab97-bundle","type":"transaction","entry":[{"fullUrl":"https://madie.cms.gov/Patient/3731688f-4261-42cc-943a-202b69beab97","resource":{"resourceType":"Patient","id":"3731688f-4261-42cc-943a-202b69beab97","meta":{"profile":["http://hl7.org/fhir/us/qicore/StructureDefinition/qicore-patient"]},"text":{"status":"generated","div":"<div xmlns=\"http://www.w3.org/1999/xhtml\"><div class=\"hapiHeaderText\">Turns 18 day of Encounter <b>DENEXPass </b></div><table class=\"hapiPropertyTable\"><tbody><tr><td>Identifier</td><td>f0eda1c9668fdacdcad3378589bf6e0a71e7dec1618f14fca4d442ec96e402b1</td></tr><tr><td>Date of birth</td><td><span>29 September 2006</span></td></tr></tbody></table></div>"},"extension":[{"url":"http://hl7.org/fhir/us/core/StructureDefinition/us-core-race","extension":[{"url":"ombCategory","valueCoding":{"system":"urn:oid:2.16.840.1.113883.6.238","code":"1002-5","display":"American Indian or Alaska Native","userSelected":true}},{"url":"text","valueString":"American Indian or Alaska Native"}]},{"url":"http://hl7.org/fhir/us/core/StructureDefinition/us-core-ethnicity","extension":[{"url":"ombCategory","valueCoding":{"system":"urn:oid:2.16.840.1.113883.6.238","code":"2135-2","display":"Hispanic or Latino","userSelected":true}},{"url":"text","valueString":"Hispanic or Latino"}]}],"identifier":[{"type":{"coding":[{"system":"http://terminology.hl7.org/CodeSystem/v2-0203","code":"MR"}]},"system":"http://bonnie-fhir.healthit.gov/","value":"DENEXPass-TwoEncFemaleeGFRLowAndHigh"}],"active":true,"name":[{"use":"usual","family":"DENEXPass","given":["TwoEncFemaleeGFRLowAndHigh"]}],"gender":"female","birthDate":"1982-10-10"},"request":{"method":"PUT","url":"Patient/3731688f-4261-42cc-943a-202b69beab97"}},{"fullUrl":"https://madie.cms.gov/Encounter/DENEXPass-TwoEncFemaleeGFRLowAndHigh-01","resource":{"resourceType":"Encounter","id":"e00fc998-7941-46ca-a5de-fbdba21d7adb","meta":{"profile":["http://hl7.org/fhir/us/qicore/StructureDefinition/qicore-encounter"]},"status":"finished","class":{"system":"http://terminology.hl7.org/CodeSystem/v3-ActCode","code":"EMER","display":"emergency"},"type":[{"coding":[{"system":"http://snomed.info/sct","code":"4525004"}]}],"subject":{"reference":"Patient/3731688f-4261-42cc-943a-202b69beab97"},"period":{"start":"2025-09-29T08:00:00.000Z","end":"2025-09-29T20:00:00.000Z"}},"request":{"method":"PUT","url":"Encounter/e00fc998-7941-46ca-a5de-fbdba21d7adb"}},{"fullUrl":"https://madie.cms.gov/Encounter/DENEXPass-TwoEncFemaleeGFRLowAndHigh-02","resource":{"resourceType":"Encounter","id":"4a4ea347-f772-4202-9749-55f984c6fc62","meta":{"profile":["http://hl7.org/fhir/us/qicore/StructureDefinition/qicore-encounter"]},"status":"finished","class":{"system":"http://terminology.hl7.org/CodeSystem/v3-ActCode","code":"IMP","display":"inpatient encounter"},"type":[{"coding":[{"system":"http://snomed.info/sct","code":"183452005"}]}],"subject":{"reference":"Patient/3731688f-4261-42cc-943a-202b69beab97"},"period":{"start":"2025-09-29T20:01:00.000Z","end":"2025-10-03T20:00:00.000Z"}},"request":{"method":"PUT","url":"Encounter/4a4ea347-f772-4202-9749-55f984c6fc62"}},{"fullUrl":"https://madie.cms.gov/Encounter/DENEXPass-TwoEncFemaleeGFRLowAndHigh-03","resource":{"resourceType":"Encounter","id":"3d933559-8ff5-424b-aa6f-fbae5bf633d0","meta":{"profile":["http://hl7.org/fhir/us/qicore/StructureDefinition/qicore-encounter"]},"status":"finished","class":{"system":"http://terminology.hl7.org/CodeSystem/v3-ActCode","code":"IMP","display":"inpatient encounter"},"type":[{"coding":[{"system":"http://snomed.info/sct","code":"183452005"}]}],"subject":{"reference":"Patient/3731688f-4261-42cc-943a-202b69beab97"},"period":{"start":"2025-11-04T08:00:00.000Z","end":"2025-11-12T08:15:00.000Z"}},"request":{"method":"PUT","url":"Encounter/3d933559-8ff5-424b-aa6f-fbae5bf633d0"}},{"fullUrl":"https://madie.cms.gov/Observation/DENEXPass-TwoEncFemaleeGFRLowAndHigh-20","resource":{"resourceType":"Observation","id":"1a58e099-d859-420e-bc8c-548ff18285f6","meta":{"profile":["http://hl7.org/fhir/us/qicore/StructureDefinition/qicore-observation"]},"status":"final","category":[{"coding":[{"system":"http://terminology.hl7.org/CodeSystem/observation-category","code":"laboratory","display":"Laboratory"}]}],"code":{"coding":[{"system":"http://loinc.org","version":"2.72","code":"2160-0","display":"Creatinine [Mass/volume] in Serum or Plasma","userSelected":true}]},"subject":{"reference":"Patient/3731688f-4261-42cc-943a-202b69beab97"},"effectiveDateTime":"2025-11-07T09:00:00+00:00","issued":"2025-11-07T09:30:00+00:00","valueQuantity":{"value":0.7,"unit":"mg/dL","system":"http://unitsofmeasure.org","code":"mg/dL"}},"request":{"method":"PUT","url":"Observation/1a58e099-d859-420e-bc8c-548ff18285f6"}},{"fullUrl":"https://madie.cms.gov/Observation/DENEXPass-TwoEncFemaleeGFRLowAndHigh-19","resource":{"resourceType":"Observation","id":"68eff08f-5c06-47f2-b085-e61aad1acc4f","meta":{"profile":["http://hl7.org/fhir/us/qicore/StructureDefinition/qicore-observation"]},"status":"final","category":[{"coding":[{"system":"http://terminology.hl7.org/CodeSystem/observation-category","code":"laboratory","display":"Laboratory"}]}],"code":{"coding":[{"system":"http://loinc.org","version":"2.72","code":"2160-0","display":"Creatinine [Mass/volume] in Serum or Plasma","userSelected":true}]},"subject":{"reference":"Patient/3731688f-4261-42cc-943a-202b69beab97"},"effectiveDateTime":"2025-11-05T09:00:00+00:00","issued":"2025-11-05T09:30:00+00:00","valueQuantity":{"value":0.7,"unit":"mg/dL","system":"http://unitsofmeasure.org","code":"mg/dL"}},"request":{"method":"PUT","url":"Observation/68eff08f-5c06-47f2-b085-e61aad1acc4f"}},{"fullUrl":"https://madie.cms.gov/Observation/DENEXPass-TwoEncFemaleeGFRLowAndHigh-18","resource":{"resourceType":"Observation","id":"16067e13-dab9-47bc-b9e9-aac5d1516f0d","meta":{"profile":["http://hl7.org/fhir/us/qicore/StructureDefinition/qicore-observation"]},"status":"final","category":[{"coding":[{"system":"http://terminology.hl7.org/CodeSystem/observation-category","code":"laboratory","display":"Laboratory"}]}],"code":{"coding":[{"system":"http://loinc.org","code":"2160-0","display":"Creatinine [Mass/volume] in Serum or Plasma"}]},"subject":{"reference":"Patient/3731688f-4261-42cc-943a-202b69beab97"},"effectiveDateTime":"2025-11-04T09:00:00+00:00","issued":"2025-11-04T09:30:00+00:00","valueQuantity":{"value":1.5,"unit":"mg/dL","system":"http://unitsofmeasure.org","code":"mg/dL"}},"request":{"method":"PUT","url":"Observation/16067e13-dab9-47bc-b9e9-aac5d1516f0d"}},{"fullUrl":"https://madie.cms.gov/Observation/DENEXPass-TwoEncFemaleeGFRLowAndHigh-17","resource":{"resourceType":"Observation","id":"8b7abe06-927a-4edd-83fe-003407b1d2bd","meta":{"profile":["http://hl7.org/fhir/us/qicore/StructureDefinition/qicore-observation"]},"status":"final","category":[{"coding":[{"system":"http://terminology.hl7.org/CodeSystem/observation-category","code":"laboratory","display":"Laboratory"}]}],"code":{"coding":[{"system":"http://loinc.org","version":"2.72","code":"2160-0","display":"Creatinine [Mass/volume] in Serum or Plasma","userSelected":true}]},"subject":{"reference":"Patient/3731688f-4261-42cc-943a-202b69beab97"},"effectiveDateTime":"2025-10-01T08:01:00+00:00","issued":"2025-10-01T08:31:00+00:00","valueQuantity":{"value":1.14,"unit":"mg/dL","system":"http://unitsofmeasure.org","code":"mg/dL"}},"request":{"method":"PUT","url":"Observation/8b7abe06-927a-4edd-83fe-003407b1d2bd"}},{"fullUrl":"https://madie.cms.gov/Observation/DENEXPass-TwoEncFemaleeGFRLowAndHigh-15","resource":{"resourceType":"Observation","id":"555d660e-75b2-410d-bc82-2279a959d5a8","meta":{"profile":["http://hl7.org/fhir/us/qicore/StructureDefinition/qicore-observation"]},"status":"final","category":[{"coding":[{"system":"http://terminology.hl7.org/CodeSystem/observation-category","code":"laboratory","display":"Laboratory"}]}],"code":{"coding":[{"system":"http://loinc.org","code":"2160-0","display":"Creatinine [Mass/volume] in Serum or Plasma"}]},"subject":{"reference":"Patient/3731688f-4261-42cc-943a-202b69beab97"},"effectiveDateTime":"2025-10-01T07:00:00+00:00","issued":"2025-10-01T07:30:00+00:00","valueQuantity":{"value":1,"unit":"mg/dL","system":"http://unitsofmeasure.org","code":"mg/dL"}},"request":{"method":"PUT","url":"Observation/555d660e-75b2-410d-bc82-2279a959d5a8"}},{"fullUrl":"https://madie.cms.gov/Observation/DENEXPass-TwoEncFemaleeGFRLowAndHigh-16","resource":{"resourceType":"Observation","id":"02a101b0-6011-4186-acf4-da4c9d5366a7","meta":{"profile":["http://hl7.org/fhir/us/qicore/StructureDefinition/qicore-observation"]},"status":"final","category":[{"coding":[{"system":"http://terminology.hl7.org/CodeSystem/observation-category","code":"laboratory","display":"Laboratory"}]}],"code":{"coding":[{"system":"http://loinc.org","version":"2.72","code":"2160-0","display":"Creatinine [Mass/volume] in Serum or Plasma","userSelected":true}]},"subject":{"reference":"Patient/3731688f-4261-42cc-943a-202b69beab97"},"effectiveDateTime":"2025-10-01T07:35:00+00:00","issued":"2025-10-01T08:05:00+00:00","valueQuantity":{"value":1.12,"unit":"mg/dL","system":"http://unitsofmeasure.org","code":"mg/dL"}},"request":{"method":"PUT","url":"Observation/02a101b0-6011-4186-acf4-da4c9d5366a7"}},{"fullUrl":"https://madie.cms.gov/Coverage/DENEXPass-TwoEncFemaleeGFRLowAndHigh-61","resource":{"resourceType":"Coverage","id":"a905ffd8-caa7-40f7-9747-729bde23f7cf","meta":{"profile":["http://hl7.org/fhir/us/qicore/StructureDefinition/qicore-coverage"]},"status":"active","type":{"coding":[{"system":"https://nahdo.org/sopt","version":"9.2","code":"211","display":"Medicaid HMO"}]},"beneficiary":{"reference":"Patient/3731688f-4261-42cc-943a-202b69beab97"},"period":{"start":"2023-12-01T00:00:00+00:00"},"payor":[{"reference":"Organization/024e2731-b045-43bf-80d2-684774c5b51c"}]},"request":{"method":"PUT","url":"Coverage/a905ffd8-caa7-40f7-9747-729bde23f7cf"}},{"fullUrl":"https://madie.cms.gov/Organization/DENEXPass-TwoEncFemaleeGFRLowAndHigh-98","resource":{"resourceType":"Organization","id":"024e2731-b045-43bf-80d2-684774c5b51c","meta":{"profile":["http://hl7.org/fhir/us/qicore/StructureDefinition/qicore-organization"]},"identifier":[{"use":"temp","system":"urn:oid:2.16.840.1.113883.4.4","value":"21-3259825"}],"active":true,"type":[{"coding":[{"system":"http://terminology.hl7.org/CodeSystem/organization-type","code":"pay","display":"Payer"}]}],"name":"Blue Cross Blue Shield of Texas","telecom":[{"system":"phone","value":"(+1) 972-766-6900"}],"address":[{"use":"billing","type":"postal","line":["P.O. Box 660044"],"city":"Dallas","state":"TX","postalCode":"75266-0044","country":"USA"}]},"request":{"method":"PUT","url":"Organization/024e2731-b045-43bf-80d2-684774c5b51c"}},{"fullUrl":"https://madie.cms.gov/MeasureReport/d86ae986-26ba-4e6d-aa3a-1c4a079b480e","resource":{"resourceType":"MeasureReport","id":"d86ae986-26ba-4e6d-aa3a-1c4a079b480e","meta":{"profile":["http://hl7.org/fhir/us/cqfmeasures/StructureDefinition/test-case-cqfm"]},"contained":[{"resourceType":"Parameters","id":"72e40300-be3f-49f5-a229-2b8c38286be2-parameters","parameter":[{"name":"subject","valueString":"3731688f-4261-42cc-943a-202b69beab97"}]}],"extension":[{"url":"http://hl7.org/fhir/us/cqfmeasures/StructureDefinition/cqfm-inputParameters","valueReference":{"reference":"#72e40300-be3f-49f5-a229-2b8c38286be2-parameters"}},{"url":"http://hl7.org/fhir/us/cqfmeasures/StructureDefinition/cqfm-testCaseDescription","valueMarkdown":"IP Female Enc #1 with eGFR of 63. SCr is within first 24 hours.\nVScode: Denominator Exclusion=[Encounter(id=DENEXPass-TwoEncFemaleeGFRLowAndHigh-03)]"}],"modifierExtension":[{"url":"http://hl7.org/fhir/us/cqfmeasures/StructureDefinition/cqfm-isTestCase","valueBoolean":true}],"status":"complete","type":"individual","measure":"https://madie.cms.gov/Measure/HospitalHarmAcuteKidneyInjuryFHIR","period":{"start":"2025-01-01","end":"2025-12-31"},"group":[{"population":[{"code":{"coding":[{"system":"http://terminology.hl7.org/CodeSystem/measure-population","code":"initial-population","display":"Initial Population"}]},"count":2},{"code":{"coding":[{"system":"http://terminology.hl7.org/CodeSystem/measure-population","code":"denominator","display":"Denominator"}]},"count":2},{"code":{"coding":[{"system":"http://terminology.hl7.org/CodeSystem/measure-population","code":"denominator-exclusion","display":"Denominator Exclusion"}]},"count":1},{"code":{"coding":[{"system":"http://terminology.hl7.org/CodeSystem/measure-population","code":"numerator","display":"Numerator"}]},"count":0}]}]},"request":{"method":"PUT","url":"MeasureReport/d86ae986-26ba-4e6d-aa3a-1c4a079b480e"}}]}