{"resourceType":"Bundle","id":"tests-0d0134b6-5f63-4083-96b3-a538359da42b-bundle","type":"transaction","entry":[{"fullUrl":"https://madie.cms.gov/Patient/0d0134b6-5f63-4083-96b3-a538359da42b","resource":{"resourceType":"Patient","id":"0d0134b6-5f63-4083-96b3-a538359da42b","meta":{"profile":["http://hl7.org/fhir/us/qicore/StructureDefinition/qicore-patient"]},"text":{"status":"generated","div":"<div xmlns=\"http://www.w3.org/1999/xhtml\"><div class=\"hapiHeaderText\">Turns 18 day of Encounter <b>DENOMPASS </b></div><table class=\"hapiPropertyTable\"><tbody><tr><td>Identifier</td><td>f0eda1c9668fdacdcad3378589bf6e0a71e7dec1618f14fca4d442ec96e402b1</td></tr><tr><td>Date of birth</td><td><span>29 September 2006</span></td></tr></tbody></table></div>"},"extension":[{"url":"http://hl7.org/fhir/us/core/StructureDefinition/us-core-race","extension":[{"url":"ombCategory","valueCoding":{"system":"urn:oid:2.16.840.1.113883.6.238","code":"1002-5","display":"American Indian or Alaska Native","userSelected":true}},{"url":"text","valueString":"American Indian or Alaska Native"}]},{"url":"http://hl7.org/fhir/us/core/StructureDefinition/us-core-ethnicity","extension":[{"url":"ombCategory","valueCoding":{"system":"urn:oid:2.16.840.1.113883.6.238","code":"2135-2","display":"Hispanic or Latino","userSelected":true}},{"url":"text","valueString":"Hispanic or Latino"}]}],"identifier":[{"type":{"coding":[{"system":"http://terminology.hl7.org/CodeSystem/v2-0203","code":"MR"}]},"system":"http://bonnie-fhir.healthit.gov/","value":"DENOMPass-CreatinineAfter48HoursPJM"}],"active":true,"name":[{"use":"usual","family":"DENOMPass","given":["CreatinineAfter48HoursPJM"]}],"gender":"female","birthDate":"1982-10-10"},"request":{"method":"PUT","url":"Patient/0d0134b6-5f63-4083-96b3-a538359da42b"}},{"fullUrl":"https://madie.cms.gov/Encounter/DENOMPass-CreatinineAfter48HoursPJM-01","resource":{"resourceType":"Encounter","id":"40dc9ccc-3cab-4ab8-8de9-de808d2cbc86","meta":{"profile":["http://hl7.org/fhir/us/qicore/StructureDefinition/qicore-encounter"]},"status":"finished","class":{"system":"http://terminology.hl7.org/CodeSystem/v3-ActCode","code":"EMER","display":"emergency"},"type":[{"coding":[{"system":"http://snomed.info/sct","code":"4525004"}]}],"subject":{"reference":"Patient/0d0134b6-5f63-4083-96b3-a538359da42b"},"period":{"start":"2025-09-29T06:00:00.000Z","end":"2025-09-29T08:00:00.000Z"}},"request":{"method":"PUT","url":"Encounter/40dc9ccc-3cab-4ab8-8de9-de808d2cbc86"}},{"fullUrl":"https://madie.cms.gov/Encounter/DENOMPass-CreatinineAfter48HoursPJM-02","resource":{"resourceType":"Encounter","id":"e3a69e0a-191e-4892-b62b-fb9d0efe276e","meta":{"profile":["http://hl7.org/fhir/us/qicore/StructureDefinition/qicore-encounter"]},"status":"finished","class":{"system":"http://terminology.hl7.org/CodeSystem/v3-ActCode","code":"IMP","display":"inpatient encounter"},"type":[{"coding":[{"system":"http://snomed.info/sct","code":"183452005"}]}],"subject":{"reference":"Patient/0d0134b6-5f63-4083-96b3-a538359da42b"},"period":{"start":"2025-09-29T08:00:00.000Z","end":"2025-10-03T20:00:00.000Z"}},"request":{"method":"PUT","url":"Encounter/e3a69e0a-191e-4892-b62b-fb9d0efe276e"}},{"fullUrl":"https://madie.cms.gov/MedicationAdministration/DENOMPass-CreatinineAfter48HoursPJM-21","resource":{"resourceType":"MedicationAdministration","id":"fd7cdb9e-4d58-494f-bd31-499c2e0c8512","meta":{"profile":["http://hl7.org/fhir/us/qicore/StructureDefinition/qicore-medicationadministration"]},"status":"completed","medicationCodeableConcept":{"coding":[{"system":"http://www.nlm.nih.gov/research/umls/rxnorm","code":"1010600"}]},"subject":{"reference":"Patient/0d0134b6-5f63-4083-96b3-a538359da42b"},"effectivePeriod":{"start":"2025-09-29T08:00:00.000Z","end":"2025-09-29T08:15:00.000Z"}},"request":{"method":"PUT","url":"MedicationAdministration/fd7cdb9e-4d58-494f-bd31-499c2e0c8512"}},{"fullUrl":"https://madie.cms.gov/Observation/DENOMPass-CreatinineAfter48HoursPJM-19","resource":{"resourceType":"Observation","id":"66d453f2-0004-4acf-87a4-3810f62ae780","meta":{"profile":["http://hl7.org/fhir/us/qicore/StructureDefinition/qicore-observation"]},"status":"final","category":[{"coding":[{"system":"http://terminology.hl7.org/CodeSystem/observation-category","code":"laboratory","display":"Laboratory"}]}],"code":{"coding":[{"system":"http://loinc.org","version":"2.72","code":"2160-0","display":"Creatinine [Mass/volume] in Serum or Plasma","userSelected":true}]},"subject":{"reference":"Patient/0d0134b6-5f63-4083-96b3-a538359da42b"},"effectiveDateTime":"2025-10-01T07:50:00+00:00","issued":"2025-10-01T08:20:00+00:00","valueQuantity":{"value":0.6,"unit":"mg/dL","system":"http://unitsofmeasure.org","code":"mg/dL"}},"request":{"method":"PUT","url":"Observation/66d453f2-0004-4acf-87a4-3810f62ae780"}},{"fullUrl":"https://madie.cms.gov/Observation/DENOMPass-CreatinineAfter48HoursPJM-18","resource":{"resourceType":"Observation","id":"3971b8d7-7322-405e-b625-6ff7da338fdd","meta":{"profile":["http://hl7.org/fhir/us/qicore/StructureDefinition/qicore-observation"]},"status":"final","category":[{"coding":[{"system":"http://terminology.hl7.org/CodeSystem/observation-category","code":"laboratory","display":"Laboratory"}]}],"code":{"coding":[{"system":"http://loinc.org","code":"2160-0","display":"Creatinine [Mass/volume] in Serum or Plasma"}]},"subject":{"reference":"Patient/0d0134b6-5f63-4083-96b3-a538359da42b"},"effectiveDateTime":"2025-09-29T07:59:00+00:00","issued":"2025-09-29T08:29:00+00:00","valueQuantity":{"value":0.8,"unit":"mg/dL","system":"http://unitsofmeasure.org","code":"mg/dL"}},"request":{"method":"PUT","url":"Observation/3971b8d7-7322-405e-b625-6ff7da338fdd"}},{"fullUrl":"https://madie.cms.gov/Observation/DENOMPass-CreatinineAfter48HoursPJM-17","resource":{"resourceType":"Observation","id":"dbbd435f-8c23-42fa-80f4-4e7f5ab2df41","meta":{"profile":["http://hl7.org/fhir/us/qicore/StructureDefinition/qicore-observation"]},"status":"final","category":[{"coding":[{"system":"http://terminology.hl7.org/CodeSystem/observation-category","code":"laboratory","display":"Laboratory"}]}],"code":{"coding":[{"system":"http://loinc.org","version":"2.72","code":"2160-0","display":"Creatinine [Mass/volume] in Serum or Plasma","userSelected":true}]},"subject":{"reference":"Patient/0d0134b6-5f63-4083-96b3-a538359da42b"},"effectiveDateTime":"2025-09-29T08:01:00+00:00","issued":"2025-09-29T08:31:00+00:00","valueQuantity":{"value":1.1,"unit":"mg/dL","system":"http://unitsofmeasure.org","code":"mg/dL"}},"request":{"method":"PUT","url":"Observation/dbbd435f-8c23-42fa-80f4-4e7f5ab2df41"}},{"fullUrl":"https://madie.cms.gov/Observation/DENOMPass-CreatinineAfter48HoursPJM-15","resource":{"resourceType":"Observation","id":"5df2715c-c554-4a5d-84c9-20f0c9af888d","meta":{"profile":["http://hl7.org/fhir/us/qicore/StructureDefinition/qicore-observation"]},"status":"final","category":[{"coding":[{"system":"http://terminology.hl7.org/CodeSystem/observation-category","code":"laboratory","display":"Laboratory"}]}],"code":{"coding":[{"system":"http://loinc.org","code":"2160-0","display":"Creatinine [Mass/volume] in Serum or Plasma"}]},"subject":{"reference":"Patient/0d0134b6-5f63-4083-96b3-a538359da42b"},"effectiveDateTime":"2025-09-29T07:00:00+00:00","issued":"2025-09-29T07:30:00+00:00","valueQuantity":{"value":0.9,"unit":"mg/dL","system":"http://unitsofmeasure.org","code":"mg/dL"}},"request":{"method":"PUT","url":"Observation/5df2715c-c554-4a5d-84c9-20f0c9af888d"}},{"fullUrl":"https://madie.cms.gov/Observation/DENOMPass-CreatinineAfter48HoursPJM-16","resource":{"resourceType":"Observation","id":"31f2f3c2-614d-44ed-a211-5a5ef78e4183","meta":{"profile":["http://hl7.org/fhir/us/qicore/StructureDefinition/qicore-observation"]},"status":"final","category":[{"coding":[{"system":"http://terminology.hl7.org/CodeSystem/observation-category","code":"laboratory","display":"Laboratory"}]}],"code":{"coding":[{"system":"http://loinc.org","version":"2.72","code":"2160-0","display":"Creatinine [Mass/volume] in Serum or Plasma","userSelected":true}]},"subject":{"reference":"Patient/0d0134b6-5f63-4083-96b3-a538359da42b"},"effectiveDateTime":"2025-09-29T07:35:00+00:00","issued":"2025-09-29T08:05:00+00:00","valueQuantity":{"value":1,"unit":"mg/dL","system":"http://unitsofmeasure.org","code":"mg/dL"}},"request":{"method":"PUT","url":"Observation/31f2f3c2-614d-44ed-a211-5a5ef78e4183"}},{"fullUrl":"https://madie.cms.gov/Coverage/DENOMPass-CreatinineAfter48HoursPJM-61","resource":{"resourceType":"Coverage","id":"34d20cb1-c993-4cd1-9244-e58f52955abc","meta":{"profile":["http://hl7.org/fhir/us/qicore/StructureDefinition/qicore-coverage"]},"status":"active","type":{"coding":[{"system":"https://nahdo.org/sopt","version":"9.2","code":"211","display":"Medicaid HMO"}]},"beneficiary":{"reference":"Patient/0d0134b6-5f63-4083-96b3-a538359da42b"},"period":{"start":"2023-12-01T00:00:00+00:00"},"payor":[{"reference":"Organization/f6075515-d38f-4624-bde8-a1ce20473a69"}]},"request":{"method":"PUT","url":"Coverage/34d20cb1-c993-4cd1-9244-e58f52955abc"}},{"fullUrl":"https://madie.cms.gov/Organization/DENOMPass-CreatinineAfter48HoursPJM-98","resource":{"resourceType":"Organization","id":"f6075515-d38f-4624-bde8-a1ce20473a69","meta":{"profile":["http://hl7.org/fhir/us/qicore/StructureDefinition/qicore-organization"]},"identifier":[{"use":"temp","system":"urn:oid:2.16.840.1.113883.4.4","value":"21-3259825"}],"active":true,"type":[{"coding":[{"system":"http://terminology.hl7.org/CodeSystem/organization-type","code":"pay","display":"Payer"}]}],"name":"Blue Cross Blue Shield of Texas","telecom":[{"system":"phone","value":"(+1) 972-766-6900"}],"address":[{"use":"billing","type":"postal","line":["P.O. Box 660044"],"city":"Dallas","state":"TX","postalCode":"75266-0044","country":"USA"}]},"request":{"method":"PUT","url":"Organization/f6075515-d38f-4624-bde8-a1ce20473a69"}},{"fullUrl":"https://madie.cms.gov/MeasureReport/fd408cbb-1427-439b-a357-6e2adbe880e2","resource":{"resourceType":"MeasureReport","id":"fd408cbb-1427-439b-a357-6e2adbe880e2","meta":{"profile":["http://hl7.org/fhir/us/cqfmeasures/StructureDefinition/test-case-cqfm"]},"contained":[{"resourceType":"Parameters","id":"4b1bb1c8-5d2d-40b3-b45c-f4e3f62eed0a-parameters","parameter":[{"name":"subject","valueString":"0d0134b6-5f63-4083-96b3-a538359da42b"}]}],"extension":[{"url":"http://hl7.org/fhir/us/cqfmeasures/StructureDefinition/cqfm-inputParameters","valueReference":{"reference":"#4b1bb1c8-5d2d-40b3-b45c-f4e3f62eed0a-parameters"}},{"url":"http://hl7.org/fhir/us/cqfmeasures/StructureDefinition/cqfm-testCaseDescription","valueMarkdown":"ER-INPT, more Cr to test display sort.\nVScode: Denominator=[Encounter(id=DENOMPass-CreatinineAfter48HoursPJM-02)] ,  Denominator Exclusion=[]"}],"modifierExtension":[{"url":"http://hl7.org/fhir/us/cqfmeasures/StructureDefinition/cqfm-isTestCase","valueBoolean":true}],"status":"complete","type":"individual","measure":"https://madie.cms.gov/Measure/HospitalHarmAcuteKidneyInjuryFHIR","period":{"start":"2025-01-01","end":"2025-12-31"},"group":[{"population":[{"code":{"coding":[{"system":"http://terminology.hl7.org/CodeSystem/measure-population","code":"initial-population","display":"Initial Population"}]},"count":1},{"code":{"coding":[{"system":"http://terminology.hl7.org/CodeSystem/measure-population","code":"denominator","display":"Denominator"}]},"count":1},{"code":{"coding":[{"system":"http://terminology.hl7.org/CodeSystem/measure-population","code":"denominator-exclusion","display":"Denominator Exclusion"}]},"count":0},{"code":{"coding":[{"system":"http://terminology.hl7.org/CodeSystem/measure-population","code":"numerator","display":"Numerator"}]},"count":0}]}]},"request":{"method":"PUT","url":"MeasureReport/fd408cbb-1427-439b-a357-6e2adbe880e2"}}]}