{
  "resourceType": "Bundle",
  "id": "63594c7a6aee9629c82981df",
  "type": "transaction",
  "entry": [ {
    "fullUrl": "https://madie.cms.gov/Patient/de22f5cd-bb00-48db-9503-d47151c9c146",
    "resource": {
      "resourceType": "Patient",
      "id": "de22f5cd-bb00-48db-9503-d47151c9c146",
      "meta": {
        "profile": [ "http://hl7.org/fhir/us/qicore/StructureDefinition/qicore-patient" ]
      },
      "text": {
        "status": "generated",
        "div": "<div xmlns=\"http://www.w3.org/1999/xhtml\"><div class=\"hapiHeaderText\">Risk_Hypertension<b>RISKPass </b></div><table class=\"hapiPropertyTable\"><tbody><tr><td>Date of birth</td><td><span>01 February 2004</span></td></tr></tbody></table></div>"
      },
      "extension": [ {
        "url": "http://hl7.org/fhir/us/core/StructureDefinition/us-core-race",
        "extension": [ {
          "url": "ombCategory",
          "valueCoding": {
            "system": "urn:oid:2.16.840.1.113883.6.238",
            "code": "1002-5",
            "display": "American Indian or Alaska Native",
            "userSelected": true
          }
        }, {
          "url": "text",
          "valueString": "American Indian or Alaska Native"
        } ]
      }, {
        "url": "http://hl7.org/fhir/us/core/StructureDefinition/us-core-ethnicity",
        "extension": [ {
          "url": "ombCategory",
          "valueCoding": {
            "system": "urn:oid:2.16.840.1.113883.6.238",
            "code": "2135-2",
            "display": "Hispanic or Latino",
            "userSelected": true
          }
        }, {
          "url": "text",
          "valueString": "Hispanic or Latino"
        } ]
      } ],
      "identifier": [ {
        "type": {
          "coding": [ {
            "system": "http://terminology.hl7.org/CodeSystem/v2-0203",
            "code": "MR"
          } ]
        },
        "system": "https://bonnie-fhir.healthit.gov/",
        "value": "63594c7a6aee9629c82981df"
      } ],
      "active": true,
      "name": [ {
        "use": "usual",
        "family": "RiskPass",
        "given": [ "Risk_Hypertension" ]
      } ],
      "gender": "female",
      "birthDate": "2004-02-01"
    },
    "request": {
      "method": "PUT",
      "url": "Patient/de22f5cd-bb00-48db-9503-d47151c9c146"
    }
  }, {
    "fullUrl": "https://madie.cms.gov/Observation/4f00bedd-9f71-4bfb-ad75-611774a9fda4",
    "resource": {
      "resourceType": "Observation",
      "id": "4f00bedd-9f71-4bfb-ad75-611774a9fda4",
      "meta": {
        "profile": [ "http://hl7.org/fhir/us/qicore/StructureDefinition/qicore-observation" ]
      },
      "status": "final",
      "category": [ {
        "coding": [ {
          "system": "http://terminology.hl7.org/CodeSystem/observation-category",
          "code": "exam",
          "display": "exam",
          "userSelected": true
        } ]
      } ],
      "code": {
        "coding": [ {
          "system": "http://loinc.org",
          "code": "93857-1"
        } ]
      },
      "subject": {
        "reference": "Patient/de22f5cd-bb00-48db-9503-d47151c9c146"
      },
      "effectiveDateTime": "2025-02-01T08:00:00.000+00:00",
      "valueDateTime": "2025-02-01T08:00:00+00:00"
    },
    "request": {
      "method": "PUT",
      "url": "Observation/4f00bedd-9f71-4bfb-ad75-611774a9fda4"
    }
  }, {
    "fullUrl": "https://madie.cms.gov/Observation/af76f3b2-eb11-489e-a395-cacd259fc329",
    "resource": {
      "resourceType": "Observation",
      "id": "af76f3b2-eb11-489e-a395-cacd259fc329",
      "meta": {
        "profile": [ "http://hl7.org/fhir/us/qicore/StructureDefinition/qicore-observation" ]
      },
      "status": "final",
      "category": [ {
        "coding": [ {
          "system": "http://terminology.hl7.org/CodeSystem/observation-category",
          "code": "exam",
          "display": "exam",
          "userSelected": true
        } ]
      } ],
      "code": {
        "coding": [ {
          "system": "http://loinc.org",
          "code": "11778-8"
        } ]
      },
      "subject": {
        "reference": "Patient/de22f5cd-bb00-48db-9503-d47151c9c146"
      },
      "effectiveDateTime": "2025-02-01T08:00:00.000+00:00",
      "valueDateTime": "2025-02-01T00:00:00.000+00:00"
    },
    "request": {
      "method": "PUT",
      "url": "Observation/af76f3b2-eb11-489e-a395-cacd259fc329"
    }
  }, {
    "fullUrl": "https://madie.cms.gov/Encounter/49a5d92f-1d93-48c1-b69d-5b185c0eb9af",
    "resource": {
      "resourceType": "Encounter",
      "id": "49a5d92f-1d93-48c1-b69d-5b185c0eb9af",
      "meta": {
        "profile": [ "http://hl7.org/fhir/us/qicore/StructureDefinition/qicore-encounter" ]
      },
      "status": "finished",
      "class": {
        "system": "http://terminology.hl7.org/CodeSystem/v3-ActCode",
        "code": "IMP",
        "display": "inpatient encounter"
      },
      "type": [ {
        "coding": [ {
          "system": "http://snomed.info/sct",
          "code": "183452005"
        } ]
      } ],
      "subject": {
        "reference": "Patient/de22f5cd-bb00-48db-9503-d47151c9c146"
      },
      "period": {
        "start": "2025-02-01T08:00:00.000Z",
        "end": "2025-02-05T08:15:00.000Z"
      },
      "diagnosis": [ {
        "extension": [ {
          "url": "http://hl7.org/fhir/us/qicore/StructureDefinition/qicore-encounter-diagnosisPresentOnAdmission",
          "valueCodeableConcept": {
            "coding": [ {
              "system": "https://www.cms.gov/Medicare/Medicare-Fee-for-Service-Payment/HospitalAcqCond/Coding",
              "code": "Y"
            } ]
          }
        } ],
        "condition": {
          "reference": "Condition/cd9bc80b-ace0-40b7-8d82-9fcaca3b47e0"
        }
      }, {
        "extension": [ {
          "url": "http://hl7.org/fhir/us/qicore/StructureDefinition/qicore-encounter-diagnosisPresentOnAdmission",
          "valueCodeableConcept": {
            "coding": [ {
              "system": "https://www.cms.gov/Medicare/Medicare-Fee-for-Service-Payment/HospitalAcqCond/Coding",
              "code": "N"
            } ]
          }
        } ],
        "condition": {
          "reference": "Condition/1cfb61a0-d345-4cf6-9004-dd3e16b58080"
        }
      } ]
    },
    "request": {
      "method": "PUT",
      "url": "Encounter/49a5d92f-1d93-48c1-b69d-5b185c0eb9af"
    }
  }, {
    "fullUrl": "https://madie.cms.gov/Procedure/fe566655-9a8f-497b-9388-487ccc1c8316",
    "resource": {
      "resourceType": "Procedure",
      "id": "fe566655-9a8f-497b-9388-487ccc1c8316",
      "meta": {
        "profile": [ "http://hl7.org/fhir/us/qicore/StructureDefinition/qicore-procedure" ]
      },
      "extension": [ {
        "url": "http://hl7.org/fhir/us/qicore/StructureDefinition/qicore-recorded",
        "valueDateTime": "2013-04-05T09:35:00-04:00"
      } ],
      "status": "completed",
      "code": {
        "coding": [ {
          "system": "http://snomed.info/sct",
          "code": "10745001"
        } ]
      },
      "subject": {
        "reference": "Patient/de22f5cd-bb00-48db-9503-d47151c9c146"
      },
      "performedDateTime": "2025-02-01T08:00:00.000+00:00"
    },
    "request": {
      "method": "PUT",
      "url": "Procedure/fe566655-9a8f-497b-9388-487ccc1c8316"
    }
  }, {
    "fullUrl": "https://madie.cms.gov/Condition/1cfb61a0-d345-4cf6-9004-dd3e16b58080",
    "resource": {
      "resourceType": "Condition",
      "id": "1cfb61a0-d345-4cf6-9004-dd3e16b58080",
      "meta": {
        "profile": [ "http://hl7.org/fhir/us/qicore/StructureDefinition/qicore-condition" ]
      },
      "category": [ {
        "coding": [ {
          "system": "http://terminology.hl7.org/CodeSystem/condition-category",
          "code": "encounter-diagnosis",
          "display": "Encounter Diagnosis"
        } ]
      } ],
      "code": {
        "coding": [ {
          "system": "http://hl7.org/fhir/sid/icd-10-cm",
          "version": "2023",
          "code": "A32.7",
          "display": "Listerial sepsis",
          "userSelected": true
        } ]
      },
      "subject": {
        "reference": "Patient/de22f5cd-bb00-48db-9503-d47151c9c146"
      },
      "recordedDate": "2025-10-26T08:00:00.000+00:00"
    },
    "request": {
      "method": "PUT",
      "url": "Condition/1cfb61a0-d345-4cf6-9004-dd3e16b58080"
    }
  }, {
    "fullUrl": "https://madie.cms.gov/Condition/cd9bc80b-ace0-40b7-8d82-9fcaca3b47e0",
    "resource": {
      "resourceType": "Condition",
      "id": "cd9bc80b-ace0-40b7-8d82-9fcaca3b47e0",
      "meta": {
        "profile": [ "http://hl7.org/fhir/us/qicore/StructureDefinition/qicore-condition" ]
      },
      "category": [ {
        "coding": [ {
          "system": "http://terminology.hl7.org/CodeSystem/condition-category",
          "code": "encounter-diagnosis",
          "display": "Encounter Diagnosis"
        } ]
      } ],
      "code": {
        "coding": [ {
          "system": "http://hl7.org/fhir/sid/icd-10-cm",
          "version": "2023",
          "code": "I10",
          "display": "Hypertension",
          "userSelected": true
        } ]
      },
      "subject": {
        "reference": "Patient/de22f5cd-bb00-48db-9503-d47151c9c146"
      },
      "recordedDate": "2025-10-26T08:00:00.000+00:00"
    },
    "request": {
      "method": "PUT",
      "url": "Condition/cd9bc80b-ace0-40b7-8d82-9fcaca3b47e0"
    }
  }, {
    "fullUrl": "https://madie.cms.gov/MeasureReport/e2160e3e-7ea7-4f41-9ca8-6df846ca358c",
    "resource": {
      "resourceType": "MeasureReport",
      "id": "e2160e3e-7ea7-4f41-9ca8-6df846ca358c",
      "meta": {
        "profile": [ "http://hl7.org/fhir/us/cqfmeasures/StructureDefinition/test-case-cqfm" ]
      },
      "contained": [ {
        "resourceType": "Parameters",
        "id": "7c17af0b-5292-4554-b09b-73c4ebae753c-parameters",
        "parameter": [ {
          "name": "subject",
          "valueString": "de22f5cd-bb00-48db-9503-d47151c9c146"
        } ]
      } ],
      "extension": [ {
        "url": "http://hl7.org/fhir/us/cqfmeasures/StructureDefinition/cqfm-inputParameters",
        "valueReference": {
          "reference": "#7c17af0b-5292-4554-b09b-73c4ebae753c-parameters"
        }
      }, {
        "url": "http://hl7.org/fhir/us/cqfmeasures/StructureDefinition/cqfm-testCaseDescription",
        "valueMarkdown": "Risk variable of hypertension."
      } ],
      "modifierExtension": [ {
        "url": "http://hl7.org/fhir/us/cqfmeasures/StructureDefinition/cqfm-isTestCase",
        "valueBoolean": true
      } ],
      "status": "complete",
      "type": "individual",
      "measure": "https://madie.cms.gov/Measure/CMS1028FHIRPCSevereOBComps",
      "period": {
        "start": "2025-01-01",
        "end": "2025-12-31"
      },
      "group": [ {
        "population": [ {
          "code": {
            "coding": [ {
              "system": "http://terminology.hl7.org/CodeSystem/measure-population",
              "code": "initial-population",
              "display": "Initial Population"
            } ]
          },
          "count": 1
        }, {
          "code": {
            "coding": [ {
              "system": "http://terminology.hl7.org/CodeSystem/measure-population",
              "code": "denominator",
              "display": "Denominator"
            } ]
          },
          "count": 1
        }, {
          "code": {
            "coding": [ {
              "system": "http://terminology.hl7.org/CodeSystem/measure-population",
              "code": "numerator",
              "display": "Numerator"
            } ]
          },
          "count": 1
        }, {
          "code": {
            "coding": [ {
              "system": "http://terminology.hl7.org/CodeSystem/measure-population",
              "code": "numerator-exclusion",
              "display": "Numerator Exclusion"
            } ]
          },
          "count": 0
        } ]
      }, {
        "population": [ {
          "code": {
            "coding": [ {
              "system": "http://terminology.hl7.org/CodeSystem/measure-population",
              "code": "initial-population",
              "display": "Initial Population"
            } ]
          },
          "count": 1
        }, {
          "code": {
            "coding": [ {
              "system": "http://terminology.hl7.org/CodeSystem/measure-population",
              "code": "denominator",
              "display": "Denominator"
            } ]
          },
          "count": 1
        }, {
          "code": {
            "coding": [ {
              "system": "http://terminology.hl7.org/CodeSystem/measure-population",
              "code": "numerator",
              "display": "Numerator"
            } ]
          },
          "count": 1
        }, {
          "code": {
            "coding": [ {
              "system": "http://terminology.hl7.org/CodeSystem/measure-population",
              "code": "numerator-exclusion",
              "display": "Numerator Exclusion"
            } ]
          },
          "count": 0
        } ]
      } ],
      "evaluatedResource": [ {
        "reference": "Patient/de22f5cd-bb00-48db-9503-d47151c9c146"
      }, {
        "reference": "Observation/4f00bedd-9f71-4bfb-ad75-611774a9fda4"
      }, {
        "reference": "Observation/af76f3b2-eb11-489e-a395-cacd259fc329"
      }, {
        "reference": "Encounter/49a5d92f-1d93-48c1-b69d-5b185c0eb9af"
      }, {
        "reference": "Procedure/fe566655-9a8f-497b-9388-487ccc1c8316"
      }, {
        "reference": "Condition/1cfb61a0-d345-4cf6-9004-dd3e16b58080"
      }, {
        "reference": "Condition/cd9bc80b-ace0-40b7-8d82-9fcaca3b47e0"
      } ]
    },
    "request": {
      "method": "PUT",
      "url": "MeasureReport/e2160e3e-7ea7-4f41-9ca8-6df846ca358c"
    }
  } ]
}