{
  "resourceType": "Bundle",
  "id": "617be8bd1619a529957d62ba",
  "type": "transaction",
  "entry": [ {
    "fullUrl": "https://madie.cms.gov/Patient/a5a0b1e6-fd91-4eaa-9019-618ddd0b8455",
    "resource": {
      "resourceType": "Patient",
      "id": "a5a0b1e6-fd91-4eaa-9019-618ddd0b8455",
      "meta": {
        "profile": [ "http://hl7.org/fhir/us/qicore/StructureDefinition/qicore-patient" ]
      },
      "extension": [ {
        "url": "http://hl7.org/fhir/us/core/StructureDefinition/us-core-race",
        "extension": [ {
          "url": "ombCategory",
          "valueCoding": {
            "system": "urn:oid:2.16.840.1.113883.6.238",
            "code": "2076-8",
            "display": "Native Hawaiian or Other Pacific Islander",
            "userSelected": true
          }
        }, {
          "url": "text",
          "valueString": "Native Hawaiian or Other Pacific Islander"
        } ]
      }, {
        "url": "http://hl7.org/fhir/us/core/StructureDefinition/us-core-ethnicity",
        "extension": [ {
          "url": "ombCategory",
          "valueCoding": {
            "system": "urn:oid:2.16.840.1.113883.6.238",
            "code": "2186-5",
            "display": "Not Hispanic or Latino",
            "userSelected": true
          }
        }, {
          "url": "text",
          "valueString": "Not Hispanic or Latino"
        } ]
      } ],
      "identifier": [ {
        "type": {
          "coding": [ {
            "system": "http://terminology.hl7.org/CodeSystem/v2-0203",
            "code": "MR"
          } ]
        },
        "system": "https://bonnie-fhir.healthit.gov/",
        "value": "617be8bd1619a529957d62ba"
      } ],
      "name": [ {
        "family": "DenExcl7Fail",
        "given": [ "DxStartsDuringEDNoEnd" ]
      } ],
      "gender": "female",
      "birthDate": "1985-12-02"
    },
    "request": {
      "method": "PUT",
      "url": "Patient/a5a0b1e6-fd91-4eaa-9019-618ddd0b8455"
    }
  }, {
    "fullUrl": "https://madie.cms.gov/Encounter/b6d35eda-9403-45dd-b6f4-0d1755948d23",
    "resource": {
      "resourceType": "Encounter",
      "id": "b6d35eda-9403-45dd-b6f4-0d1755948d23",
      "meta": {
        "profile": [ "http://hl7.org/fhir/us/qicore/StructureDefinition/qicore-encounter" ]
      },
      "status": "finished",
      "class": {
        "system": "http://terminology.hl7.org/CodeSystem/v3-ActCode",
        "code": "EMER",
        "display": "emergency",
        "userSelected": true
      },
      "type": [ {
        "coding": [ {
          "system": "http://snomed.info/sct",
          "version": "2020-09",
          "code": "4525004",
          "display": "Emergency department patient visit (procedure)",
          "userSelected": true
        } ]
      } ],
      "subject": {
        "reference": "Patient/a5a0b1e6-fd91-4eaa-9019-618ddd0b8455"
      },
      "period": {
        "start": "2026-10-09T08:05:00.000+00:00",
        "end": "2026-10-10T07:15:00.000+00:00"
      }
    },
    "request": {
      "method": "PUT",
      "url": "Encounter/b6d35eda-9403-45dd-b6f4-0d1755948d23"
    }
  }, {
    "fullUrl": "https://madie.cms.gov/Condition/2107280a-a755-40c8-9d56-686c951ae8e6",
    "resource": {
      "resourceType": "Condition",
      "id": "2107280a-a755-40c8-9d56-686c951ae8e6",
      "meta": {
        "profile": [ "http://hl7.org/fhir/us/qicore/StructureDefinition/qicore-condition" ]
      },
      "clinicalStatus": {
        "coding": [ {
          "system": "http://terminology.hl7.org/CodeSystem/condition-clinical",
          "code": "active",
          "display": "active",
          "userSelected": true
        } ]
      },
      "category": [ {
        "coding": [ {
          "system": "http://terminology.hl7.org/CodeSystem/condition-category",
          "code": "encounter-diagnosis",
          "display": "Encounter Diagnosis",
          "userSelected": true
        } ]
      } ],
      "code": {
        "coding": [ {
          "system": "http://snomed.info/sct",
          "version": "2020-09",
          "code": "401303003",
          "display": "Acute ST segment elevation myocardial infarction (disorder)",
          "userSelected": true
        } ]
      },
      "subject": {
        "reference": "Patient/a5a0b1e6-fd91-4eaa-9019-618ddd0b8455"
      },
      "onsetDateTime": "2026-10-09T08:30:00.000+00:00"
    },
    "request": {
      "method": "PUT",
      "url": "Condition/2107280a-a755-40c8-9d56-686c951ae8e6"
    }
  }, {
    "fullUrl": "https://madie.cms.gov/Condition/1a8f9280-4473-4f04-8c00-2accd5799b08",
    "resource": {
      "resourceType": "Condition",
      "id": "1a8f9280-4473-4f04-8c00-2accd5799b08",
      "meta": {
        "profile": [ "http://hl7.org/fhir/us/qicore/StructureDefinition/qicore-condition" ]
      },
      "clinicalStatus": {
        "coding": [ {
          "system": "http://terminology.hl7.org/CodeSystem/condition-clinical",
          "code": "active",
          "display": "Active",
          "userSelected": true
        } ]
      },
      "category": [ {
        "coding": [ {
          "system": "http://terminology.hl7.org/CodeSystem/condition-category",
          "code": "problem-list-item",
          "display": "Problem List Item",
          "userSelected": true
        } ]
      } ],
      "code": {
        "coding": [ {
          "system": "http://snomed.info/sct",
          "version": "2020-03",
          "code": "10061007",
          "display": "Brain stem contusion without open intracranial wound AND with prolonged loss of consciousness (more than 24 hours) AND return to pre-existing conscious level (disorder)",
          "userSelected": true
        } ]
      },
      "subject": {
        "reference": "Patient/a5a0b1e6-fd91-4eaa-9019-618ddd0b8455"
      },
      "onsetDateTime": "2026-10-09T11:00:00.000+00:00"
    },
    "request": {
      "method": "PUT",
      "url": "Condition/1a8f9280-4473-4f04-8c00-2accd5799b08"
    }
  }, {
    "fullUrl": "https://madie.cms.gov/MeasureReport/d6d2395f-b0a3-4d6e-9860-0d4014d0984f",
    "resource": {
      "resourceType": "MeasureReport",
      "id": "d6d2395f-b0a3-4d6e-9860-0d4014d0984f",
      "meta": {
        "profile": [ "http://hl7.org/fhir/us/cqfmeasures/StructureDefinition/test-case-cqfm" ]
      },
      "contained": [ {
        "resourceType": "Parameters",
        "id": "cf84c1cf-66cb-4d72-b8d6-db23faee4c75-parameters",
        "parameter": [ {
          "name": "subject",
          "valueString": "a5a0b1e6-fd91-4eaa-9019-618ddd0b8455"
        } ]
      } ],
      "extension": [ {
        "url": "http://hl7.org/fhir/us/cqfmeasures/StructureDefinition/cqfm-inputParameters",
        "valueReference": {
          "reference": "#cf84c1cf-66cb-4d72-b8d6-db23faee4c75-parameters"
        }
      }, {
        "url": "http://hl7.org/fhir/us/cqfmeasures/StructureDefinition/cqfm-testCaseDescription",
        "valueMarkdown": "Patient has closed head trauma (exclusion diagnosis) starts during ED and no end"
      } ],
      "modifierExtension": [ {
        "url": "http://hl7.org/fhir/us/cqfmeasures/StructureDefinition/cqfm-isTestCase",
        "valueBoolean": true
      } ],
      "status": "complete",
      "type": "individual",
      "measure": "https://madie.cms.gov/Measure/CMS996FHIRAptTxforSTEMI",
      "period": {
        "start": "2026-01-01",
        "end": "2026-12-31"
      },
      "group": [ {
        "population": [ {
          "code": {
            "coding": [ {
              "system": "http://terminology.hl7.org/CodeSystem/measure-population",
              "code": "initial-population",
              "display": "Initial Population"
            } ]
          },
          "count": 1
        }, {
          "code": {
            "coding": [ {
              "system": "http://terminology.hl7.org/CodeSystem/measure-population",
              "code": "denominator",
              "display": "Denominator"
            } ]
          },
          "count": 1
        }, {
          "code": {
            "coding": [ {
              "system": "http://terminology.hl7.org/CodeSystem/measure-population",
              "code": "denominator-exclusion",
              "display": "Denominator Exclusion"
            } ]
          },
          "count": 0
        }, {
          "code": {
            "coding": [ {
              "system": "http://terminology.hl7.org/CodeSystem/measure-population",
              "code": "numerator",
              "display": "Numerator"
            } ]
          },
          "count": 0
        }, {
          "code": {
            "coding": [ {
              "system": "http://terminology.hl7.org/CodeSystem/measure-population",
              "code": "denominator-exception",
              "display": "Denominator Exception"
            } ]
          },
          "count": 0
        } ]
      } ],
      "evaluatedResource": [ {
        "reference": "Patient/a5a0b1e6-fd91-4eaa-9019-618ddd0b8455"
      }, {
        "reference": "Encounter/b6d35eda-9403-45dd-b6f4-0d1755948d23"
      }, {
        "reference": "Condition/2107280a-a755-40c8-9d56-686c951ae8e6"
      }, {
        "reference": "Condition/1a8f9280-4473-4f04-8c00-2accd5799b08"
      } ]
    },
    "request": {
      "method": "PUT",
      "url": "MeasureReport/d6d2395f-b0a3-4d6e-9860-0d4014d0984f"
    }
  } ]
}