{
  "resourceType": "Bundle",
  "id": "63594c7a6aee9629c82981df",
  "type": "transaction",
  "entry": [ {
    "fullUrl": "https://madie.cms.gov/Patient/e2daccd1-c20c-4ee9-aef1-dfee44034cb6",
    "resource": {
      "resourceType": "Patient",
      "id": "e2daccd1-c20c-4ee9-aef1-dfee44034cb6",
      "meta": {
        "profile": [ "http://hl7.org/fhir/us/qicore/StructureDefinition/qicore-patient" ]
      },
      "text": {
        "status": "generated",
        "div": "<div xmlns=\"http://www.w3.org/1999/xhtml\"><div class=\"hapiHeaderText\">Risk_GestationalDiabetes <b>RISKPass </b></div><table class=\"hapiPropertyTable\"><tbody><tr><td>Date of birth</td><td><span>01 February 2004</span></td></tr></tbody></table></div>"
      },
      "extension": [ {
        "url": "http://hl7.org/fhir/us/core/StructureDefinition/us-core-race",
        "extension": [ {
          "url": "ombCategory",
          "valueCoding": {
            "system": "urn:oid:2.16.840.1.113883.6.238",
            "code": "1002-5",
            "display": "American Indian or Alaska Native",
            "userSelected": true
          }
        }, {
          "url": "text",
          "valueString": "American Indian or Alaska Native"
        } ]
      }, {
        "url": "http://hl7.org/fhir/us/core/StructureDefinition/us-core-ethnicity",
        "extension": [ {
          "url": "ombCategory",
          "valueCoding": {
            "system": "urn:oid:2.16.840.1.113883.6.238",
            "code": "2135-2",
            "display": "Hispanic or Latino",
            "userSelected": true
          }
        }, {
          "url": "text",
          "valueString": "Hispanic or Latino"
        } ]
      } ],
      "identifier": [ {
        "type": {
          "coding": [ {
            "system": "http://terminology.hl7.org/CodeSystem/v2-0203",
            "code": "MR"
          } ]
        },
        "system": "https://bonnie-fhir.healthit.gov/",
        "value": "63594c7a6aee9629c82981df"
      } ],
      "active": true,
      "name": [ {
        "use": "usual",
        "family": "RiskPass",
        "given": [ "Risk_GestationalDiabetes" ]
      } ],
      "gender": "female",
      "birthDate": "2004-02-01"
    },
    "request": {
      "method": "PUT",
      "url": "Patient/e2daccd1-c20c-4ee9-aef1-dfee44034cb6"
    }
  }, {
    "fullUrl": "https://madie.cms.gov/Observation/a58df29b-5d23-4925-9695-858640e8c704",
    "resource": {
      "resourceType": "Observation",
      "id": "a58df29b-5d23-4925-9695-858640e8c704",
      "meta": {
        "profile": [ "http://hl7.org/fhir/us/qicore/StructureDefinition/qicore-observation" ]
      },
      "status": "final",
      "category": [ {
        "coding": [ {
          "system": "http://terminology.hl7.org/CodeSystem/observation-category",
          "code": "exam",
          "display": "exam",
          "userSelected": true
        } ]
      } ],
      "code": {
        "coding": [ {
          "system": "http://loinc.org",
          "code": "93857-1"
        } ]
      },
      "subject": {
        "reference": "Patient/e2daccd1-c20c-4ee9-aef1-dfee44034cb6"
      },
      "effectiveDateTime": "2025-02-01T08:00:00.000+00:00",
      "valueDateTime": "2025-02-01T08:00:00+00:00"
    },
    "request": {
      "method": "PUT",
      "url": "Observation/a58df29b-5d23-4925-9695-858640e8c704"
    }
  }, {
    "fullUrl": "https://madie.cms.gov/Observation/0cc2ccd1-8640-4a8d-bf38-c2bb64a20bdf",
    "resource": {
      "resourceType": "Observation",
      "id": "0cc2ccd1-8640-4a8d-bf38-c2bb64a20bdf",
      "meta": {
        "profile": [ "http://hl7.org/fhir/us/qicore/StructureDefinition/qicore-observation" ]
      },
      "status": "final",
      "category": [ {
        "coding": [ {
          "system": "http://terminology.hl7.org/CodeSystem/observation-category",
          "code": "exam",
          "display": "exam",
          "userSelected": true
        } ]
      } ],
      "code": {
        "coding": [ {
          "system": "http://loinc.org",
          "code": "11778-8"
        } ]
      },
      "subject": {
        "reference": "Patient/e2daccd1-c20c-4ee9-aef1-dfee44034cb6"
      },
      "effectiveDateTime": "2025-02-01T08:00:00.000+00:00",
      "valueDateTime": "2025-02-01T00:00:00.000+00:00"
    },
    "request": {
      "method": "PUT",
      "url": "Observation/0cc2ccd1-8640-4a8d-bf38-c2bb64a20bdf"
    }
  }, {
    "fullUrl": "https://madie.cms.gov/Encounter/0fbd1b50-6a77-4a0d-bd88-b4c311aa9903",
    "resource": {
      "resourceType": "Encounter",
      "id": "0fbd1b50-6a77-4a0d-bd88-b4c311aa9903",
      "meta": {
        "profile": [ "http://hl7.org/fhir/us/qicore/StructureDefinition/qicore-encounter" ]
      },
      "status": "finished",
      "class": {
        "system": "http://terminology.hl7.org/CodeSystem/v3-ActCode",
        "code": "IMP",
        "display": "inpatient encounter"
      },
      "type": [ {
        "coding": [ {
          "system": "http://snomed.info/sct",
          "code": "183452005"
        } ]
      } ],
      "subject": {
        "reference": "Patient/e2daccd1-c20c-4ee9-aef1-dfee44034cb6"
      },
      "period": {
        "start": "2025-02-01T08:00:00.000Z",
        "end": "2025-02-05T08:15:00.000Z"
      },
      "diagnosis": [ {
        "extension": [ {
          "url": "http://hl7.org/fhir/us/qicore/StructureDefinition/qicore-encounter-diagnosisPresentOnAdmission",
          "valueCodeableConcept": {
            "coding": [ {
              "system": "https://www.cms.gov/Medicare/Medicare-Fee-for-Service-Payment/HospitalAcqCond/Coding",
              "code": "Y"
            } ]
          }
        } ],
        "condition": {
          "reference": "Condition/60e14761-ee50-46f7-a7b0-76e4c498c32c"
        }
      }, {
        "extension": [ {
          "url": "http://hl7.org/fhir/us/qicore/StructureDefinition/qicore-encounter-diagnosisPresentOnAdmission",
          "valueCodeableConcept": {
            "coding": [ {
              "system": "https://www.cms.gov/Medicare/Medicare-Fee-for-Service-Payment/HospitalAcqCond/Coding",
              "code": "N"
            } ]
          }
        } ],
        "condition": {
          "reference": "Condition/e1188ff4-2d92-483a-b5ed-32f28e745429"
        }
      } ]
    },
    "request": {
      "method": "PUT",
      "url": "Encounter/0fbd1b50-6a77-4a0d-bd88-b4c311aa9903"
    }
  }, {
    "fullUrl": "https://madie.cms.gov/Procedure/f9926843-bd2d-4b50-9a43-a30088990e18",
    "resource": {
      "resourceType": "Procedure",
      "id": "f9926843-bd2d-4b50-9a43-a30088990e18",
      "meta": {
        "profile": [ "http://hl7.org/fhir/us/qicore/StructureDefinition/qicore-procedure" ]
      },
      "extension": [ {
        "url": "http://hl7.org/fhir/us/qicore/StructureDefinition/qicore-recorded",
        "valueDateTime": "2013-04-05T09:35:00-04:00"
      } ],
      "status": "completed",
      "code": {
        "coding": [ {
          "system": "http://snomed.info/sct",
          "code": "10745001"
        } ]
      },
      "subject": {
        "reference": "Patient/e2daccd1-c20c-4ee9-aef1-dfee44034cb6"
      },
      "performedDateTime": "2025-02-01T08:00:00.000+00:00"
    },
    "request": {
      "method": "PUT",
      "url": "Procedure/f9926843-bd2d-4b50-9a43-a30088990e18"
    }
  }, {
    "fullUrl": "https://madie.cms.gov/Condition/e1188ff4-2d92-483a-b5ed-32f28e745429",
    "resource": {
      "resourceType": "Condition",
      "id": "e1188ff4-2d92-483a-b5ed-32f28e745429",
      "meta": {
        "profile": [ "http://hl7.org/fhir/us/qicore/StructureDefinition/qicore-condition" ]
      },
      "category": [ {
        "coding": [ {
          "system": "http://terminology.hl7.org/CodeSystem/condition-category",
          "code": "encounter-diagnosis",
          "display": "Encounter Diagnosis"
        } ]
      } ],
      "code": {
        "coding": [ {
          "system": "http://hl7.org/fhir/sid/icd-10-cm",
          "version": "2023",
          "code": "A32.7",
          "display": "Listerial sepsis",
          "userSelected": true
        } ]
      },
      "subject": {
        "reference": "Patient/e2daccd1-c20c-4ee9-aef1-dfee44034cb6"
      },
      "recordedDate": "2025-10-26T08:00:00.000+00:00"
    },
    "request": {
      "method": "PUT",
      "url": "Condition/e1188ff4-2d92-483a-b5ed-32f28e745429"
    }
  }, {
    "fullUrl": "https://madie.cms.gov/Condition/60e14761-ee50-46f7-a7b0-76e4c498c32c",
    "resource": {
      "resourceType": "Condition",
      "id": "60e14761-ee50-46f7-a7b0-76e4c498c32c",
      "meta": {
        "profile": [ "http://hl7.org/fhir/us/qicore/StructureDefinition/qicore-condition" ]
      },
      "category": [ {
        "coding": [ {
          "system": "http://terminology.hl7.org/CodeSystem/condition-category",
          "code": "encounter-diagnosis",
          "display": "Encounter Diagnosis"
        } ]
      } ],
      "code": {
        "coding": [ {
          "system": "http://hl7.org/fhir/sid/icd-10-cm",
          "version": "2023",
          "code": "O24.410",
          "display": "Gestational Diabetes",
          "userSelected": true
        } ]
      },
      "subject": {
        "reference": "Patient/e2daccd1-c20c-4ee9-aef1-dfee44034cb6"
      },
      "recordedDate": "2025-10-26T08:00:00.000+00:00"
    },
    "request": {
      "method": "PUT",
      "url": "Condition/60e14761-ee50-46f7-a7b0-76e4c498c32c"
    }
  }, {
    "fullUrl": "https://madie.cms.gov/MeasureReport/a89a5edd-5ba1-4be7-b460-f0dff3e780e9",
    "resource": {
      "resourceType": "MeasureReport",
      "id": "a89a5edd-5ba1-4be7-b460-f0dff3e780e9",
      "meta": {
        "profile": [ "http://hl7.org/fhir/us/cqfmeasures/StructureDefinition/test-case-cqfm" ]
      },
      "contained": [ {
        "resourceType": "Parameters",
        "id": "887c8358-fa4c-4252-b2c9-2009642cdea1-parameters",
        "parameter": [ {
          "name": "subject",
          "valueString": "e2daccd1-c20c-4ee9-aef1-dfee44034cb6"
        } ]
      } ],
      "extension": [ {
        "url": "http://hl7.org/fhir/us/cqfmeasures/StructureDefinition/cqfm-inputParameters",
        "valueReference": {
          "reference": "#887c8358-fa4c-4252-b2c9-2009642cdea1-parameters"
        }
      }, {
        "url": "http://hl7.org/fhir/us/cqfmeasures/StructureDefinition/cqfm-testCaseDescription",
        "valueMarkdown": " Risk variable of gestational diabetes\n"
      } ],
      "modifierExtension": [ {
        "url": "http://hl7.org/fhir/us/cqfmeasures/StructureDefinition/cqfm-isTestCase",
        "valueBoolean": true
      } ],
      "status": "complete",
      "type": "individual",
      "measure": "https://madie.cms.gov/Measure/CMS1028FHIRPCSevereOBComps",
      "period": {
        "start": "2025-01-01",
        "end": "2025-12-31"
      },
      "group": [ {
        "population": [ {
          "code": {
            "coding": [ {
              "system": "http://terminology.hl7.org/CodeSystem/measure-population",
              "code": "initial-population",
              "display": "Initial Population"
            } ]
          },
          "count": 1
        }, {
          "code": {
            "coding": [ {
              "system": "http://terminology.hl7.org/CodeSystem/measure-population",
              "code": "denominator",
              "display": "Denominator"
            } ]
          },
          "count": 1
        }, {
          "code": {
            "coding": [ {
              "system": "http://terminology.hl7.org/CodeSystem/measure-population",
              "code": "numerator",
              "display": "Numerator"
            } ]
          },
          "count": 1
        }, {
          "code": {
            "coding": [ {
              "system": "http://terminology.hl7.org/CodeSystem/measure-population",
              "code": "numerator-exclusion",
              "display": "Numerator Exclusion"
            } ]
          },
          "count": 0
        } ]
      }, {
        "population": [ {
          "code": {
            "coding": [ {
              "system": "http://terminology.hl7.org/CodeSystem/measure-population",
              "code": "initial-population",
              "display": "Initial Population"
            } ]
          },
          "count": 1
        }, {
          "code": {
            "coding": [ {
              "system": "http://terminology.hl7.org/CodeSystem/measure-population",
              "code": "denominator",
              "display": "Denominator"
            } ]
          },
          "count": 1
        }, {
          "code": {
            "coding": [ {
              "system": "http://terminology.hl7.org/CodeSystem/measure-population",
              "code": "numerator",
              "display": "Numerator"
            } ]
          },
          "count": 1
        }, {
          "code": {
            "coding": [ {
              "system": "http://terminology.hl7.org/CodeSystem/measure-population",
              "code": "numerator-exclusion",
              "display": "Numerator Exclusion"
            } ]
          },
          "count": 0
        } ]
      } ],
      "evaluatedResource": [ {
        "reference": "Patient/e2daccd1-c20c-4ee9-aef1-dfee44034cb6"
      }, {
        "reference": "Observation/a58df29b-5d23-4925-9695-858640e8c704"
      }, {
        "reference": "Observation/0cc2ccd1-8640-4a8d-bf38-c2bb64a20bdf"
      }, {
        "reference": "Encounter/0fbd1b50-6a77-4a0d-bd88-b4c311aa9903"
      }, {
        "reference": "Procedure/f9926843-bd2d-4b50-9a43-a30088990e18"
      }, {
        "reference": "Condition/e1188ff4-2d92-483a-b5ed-32f28e745429"
      }, {
        "reference": "Condition/60e14761-ee50-46f7-a7b0-76e4c498c32c"
      } ]
    },
    "request": {
      "method": "PUT",
      "url": "MeasureReport/a89a5edd-5ba1-4be7-b460-f0dff3e780e9"
    }
  } ]
}