{
  "resourceType": "Bundle",
  "id": "6499b4f7f75cf8dae8f2f3d5",
  "type": "transaction",
  "entry": [ {
    "fullUrl": "Patient/8d786705-7605-4c33-a5d4-0ef145a3bcbc",
    "resource": {
      "resourceType": "Patient",
      "id": "8d786705-7605-4c33-a5d4-0ef145a3bcbc",
      "meta": {
        "profile": [ "http://hl7.org/fhir/us/qicore/StructureDefinition/qicore-patient" ]
      },
      "extension": [ {
        "url": "http://hl7.org/fhir/us/core/StructureDefinition/us-core-race",
        "extension": [ {
          "url": "ombCategory",
          "valueCoding": {
            "system": "urn:oid:2.16.840.1.113883.6.238",
            "code": "2054-5",
            "display": "Black or African American",
            "userSelected": true
          }
        }, {
          "url": "text",
          "valueString": "Black or African American"
        } ]
      }, {
        "url": "http://hl7.org/fhir/us/core/StructureDefinition/us-core-ethnicity",
        "extension": [ {
          "url": "ombCategory",
          "valueCoding": {
            "system": "urn:oid:2.16.840.1.113883.6.238",
            "code": "2135-2",
            "display": "Hispanic or Latino",
            "userSelected": true
          }
        }, {
          "url": "text",
          "valueString": "Hispanic or Latino"
        } ]
      } ],
      "identifier": [ {
        "type": {
          "coding": [ {
            "system": "http://terminology.hl7.org/CodeSystem/v2-0203",
            "code": "MR"
          } ]
        },
        "system": "https://bonnie-fhir.healthit.gov/",
        "value": "6499b4f7f75cf8dae8f2f3d5"
      } ],
      "name": [ {
        "family": "NumPass",
        "given": [ "2VLTestsduringMPwithMostRecentResultUnder" ]
      } ],
      "gender": "male",
      "birthDate": "1986-05-25"
    },
    "request": {
      "method": "PUT",
      "url": "Patient/8d786705-7605-4c33-a5d4-0ef145a3bcbc"
    }
  }, {
    "fullUrl": "Condition/hiv-f3d6",
    "resource": {
      "resourceType": "Condition",
      "id": "hiv-f3d6",
      "meta": {
        "profile": [ "http://hl7.org/fhir/us/qicore/StructureDefinition/qicore-condition" ]
      },
      "clinicalStatus": {
        "coding": [ {
          "system": "http://terminology.hl7.org/CodeSystem/condition-clinical",
          "code": "active",
          "display": "active",
          "userSelected": true
        } ]
      },
      "category": [ {
        "coding": [ {
          "system": "http://terminology.hl7.org/CodeSystem/condition-category",
          "code": "problem-list-item",
          "display": "Problem List Item"
        } ]
      } ],
      "code": {
        "coding": [ {
          "system": "http://hl7.org/fhir/sid/icd-9-cm",
          "version": "2013",
          "code": "042",
          "display": "Human immunodeficiency virus [HIV] disease",
          "userSelected": true
        }, {
          "system": "http://snomed.info/sct",
          "code": "165816005",
          "userSelected": true
        } ]
      },
      "subject": {
        "reference": "Patient/8d786705-7605-4c33-a5d4-0ef145a3bcbc"
      },
      "onsetDateTime": "2023-01-01T12:00:00.000+00:00",
      "recordedDate": "2023-01-01T12:00:00.000+00:00"
    },
    "request": {
      "method": "PUT",
      "url": "Condition/hiv-f3d6"
    }
  }, {
    "fullUrl": "Encounter/preventive-care-services-established-office-visit-18-and-up-f3d7",
    "resource": {
      "resourceType": "Encounter",
      "id": "preventive-care-services-established-office-visit-18-and-up-f3d7",
      "meta": {
        "profile": [ "http://hl7.org/fhir/us/qicore/StructureDefinition/qicore-encounter" ]
      },
      "status": "finished",
      "class": {
        "system": "http://terminology.hl7.org/CodeSystem/v3-ActCode",
        "code": "AMB",
        "display": "ambulatory"
      },
      "type": [ {
        "coding": [ {
          "system": "http://www.ama-assn.org/go/cpt",
          "version": "2023",
          "code": "99395",
          "display": "Periodic comprehensive preventive medicine reevaluation and management of an individual including an age and gender appropriate history, examination, counseling/anticipatory guidance/risk factor reduction interventions, and the ordering of laboratory/diagnostic procedures, established patient; 18-39 years",
          "userSelected": true
        } ]
      } ],
      "subject": {
        "reference": "Patient/8d786705-7605-4c33-a5d4-0ef145a3bcbc"
      },
      "period": {
        "start": "2025-01-01T11:00:00.000+00:00",
        "end": "2025-01-01T11:22:00.000+00:00"
      }
    },
    "request": {
      "method": "PUT",
      "url": "Encounter/preventive-care-services-established-office-visit-18-and-up-f3d7"
    }
  }, {
    "fullUrl": "Observation/hiv-viral-load-f3d8",
    "resource": {
      "resourceType": "Observation",
      "id": "hiv-viral-load-f3d8",
      "meta": {
        "profile": [ "http://hl7.org/fhir/us/qicore/StructureDefinition/qicore-observation" ]
      },
      "status": "final",
      "category": [ {
        "coding": [ {
          "system": "http://terminology.hl7.org/CodeSystem/observation-category"
        } ]
      } ],
      "code": {
        "coding": [ {
          "system": "http://loinc.org",
          "version": "2.73",
          "code": "10351-5",
          "display": "HIV 1 RNA [Units/volume] (viral load) in Serum or Plasma by Probe with amplification",
          "userSelected": true
        } ]
      },
      "subject": {
        "reference": "Patient/8d786705-7605-4c33-a5d4-0ef145a3bcbc"
      },
      "effectiveDateTime": "2025-08-28T07:59:00.000+00:00",
      "issued": "2025-08-28T07:59:00.000+00:00",
      "valueQuantity": {
        "value": 199.0,
        "unit": "{copies}/mL"
      }
    },
    "request": {
      "method": "PUT",
      "url": "Observation/hiv-viral-load-f3d8"
    }
  }, {
    "fullUrl": "Observation/hiv-viral-load-f3d9",
    "resource": {
      "resourceType": "Observation",
      "id": "hiv-viral-load-f3d9",
      "meta": {
        "profile": [ "http://hl7.org/fhir/us/qicore/StructureDefinition/qicore-observation" ]
      },
      "status": "final",
      "category": [ {
        "coding": [ {
          "system": "http://terminology.hl7.org/CodeSystem/observation-category"
        } ]
      } ],
      "code": {
        "coding": [ {
          "system": "http://loinc.org",
          "code": "51780-5",
          "userSelected": true
        } ]
      },
      "subject": {
        "reference": "Patient/8d786705-7605-4c33-a5d4-0ef145a3bcbc"
      },
      "effectiveDateTime": "2025-01-01T08:00:00.000+00:00",
      "issued": "2025-01-01T08:00:00.000+00:00",
      "valueQuantity": {
        "value": 201.0,
        "unit": "{copies}/mL"
      }
    },
    "request": {
      "method": "PUT",
      "url": "Observation/hiv-viral-load-f3d9"
    }
  }, {
    "fullUrl": "Coverage/Coverage-1",
    "resource": {
      "resourceType": "Coverage",
      "id": "Coverage-1",
      "meta": {
        "profile": [ "http://hl7.org/fhir/us/qicore/StructureDefinition/qicore-coverage" ]
      },
      "status": "active",
      "beneficiary": {
        "reference": "Patient/8d786705-7605-4c33-a5d4-0ef145a3bcbc"
      },
      "payor": [ {
        "reference": "Organization/Org-123456"
      } ]
    },
    "request": {
      "method": "PUT",
      "url": "Coverage/Coverage-1"
    }
  }, {
    "fullUrl": "Organization/Org-123456",
    "resource": {
      "resourceType": "Organization",
      "id": "Org-123456",
      "meta": {
        "profile": [ "http://hl7.org/fhir/us/qicore/StructureDefinition/qicore-organization" ]
      },
      "identifier": [ {
        "use": "temp",
        "system": "urn:oid:2.16.840.1.113883.4.4",
        "value": "21-3259825"
      } ],
      "active": true,
      "type": [ {
        "coding": [ {
          "system": "http://terminology.hl7.org/CodeSystem/organization-type",
          "code": "pay",
          "display": "Payer"
        } ]
      } ],
      "name": "Blue Cross Blue Shield of Texas",
      "telecom": [ {
        "system": "phone",
        "value": "(+1) 972-766-6900"
      } ],
      "address": [ {
        "use": "billing",
        "type": "postal",
        "line": [ "P.O. Box 660044" ],
        "city": "Dallas",
        "state": "TX",
        "postalCode": "75266-0044",
        "country": "USA"
      } ]
    },
    "request": {
      "method": "PUT",
      "url": "Organization/Org-123456"
    }
  }, {
    "fullUrl": "Practitioner/practitioner-123456",
    "resource": {
      "resourceType": "Practitioner",
      "id": "practitioner-123456",
      "meta": {
        "profile": [ "http://hl7.org/fhir/us/qicore/StructureDefinition/qicore-practitioner" ]
      },
      "identifier": [ {
        "system": "http://hl7.org/fhir/sid/us-npi",
        "value": "123456"
      } ],
      "name": [ {
        "family": "Evil",
        "prefix": [ "Dr" ]
      } ]
    },
    "request": {
      "method": "PUT",
      "url": "Practitioner/practitioner-123456"
    }
  }, {
    "fullUrl": "MeasureReport/2c964d26-a6e9-4c9c-afff-b34bf9d7b4a5",
    "resource": {
      "resourceType": "MeasureReport",
      "id": "2c964d26-a6e9-4c9c-afff-b34bf9d7b4a5",
      "meta": {
        "profile": [ "http://hl7.org/fhir/us/cqfmeasures/StructureDefinition/test-case-cqfm" ]
      },
      "contained": [ {
        "resourceType": "Parameters",
        "id": "d7b1cf14-a31d-4b7d-9577-2255db04805f-parameters",
        "parameter": [ {
          "name": "subject",
          "valueString": "8d786705-7605-4c33-a5d4-0ef145a3bcbc"
        } ]
      } ],
      "extension": [ {
        "url": "http://hl7.org/fhir/us/cqfmeasures/StructureDefinition/cqfm-inputParameters",
        "valueReference": {
          "reference": "#d7b1cf14-a31d-4b7d-9577-2255db04805f-parameters"
        }
      }, {
        "url": "http://hl7.org/fhir/us/cqfmeasures/StructureDefinition/cqfm-testCaseDescription",
        "valueMarkdown": "Patient with a diagnosis of HIV Jan 1 of year prior to MP and a qualifying encounter on Jan 1 of the measurement period with TWO viral load tests - 1) Jan 1 with result > 200, 2) Aug 28 (240 days) < 200"
      } ],
      "modifierExtension": [ {
        "url": "http://hl7.org/fhir/us/cqfmeasures/StructureDefinition/cqfm-isTestCase",
        "valueBoolean": true
      } ],
      "status": "complete",
      "type": "individual",
      "measure": "Measure/HIVViralSuppressionFHIR",
      "period": {
        "start": "2025-01-01",
        "end": "2025-12-31"
      },
      "group": [ {
        "population": [ {
          "code": {
            "coding": [ {
              "system": "http://terminology.hl7.org/CodeSystem/measure-population",
              "code": "initial-population",
              "display": "Initial Population"
            } ]
          },
          "count": 1
        }, {
          "code": {
            "coding": [ {
              "system": "http://terminology.hl7.org/CodeSystem/measure-population",
              "code": "denominator",
              "display": "Denominator"
            } ]
          },
          "count": 1
        }, {
          "code": {
            "coding": [ {
              "system": "http://terminology.hl7.org/CodeSystem/measure-population",
              "code": "numerator",
              "display": "Numerator"
            } ]
          },
          "count": 1
        } ]
      } ],
      "evaluatedResource": [ {
        "reference": "Patient/8d786705-7605-4c33-a5d4-0ef145a3bcbc"
      }, {
        "reference": "Condition/hiv-f3d6"
      }, {
        "reference": "Encounter/preventive-care-services-established-office-visit-18-and-up-f3d7"
      }, {
        "reference": "Observation/hiv-viral-load-f3d8"
      }, {
        "reference": "Observation/hiv-viral-load-f3d9"
      }, {
        "reference": "Coverage/Coverage-1"
      }, {
        "reference": "Organization/Org-123456"
      }, {
        "reference": "Practitioner/practitioner-123456"
      } ]
    },
    "request": {
      "method": "PUT",
      "url": "MeasureReport/2c964d26-a6e9-4c9c-afff-b34bf9d7b4a5"
    }
  } ]
}
