{
  "resourceType": "Bundle",
  "id": "OBSERVPass-NumMOPass2Falls2InjSameEncounter",
  "type": "transaction",
  "entry": [ {
    "fullUrl": "https://madie.cms.gov/Encounter/0de67187-8cd0-4a80-a520-d134c7e79aca",
    "resource": {
      "resourceType": "Encounter",
      "id": "0de67187-8cd0-4a80-a520-d134c7e79aca",
      "meta": {
        "profile": [ "http://hl7.org/fhir/us/qicore/StructureDefinition/qicore-encounter" ]
      },
      "status": "finished",
      "class": {
        "system": "http://terminology.hl7.org/CodeSystem/v3-ActCode",
        "code": "IMP",
        "display": "inpatient encounter"
      },
      "type": [ {
        "coding": [ {
          "system": "http://snomed.info/sct",
          "code": "183452005"
        } ]
      } ],
      "subject": {
        "reference": "Patient/c86a4e13-f956-4e70-a043-68168d2bf660"
      },
      "period": {
        "start": "2026-12-04T08:00:00+00:00",
        "end": "2026-12-07T08:15:00+00:00"
      },
      "diagnosis": [ {
        "extension": [ {
          "url": "http://hl7.org/fhir/us/qicore/StructureDefinition/qicore-encounter-diagnosisPresentOnAdmission",
          "valueCodeableConcept": {
            "coding": [ {
              "system": "https://www.cms.gov/Medicare/Medicare-Fee-for-Service-Payment/HospitalAcqCond/Coding",
              "code": "U"
            } ]
          }
        } ],
        "condition": {
          "reference": "Condition/7a48846e-f0bb-4408-a44b-3d06b6514a9d"
        }
      }, {
        "extension": [ {
          "url": "http://hl7.org/fhir/us/qicore/StructureDefinition/qicore-encounter-diagnosisPresentOnAdmission",
          "valueCodeableConcept": {
            "coding": [ {
              "system": "https://www.cms.gov/Medicare/Medicare-Fee-for-Service-Payment/HospitalAcqCond/Coding",
              "code": "N"
            } ]
          }
        } ],
        "condition": {
          "reference": "Condition/OBSERVPass--NumMOPass2Falls2InjSameEncounter-Condition-2"
        }
      }, {
        "extension": [ {
          "url": "http://hl7.org/fhir/us/qicore/StructureDefinition/qicore-encounter-diagnosisPresentOnAdmission",
          "valueCodeableConcept": {
            "coding": [ {
              "system": "https://www.cms.gov/Medicare/Medicare-Fee-for-Service-Payment/HospitalAcqCond/Coding",
              "code": "N"
            } ]
          }
        } ],
        "condition": {
          "reference": "Condition/c6f23046-c2f5-4e8a-9071-9e06d595a657"
        }
      } ]
    },
    "request": {
      "method": "PUT",
      "url": "Encounter/0de67187-8cd0-4a80-a520-d134c7e79aca"
    }
  }, {
    "fullUrl": "https://madie.cms.gov/Condition/c6f23046-c2f5-4e8a-9071-9e06d595a657",
    "resource": {
      "resourceType": "Condition",
      "id": "c6f23046-c2f5-4e8a-9071-9e06d595a657",
      "meta": {
        "profile": [ "http://hl7.org/fhir/us/qicore/StructureDefinition/qicore-condition" ]
      },
      "clinicalStatus": {
        "coding": [ {
          "system": "http://terminology.hl7.org/CodeSystem/condition-clinical",
          "code": "active"
        } ]
      },
      "verificationStatus": {
        "coding": [ {
          "system": "http://terminology.hl7.org/CodeSystem/condition-ver-status",
          "code": "confirmed"
        } ]
      },
      "category": [ {
        "coding": [ {
          "system": "http://terminology.hl7.org/CodeSystem/condition-category",
          "code": "encounter-diagnosis",
          "display": "Encounter Diagnosis"
        } ]
      } ],
      "code": {
        "coding": [ {
          "system": "http://hl7.org/fhir/sid/icd-10-cm",
          "code": "S01.00XA"
        } ]
      },
      "subject": {
        "reference": "Patient/c86a4e13-f956-4e70-a043-68168d2bf660"
      },
      "encounter": {
        "reference": "Encounter/0de67187-8cd0-4a80-a520-d134c7e79aca"
      }
    },
    "request": {
      "method": "PUT",
      "url": "Condition/c6f23046-c2f5-4e8a-9071-9e06d595a657"
    }
  }, {
    "fullUrl": "https://madie.cms.gov/Condition/f5aa28c5-226b-469f-aea7-974c3adce4bc",
    "resource": {
      "resourceType": "Condition",
      "id": "f5aa28c5-226b-469f-aea7-974c3adce4bc",
      "meta": {
        "profile": [ "http://hl7.org/fhir/us/qicore/StructureDefinition/qicore-condition" ]
      },
      "clinicalStatus": {
        "coding": [ {
          "system": "http://terminology.hl7.org/CodeSystem/condition-clinical",
          "code": "active"
        } ]
      },
      "verificationStatus": {
        "coding": [ {
          "system": "http://terminology.hl7.org/CodeSystem/condition-ver-status",
          "code": "confirmed"
        } ]
      },
      "category": [ {
        "coding": [ {
          "system": "http://terminology.hl7.org/CodeSystem/condition-category",
          "code": "encounter-diagnosis",
          "display": "Encounter Diagnosis"
        } ]
      } ],
      "code": {
        "coding": [ {
          "system": "http://snomed.info/sct",
          "code": "10815981000119103"
        } ]
      },
      "subject": {
        "reference": "Patient/c86a4e13-f956-4e70-a043-68168d2bf660"
      },
      "encounter": {
        "reference": "Encounter/0de67187-8cd0-4a80-a520-d134c7e79aca"
      }
    },
    "request": {
      "method": "PUT",
      "url": "Condition/f5aa28c5-226b-469f-aea7-974c3adce4bc"
    }
  }, {
    "fullUrl": "https://madie.cms.gov/Condition/7a48846e-f0bb-4408-a44b-3d06b6514a9d",
    "resource": {
      "resourceType": "Condition",
      "id": "7a48846e-f0bb-4408-a44b-3d06b6514a9d",
      "meta": {
        "profile": [ "http://hl7.org/fhir/us/qicore/StructureDefinition/qicore-condition" ]
      },
      "clinicalStatus": {
        "coding": [ {
          "system": "http://terminology.hl7.org/CodeSystem/condition-clinical",
          "code": "active"
        } ]
      },
      "verificationStatus": {
        "coding": [ {
          "system": "http://terminology.hl7.org/CodeSystem/condition-ver-status",
          "code": "confirmed"
        } ]
      },
      "category": [ {
        "coding": [ {
          "system": "http://terminology.hl7.org/CodeSystem/condition-category",
          "code": "encounter-diagnosis",
          "display": "Encounter Diagnosis"
        } ]
      } ],
      "code": {
        "coding": [ {
          "system": "http://snomed.info/sct",
          "code": "10129005"
        } ]
      },
      "subject": {
        "reference": "Patient/c86a4e13-f956-4e70-a043-68168d2bf660"
      },
      "encounter": {
        "reference": "Encounter/0de67187-8cd0-4a80-a520-d134c7e79aca"
      }
    },
    "request": {
      "method": "PUT",
      "url": "Condition/7a48846e-f0bb-4408-a44b-3d06b6514a9d"
    }
  }, {
    "fullUrl": "https://madie.cms.gov/Patient/c86a4e13-f956-4e70-a043-68168d2bf660",
    "resource": {
      "resourceType": "Patient",
      "id": "c86a4e13-f956-4e70-a043-68168d2bf660",
      "meta": {
        "profile": [ "http://hl7.org/fhir/us/qicore/StructureDefinition/qicore-patient" ]
      },
      "extension": [ {
        "url": "http://hl7.org/fhir/us/core/StructureDefinition/us-core-race",
        "extension": [ {
          "url": "ombCategory",
          "valueCoding": {
            "system": "urn:oid:2.16.840.1.113883.6.238",
            "code": "2054-5",
            "display": "Black or African American",
            "userSelected": true
          }
        }, {
          "url": "text",
          "valueString": "Black or African American"
        } ]
      }, {
        "url": "http://hl7.org/fhir/us/core/StructureDefinition/us-core-ethnicity",
        "extension": [ {
          "url": "ombCategory",
          "valueCoding": {
            "system": "urn:oid:2.16.840.1.113883.6.238",
            "code": "2186-5",
            "display": "Not Hispanic or Latino",
            "userSelected": true
          }
        }, {
          "url": "text",
          "valueString": "Not Hispanic or Latino"
        } ]
      } ],
      "identifier": [ {
        "type": {
          "coding": [ {
            "system": "http://terminology.hl7.org/CodeSystem/v2-0203",
            "code": "MR"
          } ]
        },
        "system": "https://bonnie-fhir.healthit.gov/",
        "value": "61152a3b98086b7a79cbd7c1"
      } ],
      "active": true,
      "name": [ {
        "use": "usual",
        "family": "OBSERVPass",
        "given": [ "NumMOPass2Falls2InjSameEncounter" ]
      } ],
      "gender": "male",
      "birthDate": "1964-12-11"
    },
    "request": {
      "method": "PUT",
      "url": "Patient/c86a4e13-f956-4e70-a043-68168d2bf660"
    }
  }, {
    "fullUrl": "https://madie.cms.gov/AdverseEvent/11e64865-f420-4537-82bf-092c24cd4875",
    "resource": {
      "resourceType": "AdverseEvent",
      "id": "11e64865-f420-4537-82bf-092c24cd4875",
      "meta": {
        "profile": [ "http://hl7.org/fhir/us/qicore/StructureDefinition/qicore-adverseevent" ]
      },
      "actuality": "actual",
      "event": {
        "coding": [ {
          "system": "http://hl7.org/fhir/sid/icd-10-cm",
          "code": "W01.0XXA"
        } ]
      },
      "subject": {
        "reference": "Patient/c86a4e13-f956-4e70-a043-68168d2bf660"
      },
      "date": "2026-12-07T08:00:00+00:00"
    },
    "request": {
      "method": "PUT",
      "url": "AdverseEvent/11e64865-f420-4537-82bf-092c24cd4875"
    }
  }, {
    "fullUrl": "https://madie.cms.gov/AdverseEvent/c11a4cc8-dd95-41b4-afaf-f20e8b273bff",
    "resource": {
      "resourceType": "AdverseEvent",
      "id": "c11a4cc8-dd95-41b4-afaf-f20e8b273bff",
      "meta": {
        "profile": [ "http://hl7.org/fhir/us/qicore/StructureDefinition/qicore-adverseevent" ]
      },
      "actuality": "actual",
      "event": {
        "coding": [ {
          "system": "http://hl7.org/fhir/sid/icd-10-cm",
          "code": "W01.0XXA"
        } ]
      },
      "subject": {
        "reference": "Patient/c86a4e13-f956-4e70-a043-68168d2bf660"
      },
      "date": "2026-12-05T08:00:00+00:00"
    },
    "request": {
      "method": "PUT",
      "url": "AdverseEvent/c11a4cc8-dd95-41b4-afaf-f20e8b273bff"
    }
  }, {
    "fullUrl": "https://madie.cms.gov/MeasureReport/90a9f7b2-f30d-4fe8-bde0-625668bfc6be",
    "resource": {
      "resourceType": "MeasureReport",
      "id": "90a9f7b2-f30d-4fe8-bde0-625668bfc6be",
      "meta": {
        "profile": [ "http://hl7.org/fhir/us/cqfmeasures/StructureDefinition/test-case-cqfm" ]
      },
      "contained": [ {
        "resourceType": "Parameters",
        "id": "8a6e3fdc-06cb-4410-b57f-f107f0ec1846-parameters",
        "parameter": [ {
          "name": "subject",
          "valueString": "c86a4e13-f956-4e70-a043-68168d2bf660"
        } ]
      } ],
      "extension": [ {
        "url": "http://hl7.org/fhir/us/cqfmeasures/StructureDefinition/cqfm-inputParameters",
        "valueReference": {
          "reference": "#8a6e3fdc-06cb-4410-b57f-f107f0ec1846-parameters"
        }
      }, {
        "url": "http://hl7.org/fhir/us/cqfmeasures/StructureDefinition/cqfm-testCaseDescription",
        "valueMarkdown": "Encounter with 2 adv event Falls and 2 injuries NPOA during encounter. Only counts 1 fall with injury per encounter for both Numerator and Numer MO. \nNumerator = 1\nNumerator MO = 1"
      } ],
      "modifierExtension": [ {
        "url": "http://hl7.org/fhir/us/cqfmeasures/StructureDefinition/cqfm-isTestCase",
        "valueBoolean": true
      } ],
      "status": "complete",
      "type": "individual",
      "measure": "https://madie.cms.gov/Measure/FallsWithInjuryFHIR",
      "period": {
        "start": "2026-01-01",
        "end": "2026-12-31"
      },
      "group": [ {
        "population": [ {
          "code": {
            "coding": [ {
              "system": "http://terminology.hl7.org/CodeSystem/measure-population",
              "code": "initial-population",
              "display": "Initial Population"
            } ]
          },
          "count": 1
        }, {
          "code": {
            "coding": [ {
              "system": "http://terminology.hl7.org/CodeSystem/measure-population",
              "code": "denominator",
              "display": "Denominator"
            } ]
          },
          "count": 1
        }, {
          "code": {
            "coding": [ {
              "system": "http://terminology.hl7.org/CodeSystem/measure-population",
              "code": "denominator-exclusion",
              "display": "Denominator Exclusion"
            } ]
          },
          "count": 0
        }, {
          "code": {
            "coding": [ {
              "system": "http://terminology.hl7.org/CodeSystem/measure-population",
              "code": "numerator",
              "display": "Numerator"
            } ]
          },
          "count": 1
        }, {
          "code": {
            "coding": [ {
              "system": "http://terminology.hl7.org/CodeSystem/measure-population",
              "code": "numerator-exclusion",
              "display": "Numerator Exclusion"
            } ]
          },
          "count": 0
        }, {
          "code": {
            "coding": [ {
              "system": "http://terminology.hl7.org/CodeSystem/measure-population",
              "code": "denominator-observation",
              "display": "DenominatorObservation"
            } ]
          },
          "count": 3
        }, {
          "code": {
            "coding": [ {
              "system": "http://terminology.hl7.org/CodeSystem/measure-population",
              "code": "numerator-observation",
              "display": "Numerator Observation"
            } ]
          },
          "count": 1
        } ]
      } ],
      "evaluatedResource": [ {
        "reference": "Encounter/0de67187-8cd0-4a80-a520-d134c7e79aca"
      }, {
        "reference": "Condition/c6f23046-c2f5-4e8a-9071-9e06d595a657"
      }, {
        "reference": "Condition/f5aa28c5-226b-469f-aea7-974c3adce4bc"
      }, {
        "reference": "Condition/7a48846e-f0bb-4408-a44b-3d06b6514a9d"
      }, {
        "reference": "Patient/c86a4e13-f956-4e70-a043-68168d2bf660"
      }, {
        "reference": "AdverseEvent/11e64865-f420-4537-82bf-092c24cd4875"
      }, {
        "reference": "AdverseEvent/c11a4cc8-dd95-41b4-afaf-f20e8b273bff"
      } ]
    },
    "request": {
      "method": "PUT",
      "url": "MeasureReport/90a9f7b2-f30d-4fe8-bde0-625668bfc6be"
    }
  } ]
}