{
  "resourceType": "Bundle",
  "id": "661476b015ed5841a5547ebf",
  "type": "transaction",
  "entry": [ {
    "fullUrl": "https://madie.cms.gov/Patient/ee13a2d8-61d9-4d2f-8f13-1423bd271950",
    "resource": {
      "resourceType": "Patient",
      "id": "ee13a2d8-61d9-4d2f-8f13-1423bd271950",
      "meta": {
        "profile": [ "http://hl7.org/fhir/us/qicore/StructureDefinition/qicore-patient" ]
      },
      "extension": [ {
        "url": "http://hl7.org/fhir/us/core/StructureDefinition/us-core-race",
        "extension": [ {
          "url": "ombCategory",
          "valueCoding": {
            "system": "urn:oid:2.16.840.1.113883.6.238",
            "code": "1002-5",
            "display": "American Indian or Alaska Native",
            "userSelected": true
          }
        }, {
          "url": "text",
          "valueString": "American Indian or Alaska Native"
        } ]
      }, {
        "url": "http://hl7.org/fhir/us/core/StructureDefinition/us-core-ethnicity",
        "extension": [ {
          "url": "ombCategory",
          "valueCoding": {
            "system": "urn:oid:2.16.840.1.113883.6.238",
            "code": "2135-2",
            "display": "Hispanic or Latino",
            "userSelected": true
          }
        }, {
          "url": "text",
          "valueString": "Hispanic or Latino"
        } ]
      } ],
      "identifier": [ {
        "type": {
          "coding": [ {
            "system": "http://terminology.hl7.org/CodeSystem/v2-0203",
            "code": "MR"
          } ]
        },
        "system": "https://bonnie-fhir.healthit.gov/",
        "value": "661476b015ed5841a5547ebf"
      } ],
      "name": [ {
        "family": "NUMERPop4Fail",
        "given": [ "TransferOrderStatusRevoked" ]
      } ],
      "gender": "male",
      "birthDate": "2007-01-01"
    },
    "request": {
      "method": "PUT",
      "url": "Patient/ee13a2d8-61d9-4d2f-8f13-1423bd271950"
    }
  }, {
    "fullUrl": "https://madie.cms.gov/Encounter/43437ed1-2bfb-4da2-a094-910c5c277345",
    "resource": {
      "resourceType": "Encounter",
      "id": "43437ed1-2bfb-4da2-a094-910c5c277345",
      "meta": {
        "profile": [ "http://hl7.org/fhir/us/qicore/StructureDefinition/qicore-encounter" ]
      },
      "status": "finished",
      "class": {
        "system": "http://terminology.hl7.org/CodeSystem/v3-ActCode",
        "code": "EMER",
        "display": "emergency department"
      },
      "type": [ {
        "coding": [ {
          "system": "http://snomed.info/sct",
          "version": "2023-09",
          "code": "4525004",
          "display": "Emergency department patient visit (procedure)",
          "userSelected": true
        } ]
      } ],
      "subject": {
        "reference": "Patient/ee13a2d8-61d9-4d2f-8f13-1423bd271950"
      },
      "period": {
        "start": "2026-01-01T19:58:00.000+00:00",
        "end": "2026-01-01T23:59:00.000+00:00"
      },
      "diagnosis": [ {
        "condition": {
          "reference": "Condition/c9dad529-e02d-454a-b135-3433f5291f9e"
        },
        "use": {
          "coding": [ {
            "system": "http://terminology.hl7.org/CodeSystem/diagnosis-role",
            "code": "billing"
          } ]
        },
        "rank": 1
      } ],
      "location": [ {
        "location": {
          "reference": "Location/75aac3d6-fd00-4a96-9904-c5560ba0d567"
        },
        "period": {
          "start": "2026-01-01T19:58:00.000+00:00",
          "end": "2026-01-01T23:59:00.000+00:00"
        }
      } ]
    },
    "request": {
      "method": "PUT",
      "url": "Encounter/43437ed1-2bfb-4da2-a094-910c5c277345"
    }
  }, {
    "fullUrl": "https://madie.cms.gov/ServiceRequest/269b2da5-6934-4388-9542-1e57f637c8ad",
    "resource": {
      "resourceType": "ServiceRequest",
      "id": "269b2da5-6934-4388-9542-1e57f637c8ad",
      "meta": {
        "profile": [ "http://hl7.org/fhir/us/qicore/StructureDefinition/qicore-servicerequest" ]
      },
      "status": "revoked",
      "intent": "order",
      "code": {
        "coding": [ {
          "system": "http://snomed.info/sct",
          "version": "2023-09",
          "code": "448551000124100",
          "display": "Patient transfer to another hospital (procedure)",
          "userSelected": true
        } ]
      },
      "subject": {
        "reference": "Patient/ee13a2d8-61d9-4d2f-8f13-1423bd271950"
      },
      "authoredOn": "2026-01-01T19:58:00.000+00:00"
    },
    "request": {
      "method": "PUT",
      "url": "ServiceRequest/269b2da5-6934-4388-9542-1e57f637c8ad"
    }
  }, {
    "fullUrl": "https://madie.cms.gov/Location/75aac3d6-fd00-4a96-9904-c5560ba0d567",
    "resource": {
      "resourceType": "Location",
      "id": "75aac3d6-fd00-4a96-9904-c5560ba0d567",
      "meta": {
        "profile": [ "http://hl7.org/fhir/us/qicore/StructureDefinition/qicore-location" ]
      },
      "identifier": [ {
        "use": "usual",
        "system": "http://exampleoflocation.com",
        "value": "B1-S.F2"
      } ],
      "name": "Medical Surgical East, first floor",
      "type": [ {
        "coding": [ {
          "system": "https://www.cdc.gov/nhsn/cdaportal/terminology/codesystem/hsloc.html",
          "version": "2022",
          "code": "1108-0",
          "display": "Emergency Department",
          "userSelected": true
        } ]
      } ]
    },
    "request": {
      "method": "PUT",
      "url": "Location/75aac3d6-fd00-4a96-9904-c5560ba0d567"
    }
  }, {
    "fullUrl": "https://madie.cms.gov/Coverage/2736e0a4-ad9a-4161-83d1-983450e6cbd3",
    "resource": {
      "resourceType": "Coverage",
      "id": "2736e0a4-ad9a-4161-83d1-983450e6cbd3",
      "meta": {
        "profile": [ "http://hl7.org/fhir/us/qicore/StructureDefinition/qicore-coverage" ]
      },
      "status": "active",
      "beneficiary": {
        "reference": "Patient/ee13a2d8-61d9-4d2f-8f13-1423bd271950"
      },
      "payor": [ {
        "reference": "Organization/a2dec998-1ec3-4ce0-805e-171ed46a3ec6"
      } ]
    },
    "request": {
      "method": "PUT",
      "url": "Coverage/2736e0a4-ad9a-4161-83d1-983450e6cbd3"
    }
  }, {
    "fullUrl": "https://madie.cms.gov/Condition/c9dad529-e02d-454a-b135-3433f5291f9e",
    "resource": {
      "resourceType": "Condition",
      "id": "c9dad529-e02d-454a-b135-3433f5291f9e",
      "meta": {
        "profile": [ "http://hl7.org/fhir/us/qicore/StructureDefinition/qicore-condition" ]
      },
      "category": [ {
        "coding": [ {
          "system": "http://terminology.hl7.org/CodeSystem/condition-category",
          "code": "encounter-diagnosis",
          "display": "Encounter Diagnosis"
        } ]
      } ],
      "code": {
        "coding": [ {
          "system": "http://snomed.info/sct",
          "version": "2023-09",
          "code": "10349009",
          "display": "Multi-infarct dementia with delirium (disorder)",
          "userSelected": true
        } ]
      },
      "subject": {
        "reference": "Patient/ee13a2d8-61d9-4d2f-8f13-1423bd271950"
      },
      "recordedDate": "2026-04-09T08:00:00.000+00:00"
    },
    "request": {
      "method": "PUT",
      "url": "Condition/c9dad529-e02d-454a-b135-3433f5291f9e"
    }
  }, {
    "fullUrl": "https://madie.cms.gov/Organization/a2dec998-1ec3-4ce0-805e-171ed46a3ec6",
    "resource": {
      "resourceType": "Organization",
      "id": "a2dec998-1ec3-4ce0-805e-171ed46a3ec6",
      "meta": {
        "profile": [ "http://hl7.org/fhir/us/qicore/StructureDefinition/qicore-organization" ]
      },
      "identifier": [ {
        "use": "temp",
        "system": "urn:oid:2.16.840.1.113883.4.4",
        "value": "21-3259825"
      } ],
      "active": true,
      "type": [ {
        "coding": [ {
          "system": "http://terminology.hl7.org/CodeSystem/organization-type",
          "code": "pay",
          "display": "Payer"
        } ]
      } ],
      "name": "Blue Cross Blue Shield of Texas",
      "telecom": [ {
        "system": "phone",
        "value": "(+1) 972-766-6900"
      } ],
      "address": [ {
        "use": "billing",
        "type": "postal",
        "line": [ "P.O. Box 660044" ],
        "city": "Dallas",
        "state": "TX",
        "postalCode": "75266-0044",
        "country": "USA"
      } ]
    },
    "request": {
      "method": "PUT",
      "url": "Organization/a2dec998-1ec3-4ce0-805e-171ed46a3ec6"
    }
  }, {
    "fullUrl": "https://madie.cms.gov/Practitioner/df2ab470-1e1d-4022-919e-355033806336",
    "resource": {
      "resourceType": "Practitioner",
      "id": "df2ab470-1e1d-4022-919e-355033806336",
      "meta": {
        "profile": [ "http://hl7.org/fhir/us/qicore/StructureDefinition/qicore-practitioner" ]
      },
      "identifier": [ {
        "system": "http://hl7.org/fhir/sid/us-npi",
        "value": "123456"
      } ],
      "name": [ {
        "family": "Evil",
        "prefix": [ "Dr" ]
      } ]
    },
    "request": {
      "method": "PUT",
      "url": "Practitioner/df2ab470-1e1d-4022-919e-355033806336"
    }
  }, {
    "fullUrl": "https://madie.cms.gov/MeasureReport/26755190-39c2-4f9b-9fe6-ae258ed36aa2",
    "resource": {
      "resourceType": "MeasureReport",
      "id": "26755190-39c2-4f9b-9fe6-ae258ed36aa2",
      "meta": {
        "profile": [ "http://hl7.org/fhir/us/cqfmeasures/StructureDefinition/test-case-cqfm" ]
      },
      "contained": [ {
        "resourceType": "Parameters",
        "id": "02cd94c0-9bd5-4ac8-8b70-037f554b2369-parameters",
        "parameter": [ {
          "name": "subject",
          "valueString": "ee13a2d8-61d9-4d2f-8f13-1423bd271950"
        } ]
      } ],
      "extension": [ {
        "url": "http://hl7.org/fhir/us/cqfmeasures/StructureDefinition/cqfm-inputParameters",
        "valueReference": {
          "reference": "#02cd94c0-9bd5-4ac8-8b70-037f554b2369-parameters"
        }
      }, {
        "url": "http://hl7.org/fhir/us/cqfmeasures/StructureDefinition/cqfm-testCaseDescription",
        "valueMarkdown": "Enc first day of MP, ends 1 min before midnight, decision to transfer order, decision to transfer order status is revoked."
      } ],
      "modifierExtension": [ {
        "url": "http://hl7.org/fhir/us/cqfmeasures/StructureDefinition/cqfm-isTestCase",
        "valueBoolean": true
      } ],
      "status": "complete",
      "type": "individual",
      "measure": "https://madie.cms.gov/Measure/CMS1264ECCQREHQRFHIR",
      "period": {
        "start": "2026-01-01",
        "end": "2026-12-31"
      },
      "group": [ {
        "population": [ {
          "code": {
            "coding": [ {
              "system": "http://terminology.hl7.org/CodeSystem/measure-population",
              "code": "initial-population",
              "display": "Initial Population"
            } ]
          },
          "count": 1
        }, {
          "code": {
            "coding": [ {
              "system": "http://terminology.hl7.org/CodeSystem/measure-population",
              "code": "denominator",
              "display": "Denominator"
            } ]
          },
          "count": 1
        }, {
          "code": {
            "coding": [ {
              "system": "http://terminology.hl7.org/CodeSystem/measure-population",
              "code": "numerator",
              "display": "Numerator"
            } ]
          },
          "count": 0
        } ]
      } ],
      "evaluatedResource": [ {
        "reference": "Patient/ee13a2d8-61d9-4d2f-8f13-1423bd271950"
      }, {
        "reference": "Encounter/43437ed1-2bfb-4da2-a094-910c5c277345"
      }, {
        "reference": "ServiceRequest/269b2da5-6934-4388-9542-1e57f637c8ad"
      }, {
        "reference": "Location/75aac3d6-fd00-4a96-9904-c5560ba0d567"
      }, {
        "reference": "Coverage/2736e0a4-ad9a-4161-83d1-983450e6cbd3"
      }, {
        "reference": "Condition/c9dad529-e02d-454a-b135-3433f5291f9e"
      }, {
        "reference": "Organization/a2dec998-1ec3-4ce0-805e-171ed46a3ec6"
      }, {
        "reference": "Practitioner/df2ab470-1e1d-4022-919e-355033806336"
      } ]
    },
    "request": {
      "method": "PUT",
      "url": "MeasureReport/26755190-39c2-4f9b-9fe6-ae258ed36aa2"
    }
  } ]
}