{
  "resourceType": "Bundle",
  "id": "63530b4c224f3b053967124f",
  "type": "transaction",
  "entry": [ {
    "fullUrl": "https://madie.cms.gov/Patient/76aeb357-2421-49ed-af1b-6a8b772b676c",
    "resource": {
      "resourceType": "Patient",
      "id": "76aeb357-2421-49ed-af1b-6a8b772b676c",
      "meta": {
        "profile": [ "http://hl7.org/fhir/us/qicore/StructureDefinition/qicore-patient" ]
      },
      "extension": [ {
        "url": "http://hl7.org/fhir/us/core/StructureDefinition/us-core-race",
        "extension": [ {
          "url": "ombCategory",
          "valueCoding": {
            "system": "urn:oid:2.16.840.1.113883.6.238",
            "code": "1002-5",
            "display": "American Indian or Alaska Native",
            "userSelected": true
          }
        }, {
          "url": "text",
          "valueString": "American Indian or Alaska Native"
        } ]
      }, {
        "url": "http://hl7.org/fhir/us/core/StructureDefinition/us-core-ethnicity",
        "extension": [ {
          "url": "ombCategory",
          "valueCoding": {
            "system": "urn:oid:2.16.840.1.113883.6.238",
            "code": "2135-2",
            "display": "Hispanic or Latino",
            "userSelected": true
          }
        }, {
          "url": "text",
          "valueString": "Hispanic or Latino"
        } ]
      } ],
      "identifier": [ {
        "type": {
          "coding": [ {
            "system": "http://terminology.hl7.org/CodeSystem/v2-0203",
            "code": "MR"
          } ]
        },
        "system": "https://bonnie-fhir.healthit.gov/",
        "value": "63530b4c224f3b053967124f"
      } ],
      "name": [ {
        "family": "DENOMPass",
        "given": [ "LastAssPrfEDDRelvTm42WksB4DELRsltDtTime " ]
      } ],
      "gender": "female",
      "birthDate": "2000-02-01"
    },
    "request": {
      "method": "PUT",
      "url": "Patient/76aeb357-2421-49ed-af1b-6a8b772b676c"
    }
  }, {
    "fullUrl": "https://madie.cms.gov/Encounter/4ed0e8c5-9a68-4fc6-88e0-b9ed7696f6cb",
    "resource": {
      "resourceType": "Encounter",
      "id": "4ed0e8c5-9a68-4fc6-88e0-b9ed7696f6cb",
      "meta": {
        "profile": [ "http://hl7.org/fhir/us/qicore/StructureDefinition/qicore-encounter" ]
      },
      "status": "finished",
      "class": {
        "system": "http://terminology.hl7.org/CodeSystem/v3-ActCode",
        "code": "IMP",
        "display": "inpatient encounter"
      },
      "type": [ {
        "coding": [ {
          "system": "http://snomed.info/sct",
          "version": "2022-09",
          "code": "183452005",
          "display": "Emergency hospital admission (procedure)",
          "userSelected": true
        } ]
      } ],
      "subject": {
        "reference": "Patient/76aeb357-2421-49ed-af1b-6a8b772b676c"
      },
      "period": {
        "start": "2025-01-30T08:00:00.000+00:00",
        "end": "2025-02-05T08:15:00.000+00:00"
      }
    },
    "request": {
      "method": "PUT",
      "url": "Encounter/4ed0e8c5-9a68-4fc6-88e0-b9ed7696f6cb"
    }
  }, {
    "fullUrl": "https://madie.cms.gov/Procedure/7108f950-a6d1-4c32-bb2b-8fdf2e2e9ae1",
    "resource": {
      "resourceType": "Procedure",
      "id": "7108f950-a6d1-4c32-bb2b-8fdf2e2e9ae1",
      "meta": {
        "profile": [ "http://hl7.org/fhir/us/qicore/StructureDefinition/qicore-procedure" ]
      },
      "extension": [ {
        "url": "http://hl7.org/fhir/us/qicore/StructureDefinition/qicore-recorded",
        "valueDateTime": "2013-04-05T09:35:00-04:00"
      } ],
      "status": "completed",
      "code": {
        "coding": [ {
          "system": "http://snomed.info/sct",
          "version": "2022-09",
          "code": "10745001",
          "display": "Delivery of transverse presentation (procedure)",
          "userSelected": true
        } ]
      },
      "subject": {
        "reference": "Patient/76aeb357-2421-49ed-af1b-6a8b772b676c"
      },
      "performedPeriod": {
        "start": "2025-02-01T08:00:00.000+00:00",
        "end": "2025-02-05T08:15:00.000+00:00"
      }
    },
    "request": {
      "method": "PUT",
      "url": "Procedure/7108f950-a6d1-4c32-bb2b-8fdf2e2e9ae1"
    }
  }, {
    "fullUrl": "https://madie.cms.gov/Observation/acbe089c-bcf5-4e27-acab-faa0f534ad15",
    "resource": {
      "resourceType": "Observation",
      "id": "acbe089c-bcf5-4e27-acab-faa0f534ad15",
      "meta": {
        "profile": [ "http://hl7.org/fhir/us/qicore/StructureDefinition/qicore-observation" ]
      },
      "status": "final",
      "category": [ {
        "coding": [ {
          "system": "http://terminology.hl7.org/CodeSystem/observation-category",
          "code": "exam",
          "display": "exam",
          "userSelected": true
        } ]
      } ],
      "code": {
        "coding": [ {
          "system": "http://loinc.org",
          "code": "93857-1",
          "display": "Date and time of obstetric delivery",
          "userSelected": true
        } ]
      },
      "subject": {
        "reference": "Patient/76aeb357-2421-49ed-af1b-6a8b772b676c"
      },
      "effectiveDateTime": "2025-02-01T08:00:00.000+00:00",
      "valueDateTime": "2025-02-01T08:00:00.000+00:00"
    },
    "request": {
      "method": "PUT",
      "url": "Observation/acbe089c-bcf5-4e27-acab-faa0f534ad15"
    }
  }, {
    "fullUrl": "https://madie.cms.gov/Observation/324e4410-4c58-4c21-86ee-4d2d1d465107",
    "resource": {
      "resourceType": "Observation",
      "id": "324e4410-4c58-4c21-86ee-4d2d1d465107",
      "meta": {
        "profile": [ "http://hl7.org/fhir/us/qicore/StructureDefinition/qicore-observation" ]
      },
      "status": "final",
      "category": [ {
        "coding": [ {
          "system": "http://terminology.hl7.org/CodeSystem/observation-category",
          "code": "exam",
          "display": "exam",
          "userSelected": true
        } ]
      } ],
      "code": {
        "coding": [ {
          "system": "http://loinc.org",
          "code": "11778-8",
          "display": "Delivery date Estimated",
          "userSelected": true
        } ]
      },
      "subject": {
        "reference": "Patient/76aeb357-2421-49ed-af1b-6a8b772b676c"
      },
      "effectiveDateTime": "2024-04-13T08:00:00.000+00:00",
      "valueDateTime": "2025-02-01T08:00:00.000+00:00"
    },
    "request": {
      "method": "PUT",
      "url": "Observation/324e4410-4c58-4c21-86ee-4d2d1d465107"
    }
  }, {
    "fullUrl": "https://madie.cms.gov/Coverage/fbc8bbcb-0a9f-45d8-919b-cc4becaf4660",
    "resource": {
      "resourceType": "Coverage",
      "id": "fbc8bbcb-0a9f-45d8-919b-cc4becaf4660",
      "meta": {
        "profile": [ "http://hl7.org/fhir/us/qicore/StructureDefinition/qicore-coverage" ]
      },
      "status": "active",
      "beneficiary": {
        "reference": "Patient/76aeb357-2421-49ed-af1b-6a8b772b676c"
      },
      "payor": [ {
        "reference": "Organization/4375a094-49a9-41d6-a477-0f85cdb9c021"
      } ]
    },
    "request": {
      "method": "PUT",
      "url": "Coverage/fbc8bbcb-0a9f-45d8-919b-cc4becaf4660"
    }
  }, {
    "fullUrl": "https://madie.cms.gov/Organization/4375a094-49a9-41d6-a477-0f85cdb9c021",
    "resource": {
      "resourceType": "Organization",
      "id": "4375a094-49a9-41d6-a477-0f85cdb9c021",
      "meta": {
        "profile": [ "http://hl7.org/fhir/us/qicore/StructureDefinition/qicore-organization" ]
      },
      "identifier": [ {
        "use": "temp",
        "system": "urn:oid:2.16.840.1.113883.4.4",
        "value": "21-3259825"
      } ],
      "active": true,
      "type": [ {
        "coding": [ {
          "system": "http://terminology.hl7.org/CodeSystem/organization-type",
          "code": "pay",
          "display": "Payer"
        } ]
      } ],
      "name": "Blue Cross Blue Shield of Texas",
      "telecom": [ {
        "system": "phone",
        "value": "(+1) 972-766-6900"
      } ],
      "address": [ {
        "use": "billing",
        "type": "postal",
        "line": [ "P.O. Box 660044" ],
        "city": "Dallas",
        "state": "TX",
        "postalCode": "75266-0044",
        "country": "USA"
      } ]
    },
    "request": {
      "method": "PUT",
      "url": "Organization/4375a094-49a9-41d6-a477-0f85cdb9c021"
    }
  }, {
    "fullUrl": "https://madie.cms.gov/Practitioner/e951514e-608e-493f-a0f9-aa821916d922",
    "resource": {
      "resourceType": "Practitioner",
      "id": "e951514e-608e-493f-a0f9-aa821916d922",
      "identifier": [ {
        "system": "http://hl7.org/fhir/sid/us-npi",
        "value": "123456"
      } ],
      "name": [ {
        "family": "Evil",
        "prefix": [ "Dr" ]
      } ]
    },
    "request": {
      "method": "PUT",
      "url": "Practitioner/e951514e-608e-493f-a0f9-aa821916d922"
    }
  }, {
    "fullUrl": "https://madie.cms.gov/MeasureReport/2710fb6c-6af9-41ca-8858-558018e58a35",
    "resource": {
      "resourceType": "MeasureReport",
      "id": "2710fb6c-6af9-41ca-8858-558018e58a35",
      "meta": {
        "profile": [ "http://hl7.org/fhir/us/cqfmeasures/StructureDefinition/test-case-cqfm" ]
      },
      "contained": [ {
        "resourceType": "Parameters",
        "id": "b6a54767-7398-4240-ab56-b18210a6c7a7-parameters",
        "parameter": [ {
          "name": "subject",
          "valueString": "76aeb357-2421-49ed-af1b-6a8b772b676c"
        } ]
      } ],
      "extension": [ {
        "url": "http://hl7.org/fhir/us/cqfmeasures/StructureDefinition/cqfm-inputParameters",
        "valueReference": {
          "reference": "#b6a54767-7398-4240-ab56-b18210a6c7a7-parameters"
        }
      }, {
        "url": "http://hl7.org/fhir/us/cqfmeasures/StructureDefinition/cqfm-testCaseDescription",
        "valueMarkdown": "Last assessment Performed, Estimated Delivery Date, Relevant time, 42 weeks before Delivery Result Date/Time\n"
      } ],
      "modifierExtension": [ {
        "url": "http://hl7.org/fhir/us/cqfmeasures/StructureDefinition/cqfm-isTestCase",
        "valueBoolean": true
      } ],
      "status": "complete",
      "type": "individual",
      "measure": "https://madie.cms.gov/Measure/CMS1028FHIRPCSevereOBComps",
      "period": {
        "start": "2025-01-01",
        "end": "2025-12-31"
      },
      "group": [ {
        "population": [ {
          "code": {
            "coding": [ {
              "system": "http://terminology.hl7.org/CodeSystem/measure-population",
              "code": "initial-population",
              "display": "Initial Population"
            } ]
          },
          "count": 1
        }, {
          "code": {
            "coding": [ {
              "system": "http://terminology.hl7.org/CodeSystem/measure-population",
              "code": "denominator",
              "display": "Denominator"
            } ]
          },
          "count": 1
        }, {
          "code": {
            "coding": [ {
              "system": "http://terminology.hl7.org/CodeSystem/measure-population",
              "code": "numerator",
              "display": "Numerator"
            } ]
          },
          "count": 0
        }, {
          "code": {
            "coding": [ {
              "system": "http://terminology.hl7.org/CodeSystem/measure-population",
              "code": "numerator-exclusion",
              "display": "Numerator Exclusion"
            } ]
          },
          "count": 0
        } ]
      }, {
        "population": [ {
          "code": {
            "coding": [ {
              "system": "http://terminology.hl7.org/CodeSystem/measure-population",
              "code": "initial-population",
              "display": "Initial Population"
            } ]
          },
          "count": 1
        }, {
          "code": {
            "coding": [ {
              "system": "http://terminology.hl7.org/CodeSystem/measure-population",
              "code": "denominator",
              "display": "Denominator"
            } ]
          },
          "count": 1
        }, {
          "code": {
            "coding": [ {
              "system": "http://terminology.hl7.org/CodeSystem/measure-population",
              "code": "numerator",
              "display": "Numerator"
            } ]
          },
          "count": 0
        }, {
          "code": {
            "coding": [ {
              "system": "http://terminology.hl7.org/CodeSystem/measure-population",
              "code": "numerator-exclusion",
              "display": "Numerator Exclusion"
            } ]
          },
          "count": 0
        } ]
      } ],
      "evaluatedResource": [ {
        "reference": "Patient/76aeb357-2421-49ed-af1b-6a8b772b676c"
      }, {
        "reference": "Encounter/4ed0e8c5-9a68-4fc6-88e0-b9ed7696f6cb"
      }, {
        "reference": "Procedure/7108f950-a6d1-4c32-bb2b-8fdf2e2e9ae1"
      }, {
        "reference": "Observation/acbe089c-bcf5-4e27-acab-faa0f534ad15"
      }, {
        "reference": "Observation/324e4410-4c58-4c21-86ee-4d2d1d465107"
      }, {
        "reference": "Coverage/fbc8bbcb-0a9f-45d8-919b-cc4becaf4660"
      }, {
        "reference": "Organization/4375a094-49a9-41d6-a477-0f85cdb9c021"
      }, {
        "reference": "Practitioner/e951514e-608e-493f-a0f9-aa821916d922"
      } ]
    },
    "request": {
      "method": "PUT",
      "url": "MeasureReport/2710fb6c-6af9-41ca-8858-558018e58a35"
    }
  } ]
}