{
  "resourceType": "Bundle",
  "id": "tests-DENOMPass-EncWithEDVisitMoreThanOneHrPriorToIPStart-bundle",
  "type": "transaction",
  "entry": [ {
    "fullUrl": "https://madie.cms.gov/Encounter/72da995f-1093-4cd3-8f07-552b3aa14541",
    "resource": {
      "resourceType": "Encounter",
      "id": "72da995f-1093-4cd3-8f07-552b3aa14541",
      "meta": {
        "profile": [ "http://hl7.org/fhir/us/qicore/StructureDefinition/qicore-encounter" ]
      },
      "status": "finished",
      "class": {
        "system": "http://terminology.hl7.org/CodeSystem/v3-ActCode",
        "code": "IMP",
        "display": "inpatient encounter"
      },
      "type": [ {
        "coding": [ {
          "system": "http://snomed.info/sct",
          "code": "112689000",
          "display": "Hospital admission, elective, with complete pre-admission work-up"
        } ],
        "text": "Hospital admission, elective, with complete pre-admission work-up"
      } ],
      "priority": {
        "coding": [ {
          "system": "http://snomed.info/sct",
          "code": "103390000"
        } ]
      },
      "subject": {
        "reference": "Patient/c6e6306d-e742-488e-8bde-71c1a8e1b0c1"
      },
      "period": {
        "start": "2026-04-10T08:00:00+00:00",
        "end": "2026-04-14T08:15:00+00:00"
      },
      "diagnosis": [ {
        "condition": {
          "reference": "Procedure/aadf55e9-01b4-41b9-8530-c82abf17c1a8"
        },
        "rank": 1
      } ]
    },
    "request": {
      "method": "PUT",
      "url": "Encounter/72da995f-1093-4cd3-8f07-552b3aa14541"
    }
  }, {
    "fullUrl": "https://madie.cms.gov/Encounter/7f86bf2d-2feb-4773-bb7d-1bf81fd2df79",
    "resource": {
      "resourceType": "Encounter",
      "id": "7f86bf2d-2feb-4773-bb7d-1bf81fd2df79",
      "meta": {
        "profile": [ "http://hl7.org/fhir/us/qicore/StructureDefinition/qicore-encounter" ]
      },
      "status": "finished",
      "class": {
        "system": "http://terminology.hl7.org/CodeSystem/v3-ActCode",
        "code": "IMP",
        "display": "inpatient encounter"
      },
      "type": [ {
        "coding": [ {
          "system": "http://snomed.info/sct",
          "code": "4525004",
          "display": "Emergency department patient visit"
        } ],
        "text": "Emergency department patient visit"
      } ],
      "subject": {
        "reference": "Patient/c6e6306d-e742-488e-8bde-71c1a8e1b0c1"
      },
      "period": {
        "start": "2026-04-09T08:00:00+00:00",
        "end": "2026-04-10T06:59:00+00:00"
      },
      "diagnosis": [ {
        "condition": {
          "reference": "Procedure/aadf55e9-01b4-41b9-8530-c82abf17c1a8"
        },
        "rank": 1
      } ]
    },
    "request": {
      "method": "PUT",
      "url": "Encounter/7f86bf2d-2feb-4773-bb7d-1bf81fd2df79"
    }
  }, {
    "fullUrl": "https://madie.cms.gov/Patient/c6e6306d-e742-488e-8bde-71c1a8e1b0c1",
    "resource": {
      "resourceType": "Patient",
      "id": "c6e6306d-e742-488e-8bde-71c1a8e1b0c1",
      "meta": {
        "profile": [ "http://hl7.org/fhir/us/qicore/StructureDefinition/qicore-patient" ]
      },
      "extension": [ {
        "url": "http://hl7.org/fhir/us/core/StructureDefinition/us-core-race",
        "extension": [ {
          "url": "ombCategory",
          "valueCoding": {
            "system": "urn:oid:2.16.840.1.113883.6.238",
            "code": "2054-5",
            "display": "Black or African American",
            "userSelected": true
          }
        }, {
          "url": "text",
          "valueString": "Black or African American"
        } ]
      }, {
        "url": "http://hl7.org/fhir/us/core/StructureDefinition/us-core-ethnicity",
        "extension": [ {
          "url": "ombCategory",
          "valueCoding": {
            "system": "urn:oid:2.16.840.1.113883.6.238",
            "code": "2186-5",
            "display": "Not Hispanic or Latino",
            "userSelected": true
          }
        }, {
          "url": "text",
          "valueString": "Not Hispanic or Latino"
        } ]
      } ],
      "identifier": [ {
        "type": {
          "coding": [ {
            "system": "http://terminology.hl7.org/CodeSystem/v2-0203",
            "code": "MR"
          } ]
        },
        "system": "https://bonnie-fhir.healthit.gov/",
        "value": "61152a3b98086b7a79cbd7c1"
      } ],
      "active": true,
      "name": [ {
        "use": "usual",
        "family": "DENOMPass",
        "given": [ "EncWithEDVisitMoreThanOneHrPriorToIPStart" ]
      } ],
      "gender": "female",
      "birthDate": "1966-07-12"
    },
    "request": {
      "method": "PUT",
      "url": "Patient/c6e6306d-e742-488e-8bde-71c1a8e1b0c1"
    }
  }, {
    "fullUrl": "https://madie.cms.gov/Procedure/aadf55e9-01b4-41b9-8530-c82abf17c1a8",
    "resource": {
      "resourceType": "Procedure",
      "id": "aadf55e9-01b4-41b9-8530-c82abf17c1a8",
      "meta": {
        "profile": [ "http://hl7.org/fhir/us/qicore/StructureDefinition/qicore-procedure" ]
      },
      "extension": [ {
        "url": "http://hl7.org/fhir/us/qicore/StructureDefinition/qicore-recorded",
        "valueDateTime": "2026-04-11T10:30:00+00:00"
      } ],
      "status": "completed",
      "category": {
        "coding": [ {
          "system": "http://snomed.info/sct",
          "code": "18286008",
          "display": "General or neuraxial anesthesia"
        } ]
      },
      "code": {
        "coding": [ {
          "system": "http://snomed.info/sct",
          "code": "112943005",
          "display": "Epidural injection of anesthetic substance, diagnostic, caudal, continuous"
        } ]
      },
      "subject": {
        "reference": "Patient/c6e6306d-e742-488e-8bde-71c1a8e1b0c1"
      },
      "performedPeriod": {
        "start": "2026-04-11T08:00:00+00:00",
        "end": "2026-04-11T10:15:00+00:00"
      }
    },
    "request": {
      "method": "PUT",
      "url": "Procedure/aadf55e9-01b4-41b9-8530-c82abf17c1a8"
    }
  }, {
    "fullUrl": "https://madie.cms.gov/MeasureReport/da4e4f30-8f44-457c-af0d-0926966dbf0d",
    "resource": {
      "resourceType": "MeasureReport",
      "id": "da4e4f30-8f44-457c-af0d-0926966dbf0d",
      "meta": {
        "profile": [ "http://hl7.org/fhir/us/cqfmeasures/StructureDefinition/test-case-cqfm" ]
      },
      "contained": [ {
        "resourceType": "Parameters",
        "id": "814449db-96ed-434a-9c02-00762b6d3013-parameters",
        "parameter": [ {
          "name": "subject",
          "valueString": "c6e6306d-e742-488e-8bde-71c1a8e1b0c1"
        } ]
      } ],
      "extension": [ {
        "url": "http://hl7.org/fhir/us/cqfmeasures/StructureDefinition/cqfm-inputParameters",
        "valueReference": {
          "reference": "#814449db-96ed-434a-9c02-00762b6d3013-parameters"
        }
      }, {
        "url": "http://hl7.org/fhir/us/cqfmeasures/StructureDefinition/cqfm-testCaseDescription",
        "valueMarkdown": "Elective hospitalization with proc (general anesthesia) within first 3 days of encounter. But has ED visit which ends 1 hour + 1 minute before start of IP enc. Will only fail IPP if ED visit ends < 1 hour or on start of IP start. IPP/Denom Pass."
      } ],
      "modifierExtension": [ {
        "url": "http://hl7.org/fhir/us/cqfmeasures/StructureDefinition/cqfm-isTestCase",
        "valueBoolean": true
      } ],
      "status": "complete",
      "type": "individual",
      "measure": "https://madie.cms.gov/Measure/CMS1218HHRFFHIR",
      "period": {
        "start": "2026-01-01",
        "end": "2026-12-31"
      },
      "group": [ {
        "population": [ {
          "code": {
            "coding": [ {
              "system": "http://terminology.hl7.org/CodeSystem/measure-population",
              "code": "initial-population",
              "display": "Initial Population"
            } ]
          },
          "count": 1
        }, {
          "code": {
            "coding": [ {
              "system": "http://terminology.hl7.org/CodeSystem/measure-population",
              "code": "denominator",
              "display": "Denominator"
            } ]
          },
          "count": 1
        }, {
          "code": {
            "coding": [ {
              "system": "http://terminology.hl7.org/CodeSystem/measure-population",
              "code": "denominator-exclusion",
              "display": "Denominator Exclusion"
            } ]
          },
          "count": 0
        }, {
          "code": {
            "coding": [ {
              "system": "http://terminology.hl7.org/CodeSystem/measure-population",
              "code": "numerator",
              "display": "Numerator"
            } ]
          },
          "count": 0
        } ]
      } ],
      "evaluatedResource": [ {
        "reference": "Encounter/72da995f-1093-4cd3-8f07-552b3aa14541"
      }, {
        "reference": "Encounter/7f86bf2d-2feb-4773-bb7d-1bf81fd2df79"
      }, {
        "reference": "Patient/c6e6306d-e742-488e-8bde-71c1a8e1b0c1"
      }, {
        "reference": "Procedure/aadf55e9-01b4-41b9-8530-c82abf17c1a8"
      } ]
    },
    "request": {
      "method": "PUT",
      "url": "MeasureReport/da4e4f30-8f44-457c-af0d-0926966dbf0d"
    }
  } ]
}