{"resourceType":"Bundle","id":"tests-1f7845f8-5fea-47d7-b531-394aee6bd8d5-bundle","type":"transaction","entry":[{"fullUrl":"https://madie.cms.gov/Patient/1f7845f8-5fea-47d7-b531-394aee6bd8d5","resource":{"resourceType":"Patient","id":"1f7845f8-5fea-47d7-b531-394aee6bd8d5","meta":{"profile":["http://hl7.org/fhir/us/qicore/StructureDefinition/qicore-patient"]},"extension":[{"url":"http://hl7.org/fhir/us/core/StructureDefinition/us-core-race","extension":[{"url":"ombCategory","valueCoding":{"system":"urn:oid:2.16.840.1.113883.6.238","code":"2028-9","display":"Asian"}},{"url":"text","valueString":"Asian"}]},{"url":"http://hl7.org/fhir/us/core/StructureDefinition/us-core-ethnicity","extension":[{"url":"ombCategory","valueCoding":{"system":"urn:oid:2.16.840.1.113883.6.238","code":"2135-2","display":"Hispanic or Latino"}},{"url":"text","valueString":"Hispanic or Latino"}]}],"identifier":[{"system":"http://hospital.smarthealthit.org","value":"999999995"}],"name":[{"family":"Bertha","given":["Betty"]}],"gender":"female","birthDate":"1960-01-02"},"request":{"method":"PUT","url":"Patient/1f7845f8-5fea-47d7-b531-394aee6bd8d5"}},{"fullUrl":"https://madie.cms.gov/Encounter/Encounter-2","resource":{"resourceType":"Encounter","id":"Encounter-2","meta":{"profile":["http://hl7.org/fhir/us/qicore/StructureDefinition/qicore-encounter"]},"status":"finished","class":{"system":"http://terminology.hl7.org/CodeSystem/v3-ActCode","code":"AMB","display":"ambulatory"},"type":[{"coding":[{"system":"http://snomed.info/sct","code":"78831002","display":"Comprehensive eye examination (procedure)"}]}],"subject":{"reference":"Patient/1f7845f8-5fea-47d7-b531-394aee6bd8d5"},"period":{"start":"2025-01-01T00:00:00.000Z","end":"2025-01-01T00:15:00.000Z"}},"request":{"method":"PUT","url":"Encounter/Encounter-2"}},{"fullUrl":"https://madie.cms.gov/MeasureReport/b2d423de-4b44-493b-b4e0-af9c733183fd","resource":{"resourceType":"MeasureReport","id":"b2d423de-4b44-493b-b4e0-af9c733183fd","meta":{"profile":["http://hl7.org/fhir/us/cqfmeasures/StructureDefinition/test-case-cqfm"]},"contained":[{"resourceType":"Parameters","id":"b780b222-d341-4455-b3f1-efea3cf77a93-parameters","parameter":[{"name":"subject","valueString":"1f7845f8-5fea-47d7-b531-394aee6bd8d5"}]}],"extension":[{"url":"http://hl7.org/fhir/us/cqfmeasures/StructureDefinition/cqfm-inputParameters","valueReference":{"reference":"#b780b222-d341-4455-b3f1-efea3cf77a93-parameters"}},{"url":"http://hl7.org/fhir/us/cqfmeasures/StructureDefinition/cqfm-testCaseDescription","valueMarkdown":"Patient age 64 (edge case)."}],"modifierExtension":[{"url":"http://hl7.org/fhir/us/cqfmeasures/StructureDefinition/cqfm-isTestCase","valueBoolean":true}],"status":"complete","type":"individual","measure":"https://madie.cms.gov/Measure/FallsScreeningForFutureFallRiskFHIR","period":{"start":"2025-01-01","end":"2025-12-31"},"group":[{"population":[{"code":{"coding":[{"system":"http://terminology.hl7.org/CodeSystem/measure-population","code":"initial-population","display":"Initial Population"}]},"count":0},{"code":{"coding":[{"system":"http://terminology.hl7.org/CodeSystem/measure-population","code":"denominator","display":"Denominator"}]},"count":0},{"code":{"coding":[{"system":"http://terminology.hl7.org/CodeSystem/measure-population","code":"denominator-exclusion","display":"Denominator Exclusion"}]},"count":0},{"code":{"coding":[{"system":"http://terminology.hl7.org/CodeSystem/measure-population","code":"numerator","display":"Numerator"}]},"count":0}]}],"evaluatedResource":[{"reference":"Patient/1f7845f8-5fea-47d7-b531-394aee6bd8d5"},{"reference":"Encounter/Encounter-2"}]},"request":{"method":"PUT","url":"MeasureReport/b2d423de-4b44-493b-b4e0-af9c733183fd"}}]}