{"resourceType":"Bundle","id":"tests-11703274-1218-440d-bb98-08502a794179-bundle","type":"transaction","entry":[{"fullUrl":"https://madie.cms.gov/Patient/11703274-1218-440d-bb98-08502a794179","resource":{"resourceType":"Patient","id":"11703274-1218-440d-bb98-08502a794179","meta":{"profile":["http://hl7.org/fhir/us/qicore/StructureDefinition/qicore-patient"]},"extension":[{"url":"http://hl7.org/fhir/us/core/StructureDefinition/us-core-race","extension":[{"url":"ombCategory","valueCoding":{"system":"urn:oid:2.16.840.1.113883.6.238","code":"1002-5","display":"American Indian or Alaska Native","userSelected":true}},{"url":"text","valueString":"American Indian or Alaska Native"}]},{"url":"http://hl7.org/fhir/us/core/StructureDefinition/us-core-ethnicity","extension":[{"url":"ombCategory","valueCoding":{"system":"urn:oid:2.16.840.1.113883.6.238","code":"2135-2","display":"Hispanic or Latino","userSelected":true}},{"url":"text","valueString":"Hispanic or Latino"}]}],"identifier":[{"type":{"coding":[{"system":"http://terminology.hl7.org/CodeSystem/v2-0203","code":"MR"}]},"system":"https://bonnie-fhir.healthit.gov/","value":"6617e30316793f5a4fae16fe"}],"name":[{"family":"NUMERStrat2Pass","given":["BedAssigment"]}],"gender":"male","birthDate":"2008-01-01"},"request":{"method":"PUT","url":"Patient/11703274-1218-440d-bb98-08502a794179"}},{"fullUrl":"https://madie.cms.gov/Encounter/8e7e6180-76a6-4e57-961f-df2c764a0507","resource":{"resourceType":"Encounter","id":"8e7e6180-76a6-4e57-961f-df2c764a0507","meta":{"profile":["http://hl7.org/fhir/us/qicore/StructureDefinition/qicore-encounter"]},"status":"finished","class":{"system":"http://terminology.hl7.org/CodeSystem/v3-ActCode","code":"AMB","display":"ambulatory"},"type":[{"coding":[{"system":"http://snomed.info/sct","version":"2023-09","code":"4525004","display":"Emergency department patient visit (procedure)","userSelected":true}]}],"subject":{"reference":"Patient/11703274-1218-440d-bb98-08502a794179"},"period":{"start":"2026-01-01T00:00:00.000+00:00","end":"2026-01-01T04:00:00.000+00:00"},"diagnosis":[{"condition":{"reference":"Condition/159db26a-f45d-482f-9a43-37505df80419"},"use":{"coding":[{"system":"http://terminology.hl7.org/CodeSystem/diagnosis-role","code":"billing"}]},"rank":1}],"location":[{"location":{"reference":"Location/b78289be-ac08-4c9f-bb40-9e38d7f2c088"},"period":{"start":"2026-01-01T00:00:00.000+00:00","end":"2026-01-01T05:01:00.000+00:00"}}]},"request":{"method":"PUT","url":"Encounter/8e7e6180-76a6-4e57-961f-df2c764a0507"}},{"fullUrl":"https://madie.cms.gov/Location/b78289be-ac08-4c9f-bb40-9e38d7f2c088","resource":{"resourceType":"Location","id":"b78289be-ac08-4c9f-bb40-9e38d7f2c088","meta":{"profile":["http://hl7.org/fhir/us/qicore/StructureDefinition/qicore-location"]},"identifier":[{"use":"usual","system":"http://exampleoflocation.com","value":"B1-S.F2"}],"name":"Emergency Department","type":[{"coding":[{"system":"https://www.cdc.gov/nhsn/cdaportal/terminology/codesystem/hsloc.html","version":"2022","code":"1108-0","display":"Emergency Department","userSelected":true}]}]},"request":{"method":"PUT","url":"Location/b78289be-ac08-4c9f-bb40-9e38d7f2c088"}},{"fullUrl":"https://madie.cms.gov/ServiceRequest/d8ce0134-d4aa-44d1-9536-31608a753520","resource":{"resourceType":"ServiceRequest","id":"d8ce0134-d4aa-44d1-9536-31608a753520","meta":{"profile":["http://hl7.org/fhir/us/qicore/StructureDefinition/qicore-servicerequest"]},"status":"completed","intent":"order","code":{"coding":[{"system":"http://snomed.info/sct","code":"19712007","display":"Patient transfer, to another health care facility (procedure)","userSelected":true}]},"subject":{"reference":"Patient/11703274-1218-440d-bb98-08502a794179"},"authoredOn":"2026-01-01T01:00:00.000+00:00"},"request":{"method":"PUT","url":"ServiceRequest/d8ce0134-d4aa-44d1-9536-31608a753520"}},{"fullUrl":"https://madie.cms.gov/Condition/159db26a-f45d-482f-9a43-37505df80419","resource":{"resourceType":"Condition","id":"159db26a-f45d-482f-9a43-37505df80419","meta":{"profile":["http://hl7.org/fhir/us/qicore/StructureDefinition/qicore-condition"]},"category":[{"coding":[{"system":"http://terminology.hl7.org/CodeSystem/condition-category","code":"encounter-diagnosis","display":"Encounter Diagnosis"}]}],"code":{"coding":[{"system":"http://snomed.info/sct","version":"2023-09","code":"10660471000119109","display":"Ulcer of left foot due to type 2 diabetes mellitus (disorder)","userSelected":true}]},"subject":{"reference":"Patient/11703274-1218-440d-bb98-08502a794179"},"recordedDate":"2026-01-01T08:00:00.000+00:00"},"request":{"method":"PUT","url":"Condition/159db26a-f45d-482f-9a43-37505df80419"}},{"fullUrl":"https://madie.cms.gov/Coverage/f73fd177-8f0d-484f-a9aa-3dcf29db621a","resource":{"resourceType":"Coverage","id":"f73fd177-8f0d-484f-a9aa-3dcf29db621a","meta":{"profile":["http://hl7.org/fhir/us/qicore/StructureDefinition/qicore-coverage"]},"status":"active","beneficiary":{"reference":"Patient/11703274-1218-440d-bb98-08502a794179"},"payor":[{"reference":"Organization/db141f66-a1cc-407b-9e95-adac27adee14"}]},"request":{"method":"PUT","url":"Coverage/f73fd177-8f0d-484f-a9aa-3dcf29db621a"}},{"fullUrl":"https://madie.cms.gov/Organization/ff54a871-887a-4c70-b517-0da47e010ed0","resource":{"resourceType":"Organization","id":"db141f66-a1cc-407b-9e95-adac27adee14","meta":{"profile":["http://hl7.org/fhir/us/qicore/StructureDefinition/qicore-organization"]},"identifier":[{"use":"temp","system":"urn:oid:2.16.840.1.113883.4.4","value":"21-3259825"}],"active":true,"type":[{"coding":[{"system":"http://terminology.hl7.org/CodeSystem/organization-type","code":"pay","display":"Payer"}]}],"name":"Blue Cross Blue Shield of Texas","telecom":[{"system":"phone","value":"(+1) 972-766-6900"}],"address":[{"use":"billing","type":"postal","line":["P.O. Box 660044"],"city":"Dallas","state":"TX","postalCode":"75266-0044","country":"USA"}]},"request":{"method":"PUT","url":"Organization/db141f66-a1cc-407b-9e95-adac27adee14"}},{"fullUrl":"https://madie.cms.gov/Practitioner/095fd27a-97fc-470d-8f6a-08ca29258f21","resource":{"resourceType":"Practitioner","id":"095fd27a-97fc-470d-8f6a-08ca29258f21","meta":{"profile":["http://hl7.org/fhir/us/qicore/StructureDefinition/qicore-practitioner"]},"identifier":[{"system":"http://hl7.org/fhir/sid/us-npi","value":"123456"}],"name":[{"family":"Evil","prefix":["Dr"]}]},"request":{"method":"PUT","url":"Practitioner/095fd27a-97fc-470d-8f6a-08ca29258f21"}},{"fullUrl":"https://madie.cms.gov/MeasureReport/01842999-c24e-4f45-b6fa-ca1dac8d2010","resource":{"resourceType":"MeasureReport","id":"01842999-c24e-4f45-b6fa-ca1dac8d2010","meta":{"profile":["http://hl7.org/fhir/us/cqfmeasures/StructureDefinition/test-case-cqfm"]},"contained":[{"resourceType":"Parameters","id":"92c4dbc7-98d4-4c84-b8f4-0a538584ee33-parameters","parameter":[{"name":"subject","valueString":"11703274-1218-440d-bb98-08502a794179"}]}],"extension":[{"url":"http://hl7.org/fhir/us/cqfmeasures/StructureDefinition/cqfm-inputParameters","valueReference":{"reference":"#92c4dbc7-98d4-4c84-b8f4-0a538584ee33-parameters"}},{"url":"http://hl7.org/fhir/us/cqfmeasures/StructureDefinition/cqfm-testCaseDescription","valueMarkdown":"Adult, age 18 ED first minute of MP,  bed assignment 241 mins before ED departure without psych "}],"modifierExtension":[{"url":"http://hl7.org/fhir/us/cqfmeasures/StructureDefinition/cqfm-isTestCase","valueBoolean":true}],"status":"complete","type":"individual","measure":"https://madie.cms.gov/Measure/CMS1264ECCQREHQRFHIR","period":{"start":"2026-01-01","end":"2026-12-31"},"group":[{"population":[{"code":{"coding":[{"system":"http://terminology.hl7.org/CodeSystem/measure-population","code":"initial-population","display":"Initial Population"}]},"count":1},{"code":{"coding":[{"system":"http://terminology.hl7.org/CodeSystem/measure-population","code":"denominator","display":"Denominator"}]},"count":1},{"code":{"coding":[{"system":"http://terminology.hl7.org/CodeSystem/measure-population","code":"numerator","display":"Numerator"}]},"count":1}]}]},"request":{"method":"PUT","url":"MeasureReport/01842999-c24e-4f45-b6fa-ca1dac8d2010"}}]}