{"resourceType":"Bundle","id":"tests-cee26b56-54cf-444e-8944-6edfbd6d2b93-bundle","type":"transaction","entry":[{"fullUrl":"https://madie.cms.gov/Patient/cee26b56-54cf-444e-8944-6edfbd6d2b93","resource":{"resourceType":"Patient","id":"cee26b56-54cf-444e-8944-6edfbd6d2b93","meta":{"profile":["http://hl7.org/fhir/us/qicore/StructureDefinition/qicore-patient"]},"extension":[{"url":"http://hl7.org/fhir/us/core/StructureDefinition/us-core-race","extension":[{"url":"ombCategory","valueCoding":{"system":"urn:oid:2.16.840.1.113883.6.238","code":"1002-5","display":"American Indian or Alaska Native","userSelected":true}},{"url":"text","valueString":"American Indian or Alaska Native"}]},{"url":"http://hl7.org/fhir/us/core/StructureDefinition/us-core-ethnicity","extension":[{"url":"ombCategory","valueCoding":{"system":"urn:oid:2.16.840.1.113883.6.238","code":"2135-2","display":"Hispanic or Latino","userSelected":true}},{"url":"text","valueString":"Hispanic or Latino"}]}],"identifier":[{"type":{"coding":[{"system":"http://terminology.hl7.org/CodeSystem/v2-0203","code":"MR"}]},"system":"https://bonnie-fhir.healthit.gov/","value":"661581c7db207d74c03b8a65"}],"name":[{"family":"NUMERStrat3Pass","given":["LWBS"]}],"gender":"male","birthDate":"2010-01-01"},"request":{"method":"PUT","url":"Patient/cee26b56-54cf-444e-8944-6edfbd6d2b93"}},{"fullUrl":"https://madie.cms.gov/Encounter/cd085225-3fab-4682-824d-ec87e05bf8b4","resource":{"resourceType":"Encounter","id":"cd085225-3fab-4682-824d-ec87e05bf8b4","meta":{"profile":["http://hl7.org/fhir/us/qicore/StructureDefinition/qicore-encounter"]},"status":"finished","class":{"system":"http://terminology.hl7.org/CodeSystem/v3-ActCode","code":"EMER","display":"emergency"},"type":[{"coding":[{"system":"http://snomed.info/sct","version":"2023-09","code":"225390008","display":"Triage (procedure)","userSelected":true}]}],"subject":{"reference":"Patient/cee26b56-54cf-444e-8944-6edfbd6d2b93"},"period":{"start":"2026-12-31T08:00:00.000+00:00","end":"2026-12-31T08:15:00.000+00:00"},"diagnosis":[{"condition":{"reference":"Condition/4ddadf26-852f-42c9-9749-53aa79497db5"},"use":{"coding":[{"system":"http://terminology.hl7.org/CodeSystem/diagnosis-role","code":"billing"}]},"rank":1}],"hospitalization":{"dischargeDisposition":{"coding":[{"system":"http://snomed.info/sct","code":"21541000119102","display":"Patient left without being seen (finding)","userSelected":true}]}}},"request":{"method":"PUT","url":"Encounter/cd085225-3fab-4682-824d-ec87e05bf8b4"}},{"fullUrl":"https://madie.cms.gov/Condition/4ddadf26-852f-42c9-9749-53aa79497db5","resource":{"resourceType":"Condition","id":"4ddadf26-852f-42c9-9749-53aa79497db5","meta":{"profile":["http://hl7.org/fhir/us/qicore/StructureDefinition/qicore-condition"]},"category":[{"coding":[{"system":"http://terminology.hl7.org/CodeSystem/condition-category","code":"encounter-diagnosis","display":"Encounter Diagnosis"}]}],"code":{"coding":[{"system":"http://snomed.info/sct","version":"2023-09","code":"10349009","display":"Multi-infarct dementia with delirium (disorder)","userSelected":true}]},"subject":{"reference":"Patient/cee26b56-54cf-444e-8944-6edfbd6d2b93"},"recordedDate":"2025-04-09T08:00:00.000+00:00"},"request":{"method":"PUT","url":"Condition/4ddadf26-852f-42c9-9749-53aa79497db5"}},{"fullUrl":"https://madie.cms.gov/Coverage/b66def07-263f-4d63-a285-770fd5a99f07","resource":{"resourceType":"Coverage","id":"b66def07-263f-4d63-a285-770fd5a99f07","meta":{"profile":["http://hl7.org/fhir/us/qicore/StructureDefinition/qicore-coverage"]},"status":"active","beneficiary":{"reference":"Patient/cee26b56-54cf-444e-8944-6edfbd6d2b93"},"payor":[{"reference":"Organization/5ad6ea38-07e9-4482-9e1b-c09eee595be9"}]},"request":{"method":"PUT","url":"Coverage/b66def07-263f-4d63-a285-770fd5a99f07"}},{"fullUrl":"https://madie.cms.gov/Organization/03695d15-6c40-40e9-9289-8c85914e521b","resource":{"resourceType":"Organization","id":"5ad6ea38-07e9-4482-9e1b-c09eee595be9","meta":{"profile":["http://hl7.org/fhir/us/qicore/StructureDefinition/qicore-organization"]},"identifier":[{"use":"temp","system":"urn:oid:2.16.840.1.113883.4.4","value":"21-3259825"}],"active":true,"type":[{"coding":[{"system":"http://terminology.hl7.org/CodeSystem/organization-type","code":"pay","display":"Payer"}]}],"name":"Blue Cross Blue Shield of Texas","telecom":[{"system":"phone","value":"(+1) 972-766-6900"}],"address":[{"use":"billing","type":"postal","line":["P.O. Box 660044"],"city":"Dallas","state":"TX","postalCode":"75266-0044","country":"USA"}]},"request":{"method":"PUT","url":"Organization/5ad6ea38-07e9-4482-9e1b-c09eee595be9"}},{"fullUrl":"https://madie.cms.gov/Practitioner/8a0d3f43-0cd4-46f9-9ac9-d39c3ec31af9","resource":{"resourceType":"Practitioner","id":"8a0d3f43-0cd4-46f9-9ac9-d39c3ec31af9","meta":{"profile":["http://hl7.org/fhir/us/qicore/StructureDefinition/qicore-practitioner"]},"identifier":[{"system":"http://hl7.org/fhir/sid/us-npi","value":"123456"}],"name":[{"family":"Evil","prefix":["Dr"]}]},"request":{"method":"PUT","url":"Practitioner/8a0d3f43-0cd4-46f9-9ac9-d39c3ec31af9"}},{"fullUrl":"https://madie.cms.gov/MeasureReport/817751d1-cd83-4993-b4fa-6b5786751276","resource":{"resourceType":"MeasureReport","id":"817751d1-cd83-4993-b4fa-6b5786751276","meta":{"profile":["http://hl7.org/fhir/us/cqfmeasures/StructureDefinition/test-case-cqfm"]},"contained":[{"resourceType":"Parameters","id":"db139fa8-9cfd-445a-9b51-686c32821ef5-parameters","parameter":[{"name":"subject","valueString":"cee26b56-54cf-444e-8944-6edfbd6d2b93"}]}],"extension":[{"url":"http://hl7.org/fhir/us/cqfmeasures/StructureDefinition/cqfm-inputParameters","valueReference":{"reference":"#db139fa8-9cfd-445a-9b51-686c32821ef5-parameters"}},{"url":"http://hl7.org/fhir/us/cqfmeasures/StructureDefinition/cqfm-testCaseDescription","valueMarkdown":"Child, age 17 ED enc last day of MP,  LWBS discharge disposition, mental illness"}],"modifierExtension":[{"url":"http://hl7.org/fhir/us/cqfmeasures/StructureDefinition/cqfm-isTestCase","valueBoolean":true}],"status":"complete","type":"individual","measure":"https://madie.cms.gov/Measure/CMS1264ECCQREHQRFHIR","period":{"start":"2026-01-01","end":"2026-12-31"},"group":[{"population":[{"code":{"coding":[{"system":"http://terminology.hl7.org/CodeSystem/measure-population","code":"initial-population","display":"Initial Population"}]},"count":1},{"code":{"coding":[{"system":"http://terminology.hl7.org/CodeSystem/measure-population","code":"denominator","display":"Denominator"}]},"count":1},{"code":{"coding":[{"system":"http://terminology.hl7.org/CodeSystem/measure-population","code":"numerator","display":"Numerator"}]},"count":1}]}]},"request":{"method":"PUT","url":"MeasureReport/817751d1-cd83-4993-b4fa-6b5786751276"}}]}