{"resourceType":"Bundle","id":"tests-78cbc6ac-f30d-404b-b539-6b903c7cfeba-bundle","type":"transaction","entry":[{"fullUrl":"https://madie.cms.gov/Patient/78cbc6ac-f30d-404b-b539-6b903c7cfeba","resource":{"resourceType":"Patient","id":"78cbc6ac-f30d-404b-b539-6b903c7cfeba","meta":{"profile":["http://hl7.org/fhir/us/qicore/StructureDefinition/qicore-patient"]},"extension":[{"url":"http://hl7.org/fhir/us/core/StructureDefinition/us-core-race","extension":[{"url":"ombCategory","valueCoding":{"system":"urn:oid:2.16.840.1.113883.6.238","code":"2076-8","display":"Native Hawaiian or Other Pacific Islander","userSelected":true}},{"url":"text","valueString":"Native Hawaiian or Other Pacific Islander"}]},{"url":"http://hl7.org/fhir/us/core/StructureDefinition/us-core-ethnicity","extension":[{"url":"ombCategory","valueCoding":{"system":"urn:oid:2.16.840.1.113883.6.238","code":"2186-5","display":"Not Hispanic or Latino","userSelected":true}},{"url":"text","valueString":"Not Hispanic or Latino"}]}],"identifier":[{"type":{"coding":[{"system":"http://terminology.hl7.org/CodeSystem/v2-0203","code":"MR"}]},"system":"https://bonnie-fhir.healthit.gov/","value":"661579e3db207d74c03b8a54"}],"name":[{"family":"NUMERStrat4Pass","given":["TimeToTx61Min"]}],"gender":"female","birthDate":"2007-12-31"},"request":{"method":"PUT","url":"Patient/78cbc6ac-f30d-404b-b539-6b903c7cfeba"}},{"fullUrl":"https://madie.cms.gov/Encounter/4b91ae10-ca22-48db-8b8e-a9e0dca8bb30","resource":{"resourceType":"Encounter","id":"4b91ae10-ca22-48db-8b8e-a9e0dca8bb30","meta":{"profile":["http://hl7.org/fhir/us/qicore/StructureDefinition/qicore-encounter"]},"status":"finished","class":{"system":"http://terminology.hl7.org/CodeSystem/v3-ActCode","code":"EMER","display":"emergency"},"type":[{"coding":[{"system":"http://snomed.info/sct","version":"2023-09","code":"4525004","display":"Emergency department patient visit (procedure)","userSelected":true}]}],"subject":{"reference":"Patient/78cbc6ac-f30d-404b-b539-6b903c7cfeba"},"period":{"start":"2026-01-01T08:00:00.000+00:00","end":"2026-01-01T12:15:00.000+00:00"},"diagnosis":[{"condition":{"reference":"Condition/b0199001-14a1-4773-938e-e60d0e72e054"},"use":{"coding":[{"system":"http://terminology.hl7.org/CodeSystem/diagnosis-role","code":"billing"}]},"rank":1}],"location":[{"location":{"reference":"Location/b9d687d7-8120-4167-b426-8a18d0892281"},"period":{"start":"2026-01-01T07:45:00.000+00:00","end":"2026-01-01T12:15:00.000+00:00"}},{"location":{"reference":"Location/67904556-0f25-425b-a88b-0ac37565f912"},"period":{"start":"2026-01-01T09:01:00.000+00:00","end":"2026-01-01T12:15:00.000+00:00"}}]},"request":{"method":"PUT","url":"Encounter/4b91ae10-ca22-48db-8b8e-a9e0dca8bb30"}},{"fullUrl":"https://madie.cms.gov/Location/b9d687d7-8120-4167-b426-8a18d0892281","resource":{"resourceType":"Location","id":"b9d687d7-8120-4167-b426-8a18d0892281","meta":{"profile":["http://hl7.org/fhir/us/qicore/StructureDefinition/qicore-location"]},"identifier":[{"use":"usual","system":"http://exampleoflocation.com","value":"B1-S.F1"}],"name":"Emergency Department","type":[{"coding":[{"system":"https://www.cdc.gov/nhsn/cdaportal/terminology/codesystem/hsloc.html","version":"2022","code":"1108-0","display":"Emergency Department","userSelected":true}]}]},"request":{"method":"PUT","url":"Location/b9d687d7-8120-4167-b426-8a18d0892281"}},{"fullUrl":"https://madie.cms.gov/Location/67904556-0f25-425b-a88b-0ac37565f912","resource":{"resourceType":"Location","id":"67904556-0f25-425b-a88b-0ac37565f912","meta":{"profile":["http://hl7.org/fhir/us/qicore/StructureDefinition/qicore-location"]},"identifier":[{"use":"usual","system":"http://exampleoflocation.com","value":"B1-S.F2"}],"name":"Emergency Department","type":[{"coding":[{"system":"https://www.cdc.gov/nhsn/cdaportal/terminology/codesystem/hsloc.html","version":"2022","code":"1209-6","display":"Treatment Room","userSelected":true}]}]},"request":{"method":"PUT","url":"Location/67904556-0f25-425b-a88b-0ac37565f912"}},{"fullUrl":"https://madie.cms.gov/Condition/b0199001-14a1-4773-938e-e60d0e72e054","resource":{"resourceType":"Condition","id":"b0199001-14a1-4773-938e-e60d0e72e054","meta":{"profile":["http://hl7.org/fhir/us/qicore/StructureDefinition/qicore-condition"]},"category":[{"coding":[{"system":"http://terminology.hl7.org/CodeSystem/condition-category","code":"encounter-diagnosis","display":"Encounter Diagnosis"}]}],"code":{"coding":[{"system":"http://snomed.info/sct","version":"2023-09","code":"10349009","display":"Multi-infarct dementia with delirium (disorder)","userSelected":true}]},"subject":{"reference":"Patient/78cbc6ac-f30d-404b-b539-6b903c7cfeba"},"recordedDate":"2026-04-09T08:00:00.000+00:00"},"request":{"method":"PUT","url":"Condition/b0199001-14a1-4773-938e-e60d0e72e054"}},{"fullUrl":"https://madie.cms.gov/Location/528b868e-a8e7-49c6-901c-4ef8fb4b6375","resource":{"resourceType":"Location","id":"528b868e-a8e7-49c6-901c-4ef8fb4b6375","meta":{"profile":["http://hl7.org/fhir/us/qicore/StructureDefinition/qicore-location"]},"identifier":[{"use":"usual","system":"http://exampleoflocation.com","value":"B1-S.F2"}],"name":"Emergency Department","type":[{"coding":[{"system":"https://www.cdc.gov/nhsn/cdaportal/terminology/codesystem/hsloc.html","version":"2022","code":"1108-0","display":"Emergency Department","userSelected":true}]}]},"request":{"method":"PUT","url":"Location/528b868e-a8e7-49c6-901c-4ef8fb4b6375"}},{"fullUrl":"https://madie.cms.gov/Location/f2f095a7-6def-47ee-ab2d-28757c22d8f3","resource":{"resourceType":"Location","id":"f2f095a7-6def-47ee-ab2d-28757c22d8f3","meta":{"profile":["http://hl7.org/fhir/us/qicore/StructureDefinition/qicore-location"]},"identifier":[{"use":"usual","system":"http://exampleoflocation.com","value":"B1-S.F2"}],"name":"Emergency Department","type":[{"coding":[{"system":"https://www.cdc.gov/nhsn/cdaportal/terminology/codesystem/hsloc.html","version":"2022","code":"1209-6","display":"Treatment Room"}]}]},"request":{"method":"PUT","url":"Location/f2f095a7-6def-47ee-ab2d-28757c22d8f3"}},{"fullUrl":"https://madie.cms.gov/Coverage/f6e97329-766a-42df-9b6a-dfd6a8c76b35","resource":{"resourceType":"Coverage","id":"f6e97329-766a-42df-9b6a-dfd6a8c76b35","meta":{"profile":["http://hl7.org/fhir/us/qicore/StructureDefinition/qicore-coverage"]},"status":"active","beneficiary":{"reference":"Patient/78cbc6ac-f30d-404b-b539-6b903c7cfeba"},"payor":[{"reference":"Organization/db141f66-a1cc-407b-9e95-adac27adee14"}]},"request":{"method":"PUT","url":"Coverage/f6e97329-766a-42df-9b6a-dfd6a8c76b35"}},{"fullUrl":"https://madie.cms.gov/Organization/8bebd76f-2f40-4b76-a0d5-fd06fa3cda6a","resource":{"resourceType":"Organization","id":"db141f66-a1cc-407b-9e95-adac27adee14","meta":{"profile":["http://hl7.org/fhir/us/qicore/StructureDefinition/qicore-organization"]},"identifier":[{"use":"temp","system":"urn:oid:2.16.840.1.113883.4.4","value":"21-3259825"}],"active":true,"type":[{"coding":[{"system":"http://terminology.hl7.org/CodeSystem/organization-type","code":"pay","display":"Payer"}]}],"name":"Blue Cross Blue Shield of Texas","telecom":[{"system":"phone","value":"(+1) 972-766-6900"}],"address":[{"use":"billing","type":"postal","line":["P.O. Box 660044"],"city":"Dallas","state":"TX","postalCode":"75266-0044","country":"USA"}]},"request":{"method":"PUT","url":"Organization/db141f66-a1cc-407b-9e95-adac27adee14"}},{"fullUrl":"https://madie.cms.gov/Practitioner/3180502b-9a9c-4582-b82d-89f0c00fec8a","resource":{"resourceType":"Practitioner","id":"3180502b-9a9c-4582-b82d-89f0c00fec8a","meta":{"profile":["http://hl7.org/fhir/us/qicore/StructureDefinition/qicore-practitioner"]},"identifier":[{"system":"http://hl7.org/fhir/sid/us-npi","value":"123456"}],"name":[{"family":"Evil","prefix":["Dr"]}]},"request":{"method":"PUT","url":"Practitioner/3180502b-9a9c-4582-b82d-89f0c00fec8a"}},{"fullUrl":"https://madie.cms.gov/MeasureReport/5ed2f5f7-5a3d-43e7-8abe-4e6f8c0d5219","resource":{"resourceType":"MeasureReport","id":"5ed2f5f7-5a3d-43e7-8abe-4e6f8c0d5219","meta":{"profile":["http://hl7.org/fhir/us/cqfmeasures/StructureDefinition/test-case-cqfm"]},"contained":[{"resourceType":"Parameters","id":"b1f00bb4-6abf-4838-bdf7-400c3264238c-parameters","parameter":[{"name":"subject","valueString":"78cbc6ac-f30d-404b-b539-6b903c7cfeba"}]}],"extension":[{"url":"http://hl7.org/fhir/us/cqfmeasures/StructureDefinition/cqfm-inputParameters","valueReference":{"reference":"#b1f00bb4-6abf-4838-bdf7-400c3264238c-parameters"}},{"url":"http://hl7.org/fhir/us/cqfmeasures/StructureDefinition/cqfm-testCaseDescription","valueMarkdown":"Adult, age 18 Encounter  first day of MP, time to treatment 61 minutes has mental illness"}],"modifierExtension":[{"url":"http://hl7.org/fhir/us/cqfmeasures/StructureDefinition/cqfm-isTestCase","valueBoolean":true}],"status":"complete","type":"individual","measure":"https://madie.cms.gov/Measure/CMS1264ECCQREHQRFHIR","period":{"start":"2026-01-01","end":"2026-12-31"},"group":[{"population":[{"code":{"coding":[{"system":"http://terminology.hl7.org/CodeSystem/measure-population","code":"initial-population","display":"Initial Population"}]},"count":1},{"code":{"coding":[{"system":"http://terminology.hl7.org/CodeSystem/measure-population","code":"denominator","display":"Denominator"}]},"count":1},{"code":{"coding":[{"system":"http://terminology.hl7.org/CodeSystem/measure-population","code":"numerator","display":"Numerator"}]},"count":1}]}]},"request":{"method":"PUT","url":"MeasureReport/5ed2f5f7-5a3d-43e7-8abe-4e6f8c0d5219"}}]}