{"resourceType":"Bundle","id":"tests-6252a858-2362-4c63-8d7d-6db0b7ac9299-bundle","type":"transaction","entry":[{"fullUrl":"https://madie.cms.gov/Patient/6252a858-2362-4c63-8d7d-6db0b7ac9299","resource":{"resourceType":"Patient","id":"6252a858-2362-4c63-8d7d-6db0b7ac9299","meta":{"profile":["http://hl7.org/fhir/us/qicore/StructureDefinition/qicore-patient"]},"extension":[{"url":"http://hl7.org/fhir/us/core/StructureDefinition/us-core-race","extension":[{"url":"ombCategory","valueCoding":{"system":"urn:oid:2.16.840.1.113883.6.238","code":"1002-5","display":"American Indian or Alaska Native","userSelected":true}},{"url":"text","valueString":"American Indian or Alaska Native"}]},{"url":"http://hl7.org/fhir/us/core/StructureDefinition/us-core-ethnicity","extension":[{"url":"ombCategory","valueCoding":{"system":"urn:oid:2.16.840.1.113883.6.238","code":"2135-2","display":"Hispanic or Latino","userSelected":true}},{"url":"text","valueString":"Hispanic or Latino"}]}],"identifier":[{"type":{"coding":[{"system":"http://terminology.hl7.org/CodeSystem/v2-0203","code":"MR"}]},"system":"https://bonnie-fhir.healthit.gov/","value":"661476b015ed5841a5547ebf"}],"name":[{"family":"NUMEXStrat2Pass","given":["EDOBSOrderBoarded"]}],"gender":"male","birthDate":"2008-01-01"},"request":{"method":"PUT","url":"Patient/6252a858-2362-4c63-8d7d-6db0b7ac9299"}},{"fullUrl":"https://madie.cms.gov/Encounter/f2d63a1b-911d-4070-8fc1-3edb93dfb161","resource":{"resourceType":"Encounter","id":"f2d63a1b-911d-4070-8fc1-3edb93dfb161","meta":{"profile":["http://hl7.org/fhir/us/qicore/StructureDefinition/qicore-encounter"]},"status":"finished","class":{"system":"http://terminology.hl7.org/CodeSystem/v3-ActCode","code":"EMER","display":"emergency department"},"type":[{"coding":[{"system":"http://snomed.info/sct","version":"2023-09","code":"4525004","display":"Emergency department patient visit (procedure)","userSelected":true}]}],"subject":{"reference":"Patient/6252a858-2362-4c63-8d7d-6db0b7ac9299"},"period":{"start":"2026-01-01T00:00:00.000+00:00","end":"2026-01-01T06:00:00.000+00:00"},"diagnosis":[{"condition":{"reference":"Condition/non-behavioral-health-diagnosis-without-substance-use-disorders-8a64"},"use":{"coding":[{"system":"http://terminology.hl7.org/CodeSystem/diagnosis-role","code":"billing"}]},"rank":1}],"location":[{"location":{"reference":"Location/b61dd555-980b-4b7d-afb6-dd70da840b34"},"period":{"start":"2026-01-01T00:00:00.000+00:00","end":"2026-01-01T10:01:00.000+00:00"}}]},"request":{"method":"PUT","url":"Encounter/f2d63a1b-911d-4070-8fc1-3edb93dfb161"}},{"fullUrl":"https://madie.cms.gov/ServiceRequest/7ad732a0-0129-4624-bcbc-d046e05e97ab","resource":{"resourceType":"ServiceRequest","id":"7ad732a0-0129-4624-bcbc-d046e05e97ab","meta":{"profile":["http://hl7.org/fhir/us/qicore/StructureDefinition/qicore-servicerequest"]},"status":"completed","intent":"order","code":{"coding":[{"system":"http://snomed.info/sct","code":"19712007","display":"Patient transfer, to another health care facility (procedure)","userSelected":true}]},"subject":{"reference":"Patient/6252a858-2362-4c63-8d7d-6db0b7ac9299"},"authoredOn":"2026-01-01T02:00:00.000+00:00"},"request":{"method":"PUT","url":"ServiceRequest/7ad732a0-0129-4624-bcbc-d046e05e97ab"}},{"fullUrl":"https://madie.cms.gov/Location/b61dd555-980b-4b7d-afb6-dd70da840b34","resource":{"resourceType":"Location","id":"b61dd555-980b-4b7d-afb6-dd70da840b34","meta":{"profile":["http://hl7.org/fhir/us/qicore/StructureDefinition/qicore-location"]},"identifier":[{"use":"usual","system":"http://exampleoflocation.com","value":"B1-S.F2"}],"name":"Emergency Department","type":[{"coding":[{"system":"https://www.cdc.gov/nhsn/cdaportal/terminology/codesystem/hsloc.html","version":"2022","code":"1108-0","display":"Emergency Department","userSelected":true}]}]},"request":{"method":"PUT","url":"Location/b61dd555-980b-4b7d-afb6-dd70da840b34"}},{"fullUrl":"https://madie.cms.gov/Coverage/7bedce86-ba54-4373-b02e-0da220eae66e","resource":{"resourceType":"Coverage","id":"7bedce86-ba54-4373-b02e-0da220eae66e","meta":{"profile":["http://hl7.org/fhir/us/qicore/StructureDefinition/qicore-coverage"]},"status":"active","beneficiary":{"reference":"Patient/6252a858-2362-4c63-8d7d-6db0b7ac9299"},"payor":[{"reference":"Organization/db141f66-a1cc-407b-9e95-adac27adee14"}]},"request":{"method":"PUT","url":"Coverage/7bedce86-ba54-4373-b02e-0da220eae66e"}},{"fullUrl":"https://madie.cms.gov/Condition/c90d81ae-9e8a-4368-9bff-10b66e10334f","resource":{"resourceType":"Condition","id":"c90d81ae-9e8a-4368-9bff-10b66e10334f","meta":{"profile":["http://hl7.org/fhir/us/qicore/StructureDefinition/qicore-condition"]},"category":[{"coding":[{"system":"http://terminology.hl7.org/CodeSystem/condition-category","code":"encounter-diagnosis","display":"Encounter Diagnosis"}]}],"code":{"coding":[{"system":"http://snomed.info/sct","version":"2023-09","code":"10674711000119105","display":"Acute severe exacerbation of asthma co-occurrent with allergic rhinitis (disorder)","userSelected":true}]},"subject":{"reference":"Patient/6252a858-2362-4c63-8d7d-6db0b7ac9299"},"recordedDate":"2026-01-01T08:00:00.000+00:00"},"request":{"method":"PUT","url":"Condition/c90d81ae-9e8a-4368-9bff-10b66e10334f"}},{"fullUrl":"https://madie.cms.gov/ServiceRequest/956c1978-8ad1-48bf-a013-4b6a2c088166","resource":{"resourceType":"ServiceRequest","id":"956c1978-8ad1-48bf-a013-4b6a2c088166","meta":{"profile":["http://hl7.org/fhir/us/qicore/StructureDefinition/qicore-servicerequest"]},"status":"active","intent":"order","code":{"coding":[{"system":"http://www.ama-assn.org/go/cpt","version":"2024","code":"99221","display":"Initial hospital inpatient or observation care, per day, for the evaluation and management of a patient, which requires a medically appropriate history and/or examination and straightforward or low level medical decision making. When using total time on the date of the encounter for code selection, 40 minutes must be met or exceeded.","userSelected":true}]},"subject":{"reference":"Patient/6252a858-2362-4c63-8d7d-6db0b7ac9299"},"authoredOn":"2026-01-01T02:00:00.000+00:00"},"request":{"method":"PUT","url":"ServiceRequest/956c1978-8ad1-48bf-a013-4b6a2c088166"}},{"fullUrl":"https://madie.cms.gov/Organization/9789914e-3600-43fb-9a45-1bb975e4aaf9","resource":{"resourceType":"Organization","id":"db141f66-a1cc-407b-9e95-adac27adee14","meta":{"profile":["http://hl7.org/fhir/us/qicore/StructureDefinition/qicore-organization"]},"identifier":[{"use":"temp","system":"urn:oid:2.16.840.1.113883.4.4","value":"21-3259825"}],"active":true,"type":[{"coding":[{"system":"http://terminology.hl7.org/CodeSystem/organization-type","code":"pay","display":"Payer"}]}],"name":"Blue Cross Blue Shield of Texas","telecom":[{"system":"phone","value":"(+1) 972-766-6900"}],"address":[{"use":"billing","type":"postal","line":["P.O. Box 660044"],"city":"Dallas","state":"TX","postalCode":"75266-0044","country":"USA"}]},"request":{"method":"PUT","url":"Organization/db141f66-a1cc-407b-9e95-adac27adee14"}},{"fullUrl":"https://madie.cms.gov/Practitioner/4d3ec3d3-f8ba-4901-8c84-2d481d13920a","resource":{"resourceType":"Practitioner","id":"4d3ec3d3-f8ba-4901-8c84-2d481d13920a","meta":{"profile":["http://hl7.org/fhir/us/qicore/StructureDefinition/qicore-practitioner"]},"identifier":[{"system":"http://hl7.org/fhir/sid/us-npi","value":"123456"}],"name":[{"family":"Evil","prefix":["Dr"]}]},"request":{"method":"PUT","url":"Practitioner/4d3ec3d3-f8ba-4901-8c84-2d481d13920a"}},{"fullUrl":"https://madie.cms.gov/MeasureReport/8fab9111-61d5-475b-ac49-4a01128ca05a","resource":{"resourceType":"MeasureReport","id":"8fab9111-61d5-475b-ac49-4a01128ca05a","meta":{"profile":["http://hl7.org/fhir/us/cqfmeasures/StructureDefinition/test-case-cqfm"]},"contained":[{"resourceType":"Parameters","id":"6f00dcd6-624c-495a-8766-f48dde053e4c-parameters","parameter":[{"name":"subject","valueString":"6252a858-2362-4c63-8d7d-6db0b7ac9299"}]}],"extension":[{"url":"http://hl7.org/fhir/us/cqfmeasures/StructureDefinition/cqfm-inputParameters","valueReference":{"reference":"#6f00dcd6-624c-495a-8766-f48dde053e4c-parameters"}},{"url":"http://hl7.org/fhir/us/cqfmeasures/StructureDefinition/cqfm-testCaseDescription","valueMarkdown":"Adult, ED observation order during ED enc where patient was boarded 6 hrs 1 min; Enc 8 hrs, enc departure 10 hrs 1 min. dx asthma "}],"modifierExtension":[{"url":"http://hl7.org/fhir/us/cqfmeasures/StructureDefinition/cqfm-isTestCase","valueBoolean":true}],"status":"complete","type":"individual","measure":"https://madie.cms.gov/Measure/CMS1264ECCQREHQRFHIR","period":{"start":"2026-01-01","end":"2026-12-31"},"group":[{"population":[{"code":{"coding":[{"system":"http://terminology.hl7.org/CodeSystem/measure-population","code":"initial-population","display":"Initial Population"}]},"count":1},{"code":{"coding":[{"system":"http://terminology.hl7.org/CodeSystem/measure-population","code":"denominator","display":"Denominator"}]},"count":1},{"code":{"coding":[{"system":"http://terminology.hl7.org/CodeSystem/measure-population","code":"numerator","display":"Numerator"}]},"count":0}]}]},"request":{"method":"PUT","url":"MeasureReport/8fab9111-61d5-475b-ac49-4a01128ca05a"}}]}