{"resourceType":"Bundle","id":"tests-7fbb7e37-228b-4b3b-8974-871a3e798720-bundle","type":"transaction","entry":[{"fullUrl":"https://madie.cms.gov/Patient/7fbb7e37-228b-4b3b-8974-871a3e798720","resource":{"resourceType":"Patient","id":"7fbb7e37-228b-4b3b-8974-871a3e798720","meta":{"profile":["http://hl7.org/fhir/us/qicore/StructureDefinition/qicore-patient"]},"extension":[{"url":"http://hl7.org/fhir/us/core/StructureDefinition/us-core-race","extension":[{"url":"ombCategory","valueCoding":{"system":"urn:oid:2.16.840.1.113883.6.238","code":"1002-5","display":"American Indian or Alaska Native","userSelected":true}},{"url":"text","valueString":"American Indian or Alaska Native"}]},{"url":"http://hl7.org/fhir/us/core/StructureDefinition/us-core-ethnicity","extension":[{"url":"ombCategory","valueCoding":{"system":"urn:oid:2.16.840.1.113883.6.238","code":"2135-2","display":"Hispanic or Latino","userSelected":true}},{"url":"text","valueString":"Hispanic or Latino"}]}],"identifier":[{"type":{"coding":[{"system":"http://terminology.hl7.org/CodeSystem/v2-0203","code":"MR"}]},"system":"https://bonnie-fhir.healthit.gov/","value":"6617e30316793f5a4fae16fe"}],"name":[{"family":"NUMERStrat3Pass","given":["DecisionToTransferOrder241MinMultDiagnoses"]}],"gender":"male","birthDate":"2009-01-01"},"request":{"method":"PUT","url":"Patient/7fbb7e37-228b-4b3b-8974-871a3e798720"}},{"fullUrl":"https://madie.cms.gov/Encounter/e6f25d68-3dba-404c-b919-2186a2fdcb8b","resource":{"resourceType":"Encounter","id":"e6f25d68-3dba-404c-b919-2186a2fdcb8b","meta":{"profile":["http://hl7.org/fhir/us/qicore/StructureDefinition/qicore-encounter"]},"status":"finished","class":{"system":"http://terminology.hl7.org/CodeSystem/v3-ActCode","code":"EMER","display":"emergency"},"type":[{"coding":[{"system":"http://snomed.info/sct","version":"2023-09","code":"4525004","display":"Emergency department patient visit (procedure)","userSelected":true}]}],"subject":{"reference":"Patient/7fbb7e37-228b-4b3b-8974-871a3e798720"},"period":{"start":"2026-01-01T00:00:00.000+00:00","end":"2026-01-01T06:00:00.000+00:00"},"diagnosis":[{"condition":{"reference":"Condition/038afff6-4bc3-44cf-bcb7-fe85141177f1"},"use":{"coding":[{"system":"http://terminology.hl7.org/CodeSystem/diagnosis-role","code":"billing"}]},"rank":1}],"location":[{"location":{"reference":"Location/80b35926-d79e-4bf6-a06c-06225d6531ec"},"period":{"start":"2026-01-01T00:00:00.000+00:00","end":"2026-01-01T06:01:00.000+00:00"}}]},"request":{"method":"PUT","url":"Encounter/e6f25d68-3dba-404c-b919-2186a2fdcb8b"}},{"fullUrl":"https://madie.cms.gov/Location/80b35926-d79e-4bf6-a06c-06225d6531ec","resource":{"resourceType":"Location","id":"80b35926-d79e-4bf6-a06c-06225d6531ec","meta":{"profile":["http://hl7.org/fhir/us/qicore/StructureDefinition/qicore-location"]},"identifier":[{"use":"usual","system":"http://exampleoflocation.com","value":"B1-S.F2"}],"name":"Local ED","type":[{"coding":[{"system":"https://www.cdc.gov/nhsn/cdaportal/terminology/codesystem/hsloc.html","version":"2022","code":"1108-0","display":"Emergency Department","userSelected":true}]}]},"request":{"method":"PUT","url":"Location/80b35926-d79e-4bf6-a06c-06225d6531ec"}},{"fullUrl":"https://madie.cms.gov/ServiceRequest/0c23e894-87f7-463d-b05e-0345aaae9fd3","resource":{"resourceType":"ServiceRequest","id":"0c23e894-87f7-463d-b05e-0345aaae9fd3","meta":{"profile":["http://hl7.org/fhir/us/qicore/StructureDefinition/qicore-servicerequest"]},"status":"completed","intent":"order","code":{"coding":[{"system":"http://snomed.info/sct","code":"19712007","display":"Patient transfer, to another health care facility (procedure)","userSelected":true}]},"subject":{"reference":"Patient/7fbb7e37-228b-4b3b-8974-871a3e798720"},"authoredOn":"2026-01-01T02:00:00.000+00:00"},"request":{"method":"PUT","url":"ServiceRequest/0c23e894-87f7-463d-b05e-0345aaae9fd3"}},{"fullUrl":"https://madie.cms.gov/Condition/038afff6-4bc3-44cf-bcb7-fe85141177f1","resource":{"resourceType":"Condition","id":"038afff6-4bc3-44cf-bcb7-fe85141177f1","meta":{"profile":["http://hl7.org/fhir/us/qicore/StructureDefinition/qicore-condition"]},"category":[{"coding":[{"system":"http://terminology.hl7.org/CodeSystem/condition-category","code":"encounter-diagnosis","display":"Encounter Diagnosis"}]}],"code":{"coding":[{"system":"http://snomed.info/sct","version":"2023-09","code":"10349009","display":"Multi-infarct dementia with delirium (disorder)","userSelected":true}]},"subject":{"reference":"Patient/7fbb7e37-228b-4b3b-8974-871a3e798720"},"recordedDate":"2025-04-18T08:00:00.000+00:00"},"request":{"method":"PUT","url":"Condition/038afff6-4bc3-44cf-bcb7-fe85141177f1"}},{"fullUrl":"https://madie.cms.gov/Coverage/1761c87f-6aac-45f6-8a19-da717dc54849","resource":{"resourceType":"Coverage","id":"1761c87f-6aac-45f6-8a19-da717dc54849","meta":{"profile":["http://hl7.org/fhir/us/qicore/StructureDefinition/qicore-coverage"]},"status":"active","beneficiary":{"reference":"Patient/7fbb7e37-228b-4b3b-8974-871a3e798720"},"payor":[{"reference":"Organization/f4907415-83c5-4eae-ab0b-cb63a840880d"}]},"request":{"method":"PUT","url":"Coverage/1761c87f-6aac-45f6-8a19-da717dc54849"}},{"fullUrl":"https://madie.cms.gov/Organization/b6b384d4-0a08-4fd9-9614-d59f431c9e45","resource":{"resourceType":"Organization","id":"f4907415-83c5-4eae-ab0b-cb63a840880d","meta":{"profile":["http://hl7.org/fhir/us/qicore/StructureDefinition/qicore-organization"]},"identifier":[{"use":"temp","system":"urn:oid:2.16.840.1.113883.4.4","value":"21-3259825"}],"active":true,"type":[{"coding":[{"system":"http://terminology.hl7.org/CodeSystem/organization-type","code":"pay","display":"Payer"}]}],"name":"Blue Cross Blue Shield of Texas","telecom":[{"system":"phone","value":"(+1) 972-766-6900"}],"address":[{"use":"billing","type":"postal","line":["P.O. Box 660044"],"city":"Dallas","state":"TX","postalCode":"75266-0044","country":"USA"}]},"request":{"method":"PUT","url":"Organization/f4907415-83c5-4eae-ab0b-cb63a840880d"}},{"fullUrl":"https://madie.cms.gov/Practitioner/6c4c77f1-d50d-4747-a5ff-416896a86080","resource":{"resourceType":"Practitioner","id":"6c4c77f1-d50d-4747-a5ff-416896a86080","meta":{"profile":["http://hl7.org/fhir/us/qicore/StructureDefinition/qicore-practitioner"]},"identifier":[{"system":"http://hl7.org/fhir/sid/us-npi","value":"123456"}],"name":[{"family":"Evil","prefix":["Dr"]}]},"request":{"method":"PUT","url":"Practitioner/6c4c77f1-d50d-4747-a5ff-416896a86080"}},{"fullUrl":"https://madie.cms.gov/MeasureReport/419ea544-0703-43cb-a3c0-ec5d299c1e49","resource":{"resourceType":"MeasureReport","id":"419ea544-0703-43cb-a3c0-ec5d299c1e49","meta":{"profile":["http://hl7.org/fhir/us/cqfmeasures/StructureDefinition/test-case-cqfm"]},"contained":[{"resourceType":"Parameters","id":"bc8b8d96-e873-4ca2-9c41-659680cb8e7f-parameters","parameter":[{"name":"subject","valueString":"7fbb7e37-228b-4b3b-8974-871a3e798720"}]}],"extension":[{"url":"http://hl7.org/fhir/us/cqfmeasures/StructureDefinition/cqfm-inputParameters","valueReference":{"reference":"#bc8b8d96-e873-4ca2-9c41-659680cb8e7f-parameters"}},{"url":"http://hl7.org/fhir/us/cqfmeasures/StructureDefinition/cqfm-testCaseDescription","valueMarkdown":"Child, Enc 1st day of MP, dementia dx and diabetic foot ulcer, arrived at midnight of 01/01, 241 minutes decision to transfer and departure"}],"modifierExtension":[{"url":"http://hl7.org/fhir/us/cqfmeasures/StructureDefinition/cqfm-isTestCase","valueBoolean":true}],"status":"complete","type":"individual","measure":"https://madie.cms.gov/Measure/CMS1264ECCQREHQRFHIR","period":{"start":"2026-01-01","end":"2026-12-31"},"group":[{"population":[{"code":{"coding":[{"system":"http://terminology.hl7.org/CodeSystem/measure-population","code":"initial-population","display":"Initial Population"}]},"count":1},{"code":{"coding":[{"system":"http://terminology.hl7.org/CodeSystem/measure-population","code":"denominator","display":"Denominator"}]},"count":1},{"code":{"coding":[{"system":"http://terminology.hl7.org/CodeSystem/measure-population","code":"numerator","display":"Numerator"}]},"count":1}]}]},"request":{"method":"PUT","url":"MeasureReport/419ea544-0703-43cb-a3c0-ec5d299c1e49"}}]}