{"resourceType":"Bundle","id":"tests-ed5fa616-8b70-4016-b40d-6f87983e2776-bundle","type":"transaction","entry":[{"fullUrl":"https://madie.cms.gov/Patient/ed5fa616-8b70-4016-b40d-6f87983e2776","resource":{"resourceType":"Patient","id":"ed5fa616-8b70-4016-b40d-6f87983e2776","meta":{"profile":["http://hl7.org/fhir/us/qicore/StructureDefinition/qicore-patient"]},"extension":[{"url":"http://hl7.org/fhir/us/core/StructureDefinition/us-core-race","extension":[{"url":"ombCategory","valueCoding":{"system":"urn:oid:2.16.840.1.113883.6.238","code":"1002-5","display":"American Indian or Alaska Native","userSelected":true}},{"url":"text","valueString":"American Indian or Alaska Native"}]},{"url":"http://hl7.org/fhir/us/core/StructureDefinition/us-core-ethnicity","extension":[{"url":"ombCategory","valueCoding":{"system":"urn:oid:2.16.840.1.113883.6.238","code":"2135-2","display":"Hispanic or Latino","userSelected":true}},{"url":"text","valueString":"Hispanic or Latino"}]}],"identifier":[{"type":{"coding":[{"system":"http://terminology.hl7.org/CodeSystem/v2-0203","code":"MR"}]},"system":"https://bonnie-fhir.healthit.gov/","value":"661476b015ed5841a5547ebf"}],"name":[{"family":"NUMERStrat2Pass","given":["EDLOS481Minutes"]}],"gender":"male","birthDate":"2008-01-01"},"request":{"method":"PUT","url":"Patient/ed5fa616-8b70-4016-b40d-6f87983e2776"}},{"fullUrl":"https://madie.cms.gov/Encounter/2519b6a9-1efd-4ee1-b686-79e19bea357d","resource":{"resourceType":"Encounter","id":"2519b6a9-1efd-4ee1-b686-79e19bea357d","meta":{"profile":["http://hl7.org/fhir/us/qicore/StructureDefinition/qicore-encounter"]},"status":"finished","class":{"system":"http://terminology.hl7.org/CodeSystem/v3-ActCode","code":"EMER","display":"emergency department"},"type":[{"coding":[{"system":"http://snomed.info/sct","version":"2023-09","code":"4525004","display":"Emergency department patient visit (procedure)","userSelected":true}]}],"subject":{"reference":"Patient/ed5fa616-8b70-4016-b40d-6f87983e2776"},"period":{"start":"2026-01-01T06:00:00.000+00:00","end":"2026-01-01T14:01:00.000+00:00"},"diagnosis":[{"condition":{"reference":"Condition/beb85fb8-eaed-4065-8815-e9b386eb3bd3"},"use":{"coding":[{"system":"http://terminology.hl7.org/CodeSystem/diagnosis-role","code":"billing"}]},"rank":1}],"location":[{"location":{"reference":"Location/06792a6c-2adb-4f54-9023-612ac2fe8f5e"},"period":{"start":"2026-01-01T06:00:00.000+00:00","end":"2026-01-01T14:01:00.000+00:00"}}]},"request":{"method":"PUT","url":"Encounter/2519b6a9-1efd-4ee1-b686-79e19bea357d"}},{"fullUrl":"https://madie.cms.gov/Condition/beb85fb8-eaed-4065-8815-e9b386eb3bd3","resource":{"resourceType":"Condition","id":"beb85fb8-eaed-4065-8815-e9b386eb3bd3","meta":{"profile":["http://hl7.org/fhir/us/qicore/StructureDefinition/qicore-condition"]},"category":[{"coding":[{"system":"http://terminology.hl7.org/CodeSystem/condition-category","code":"encounter-diagnosis","display":"Encounter Diagnosis"}]}],"code":{"coding":[{"system":"http://snomed.info/sct","version":"2023-09","code":"10660471000119109","display":"Ulcer of left foot due to type 2 diabetes mellitus (disorder)","userSelected":true}]},"subject":{"reference":"Patient/ed5fa616-8b70-4016-b40d-6f87983e2776"},"recordedDate":"2026-01-01T08:00:00.000+00:00"},"request":{"method":"PUT","url":"Condition/beb85fb8-eaed-4065-8815-e9b386eb3bd3"}},{"fullUrl":"https://madie.cms.gov/Location/06792a6c-2adb-4f54-9023-612ac2fe8f5e","resource":{"resourceType":"Location","id":"06792a6c-2adb-4f54-9023-612ac2fe8f5e","meta":{"profile":["http://hl7.org/fhir/us/qicore/StructureDefinition/qicore-location"]},"identifier":[{"use":"usual","system":"http://exampleoflocation.com","value":"B1-S.F2"}],"name":"Emergency Department","type":[{"coding":[{"system":"https://www.cdc.gov/nhsn/cdaportal/terminology/codesystem/hsloc.html","version":"2022","code":"1108-0","display":"Emergency Department","userSelected":true}]}]},"request":{"method":"PUT","url":"Location/06792a6c-2adb-4f54-9023-612ac2fe8f5e"}},{"fullUrl":"https://madie.cms.gov/Coverage/e31e6b2c-e123-47bc-b022-d091dbda9cd6","resource":{"resourceType":"Coverage","id":"e31e6b2c-e123-47bc-b022-d091dbda9cd6","meta":{"profile":["http://hl7.org/fhir/us/qicore/StructureDefinition/qicore-coverage"]},"status":"active","beneficiary":{"reference":"Patient/ed5fa616-8b70-4016-b40d-6f87983e2776"},"payor":[{"reference":"Organization/607fdef9-3983-4cef-ab1a-95434d29b463"}]},"request":{"method":"PUT","url":"Coverage/e31e6b2c-e123-47bc-b022-d091dbda9cd6"}},{"fullUrl":"https://madie.cms.gov/Organization/234c1908-bf6c-426c-9b94-ef96bfe26e3e","resource":{"resourceType":"Organization","id":"607fdef9-3983-4cef-ab1a-95434d29b463","meta":{"profile":["http://hl7.org/fhir/us/qicore/StructureDefinition/qicore-organization"]},"identifier":[{"use":"temp","system":"urn:oid:2.16.840.1.113883.4.4","value":"21-3259825"}],"active":true,"type":[{"coding":[{"system":"http://terminology.hl7.org/CodeSystem/organization-type","code":"pay","display":"Payer"}]}],"name":"Blue Cross Blue Shield of Texas","telecom":[{"system":"phone","value":"(+1) 972-766-6900"}],"address":[{"use":"billing","type":"postal","line":["P.O. Box 660044"],"city":"Dallas","state":"TX","postalCode":"75266-0044","country":"USA"}]},"request":{"method":"PUT","url":"Organization/607fdef9-3983-4cef-ab1a-95434d29b463"}},{"fullUrl":"https://madie.cms.gov/Practitioner/a7dd3ef5-db5e-4466-8a7a-7fe52db57a73","resource":{"resourceType":"Practitioner","id":"a7dd3ef5-db5e-4466-8a7a-7fe52db57a73","meta":{"profile":["http://hl7.org/fhir/us/qicore/StructureDefinition/qicore-practitioner"]},"identifier":[{"system":"http://hl7.org/fhir/sid/us-npi","value":"123456"}],"name":[{"family":"Evil","prefix":["Dr"]}]},"request":{"method":"PUT","url":"Practitioner/a7dd3ef5-db5e-4466-8a7a-7fe52db57a73"}},{"fullUrl":"https://madie.cms.gov/MeasureReport/fad47103-8139-4aae-9f0e-cc73f0ebdaaa","resource":{"resourceType":"MeasureReport","id":"fad47103-8139-4aae-9f0e-cc73f0ebdaaa","meta":{"profile":["http://hl7.org/fhir/us/cqfmeasures/StructureDefinition/test-case-cqfm"]},"contained":[{"resourceType":"Parameters","id":"3bcfcc28-c266-4d19-a516-b1ac6073d46e-parameters","parameter":[{"name":"subject","valueString":"ed5fa616-8b70-4016-b40d-6f87983e2776"}]}],"extension":[{"url":"http://hl7.org/fhir/us/cqfmeasures/StructureDefinition/cqfm-inputParameters","valueReference":{"reference":"#3bcfcc28-c266-4d19-a516-b1ac6073d46e-parameters"}},{"url":"http://hl7.org/fhir/us/cqfmeasures/StructureDefinition/cqfm-testCaseDescription","valueMarkdown":"Adult, age 18, ED enc, first day of MP,  LOS 481 minutes"}],"modifierExtension":[{"url":"http://hl7.org/fhir/us/cqfmeasures/StructureDefinition/cqfm-isTestCase","valueBoolean":true}],"status":"complete","type":"individual","measure":"https://madie.cms.gov/Measure/CMS1264ECCQREHQRFHIR","period":{"start":"2026-01-01","end":"2026-12-31"},"group":[{"population":[{"code":{"coding":[{"system":"http://terminology.hl7.org/CodeSystem/measure-population","code":"initial-population","display":"Initial Population"}]},"count":1},{"code":{"coding":[{"system":"http://terminology.hl7.org/CodeSystem/measure-population","code":"denominator","display":"Denominator"}]},"count":1},{"code":{"coding":[{"system":"http://terminology.hl7.org/CodeSystem/measure-population","code":"numerator","display":"Numerator"}]},"count":1}]}]},"request":{"method":"PUT","url":"MeasureReport/fad47103-8139-4aae-9f0e-cc73f0ebdaaa"}}]}