{"resourceType":"Bundle","id":"tests-cc01e29c-7ebb-4876-b63a-29de550c62f9-bundle","type":"transaction","entry":[{"fullUrl":"https://madie.cms.gov/Patient/cc01e29c-7ebb-4876-b63a-29de550c62f9","resource":{"resourceType":"Patient","id":"cc01e29c-7ebb-4876-b63a-29de550c62f9","meta":{"profile":["http://hl7.org/fhir/us/qicore/StructureDefinition/qicore-patient"]},"extension":[{"url":"http://hl7.org/fhir/us/core/StructureDefinition/us-core-race","extension":[{"url":"ombCategory","valueCoding":{"system":"urn:oid:2.16.840.1.113883.6.238","code":"1002-5","display":"American Indian or Alaska Native","userSelected":true}},{"url":"text","valueString":"American Indian or Alaska Native"}]},{"url":"http://hl7.org/fhir/us/core/StructureDefinition/us-core-ethnicity","extension":[{"url":"ombCategory","valueCoding":{"system":"urn:oid:2.16.840.1.113883.6.238","code":"2135-2","display":"Hispanic or Latino","userSelected":true}},{"url":"text","valueString":"Hispanic or Latino"}]}],"identifier":[{"type":{"coding":[{"system":"http://terminology.hl7.org/CodeSystem/v2-0203","code":"MR"}]},"system":"https://bonnie-fhir.healthit.gov/","value":"661476b015ed5841a5547ebf"}],"name":[{"family":"NUMERStrat3Pass","given":["EDLOS481MinutesLastDayMP"]}],"gender":"male","birthDate":"2010-01-01"},"request":{"method":"PUT","url":"Patient/cc01e29c-7ebb-4876-b63a-29de550c62f9"}},{"fullUrl":"https://madie.cms.gov/Encounter/97746836-aabc-47b7-8517-832c9d552e9e","resource":{"resourceType":"Encounter","id":"97746836-aabc-47b7-8517-832c9d552e9e","meta":{"profile":["http://hl7.org/fhir/us/qicore/StructureDefinition/qicore-encounter"]},"status":"finished","class":{"system":"http://terminology.hl7.org/CodeSystem/v3-ActCode","code":"EMER","display":"emergency department"},"type":[{"coding":[{"system":"http://snomed.info/sct","version":"2023-09","code":"4525004","display":"Emergency department patient visit (procedure)","userSelected":true}]}],"subject":{"reference":"Patient/cc01e29c-7ebb-4876-b63a-29de550c62f9"},"period":{"start":"2026-01-01T06:00:00.000+00:00","end":"2026-01-01T14:01:00.000+00:00"},"diagnosis":[{"condition":{"reference":"Condition/771cb538-7083-4eea-b41c-23d6d97cabb7"},"use":{"coding":[{"system":"http://terminology.hl7.org/CodeSystem/diagnosis-role","code":"billing"}]},"rank":1}],"location":[{"location":{"reference":"Location/e662f038-d115-4a9a-86cf-a67ab86e141f"},"period":{"start":"2026-01-01T06:00:00.000+00:00","end":"2026-01-01T14:01:00.000+00:00"}}]},"request":{"method":"PUT","url":"Encounter/97746836-aabc-47b7-8517-832c9d552e9e"}},{"fullUrl":"https://madie.cms.gov/Location/e662f038-d115-4a9a-86cf-a67ab86e141f","resource":{"resourceType":"Location","id":"e662f038-d115-4a9a-86cf-a67ab86e141f","meta":{"profile":["http://hl7.org/fhir/us/qicore/StructureDefinition/qicore-location"]},"identifier":[{"use":"usual","system":"http://exampleoflocation.com","value":"B1-S.F2"}],"name":"Emergency Department","type":[{"coding":[{"system":"https://www.cdc.gov/nhsn/cdaportal/terminology/codesystem/hsloc.html","version":"2022","code":"1108-0","display":"Emergency Department","userSelected":true}]}]},"request":{"method":"PUT","url":"Location/e662f038-d115-4a9a-86cf-a67ab86e141f"}},{"fullUrl":"https://madie.cms.gov/Condition/771cb538-7083-4eea-b41c-23d6d97cabb7","resource":{"resourceType":"Condition","id":"771cb538-7083-4eea-b41c-23d6d97cabb7","meta":{"profile":["http://hl7.org/fhir/us/qicore/StructureDefinition/qicore-condition"]},"category":[{"coding":[{"system":"http://terminology.hl7.org/CodeSystem/condition-category","code":"encounter-diagnosis","display":"Encounter Diagnosis"}]}],"code":{"coding":[{"system":"http://snomed.info/sct","version":"2023-09","code":"10349009","display":"Multi-infarct dementia with delirium (disorder)","userSelected":true}]},"subject":{"reference":"Patient/cc01e29c-7ebb-4876-b63a-29de550c62f9"},"recordedDate":"2026-04-09T08:00:00.000+00:00"},"request":{"method":"PUT","url":"Condition/771cb538-7083-4eea-b41c-23d6d97cabb7"}},{"fullUrl":"https://madie.cms.gov/Coverage/19a5d5a7-a6b5-4d76-927d-b26699bb55f4","resource":{"resourceType":"Coverage","id":"19a5d5a7-a6b5-4d76-927d-b26699bb55f4","meta":{"profile":["http://hl7.org/fhir/us/qicore/StructureDefinition/qicore-coverage"]},"status":"active","beneficiary":{"reference":"Patient/cc01e29c-7ebb-4876-b63a-29de550c62f9"},"payor":[{"reference":"Organization/f4907415-83c5-4eae-ab0b-cb63a840880d"}]},"request":{"method":"PUT","url":"Coverage/19a5d5a7-a6b5-4d76-927d-b26699bb55f4"}},{"fullUrl":"https://madie.cms.gov/Organization/a5c3ff65-f6e1-4182-ac5c-d0a4c3dc5bf9","resource":{"resourceType":"Organization","id":"f4907415-83c5-4eae-ab0b-cb63a840880d","meta":{"profile":["http://hl7.org/fhir/us/qicore/StructureDefinition/qicore-organization"]},"identifier":[{"use":"temp","system":"urn:oid:2.16.840.1.113883.4.4","value":"21-3259825"}],"active":true,"type":[{"coding":[{"system":"http://terminology.hl7.org/CodeSystem/organization-type","code":"pay","display":"Payer"}]}],"name":"Blue Cross Blue Shield of Texas","telecom":[{"system":"phone","value":"(+1) 972-766-6900"}],"address":[{"use":"billing","type":"postal","line":["P.O. Box 660044"],"city":"Dallas","state":"TX","postalCode":"75266-0044","country":"USA"}]},"request":{"method":"PUT","url":"Organization/f4907415-83c5-4eae-ab0b-cb63a840880d"}},{"fullUrl":"https://madie.cms.gov/Practitioner/f678dadd-e2bf-439e-94a3-efc866e12001","resource":{"resourceType":"Practitioner","id":"f678dadd-e2bf-439e-94a3-efc866e12001","meta":{"profile":["http://hl7.org/fhir/us/qicore/StructureDefinition/qicore-practitioner"]},"identifier":[{"system":"http://hl7.org/fhir/sid/us-npi","value":"123456"}],"name":[{"family":"Evil","prefix":["Dr"]}]},"request":{"method":"PUT","url":"Practitioner/f678dadd-e2bf-439e-94a3-efc866e12001"}},{"fullUrl":"https://madie.cms.gov/MeasureReport/a7e9f6a7-8aca-498b-b775-525fa66b5b2e","resource":{"resourceType":"MeasureReport","id":"a7e9f6a7-8aca-498b-b775-525fa66b5b2e","meta":{"profile":["http://hl7.org/fhir/us/cqfmeasures/StructureDefinition/test-case-cqfm"]},"contained":[{"resourceType":"Parameters","id":"a0ab2a6b-19d9-40ae-9904-fe2597fcafb0-parameters","parameter":[{"name":"subject","valueString":"cc01e29c-7ebb-4876-b63a-29de550c62f9"}]}],"extension":[{"url":"http://hl7.org/fhir/us/cqfmeasures/StructureDefinition/cqfm-inputParameters","valueReference":{"reference":"#a0ab2a6b-19d9-40ae-9904-fe2597fcafb0-parameters"}},{"url":"http://hl7.org/fhir/us/cqfmeasures/StructureDefinition/cqfm-testCaseDescription","valueMarkdown":"Child, age 17, ED enc, last day MP, LOS 481 minutes. pt. mental health dx"}],"modifierExtension":[{"url":"http://hl7.org/fhir/us/cqfmeasures/StructureDefinition/cqfm-isTestCase","valueBoolean":true}],"status":"complete","type":"individual","measure":"https://madie.cms.gov/Measure/CMS1264ECCQREHQRFHIR","period":{"start":"2026-01-01","end":"2026-12-31"},"group":[{"population":[{"code":{"coding":[{"system":"http://terminology.hl7.org/CodeSystem/measure-population","code":"initial-population","display":"Initial Population"}]},"count":1},{"code":{"coding":[{"system":"http://terminology.hl7.org/CodeSystem/measure-population","code":"denominator","display":"Denominator"}]},"count":1},{"code":{"coding":[{"system":"http://terminology.hl7.org/CodeSystem/measure-population","code":"numerator","display":"Numerator"}]},"count":1}]}]},"request":{"method":"PUT","url":"MeasureReport/a7e9f6a7-8aca-498b-b775-525fa66b5b2e"}}]}