{"resourceType":"Bundle","id":"tests-d5fe6f9c-6036-4004-9993-290f3a2be34a-bundle","type":"transaction","entry":[{"fullUrl":"https://madie.cms.gov/Patient/d5fe6f9c-6036-4004-9993-290f3a2be34a","resource":{"resourceType":"Patient","id":"d5fe6f9c-6036-4004-9993-290f3a2be34a","meta":{"profile":["http://hl7.org/fhir/us/qicore/StructureDefinition/qicore-patient"]},"extension":[{"url":"http://hl7.org/fhir/us/core/StructureDefinition/us-core-race","extension":[{"url":"ombCategory","valueCoding":{"system":"urn:oid:2.16.840.1.113883.6.238","code":"1002-5","display":"American Indian or Alaska Native","userSelected":true}},{"url":"text","valueString":"American Indian or Alaska Native"},{"url":"detailed","valueCoding":{"system":"urn:oid:2.16.840.1.113883.6.238","code":"1653-5","display":"Tohono O'Odham"}}]},{"url":"http://hl7.org/fhir/us/core/StructureDefinition/us-core-ethnicity","extension":[{"url":"ombCategory","valueCoding":{"system":"urn:oid:2.16.840.1.113883.6.238","code":"2186-5","display":"Not Hispanic or Latino","userSelected":true}},{"url":"text","valueString":"Not Hispanic or Latino"},{"url":"detailed","valueCoding":{"system":"urn:oid:2.16.840.1.113883.6.238","code":"2153-5","display":"Mexican American Indian"}}]}],"identifier":[{"type":{"coding":[{"system":"http://terminology.hl7.org/CodeSystem/v2-0203","code":"MR"}]},"system":"https://bonnie-fhir.healthit.gov/","value":"62aa60bdc4be4c506d4a534b"}],"name":[{"family":"NUMERStrat3Pass","given":["TimeToTx61Min"]}],"gender":"other","birthDate":"2010-12-31","address":[{"use":"home","line":["Van Egmondkade 23"],"city":"Amsterdam","postalCode":"1024 RJ","country":"NLD"}]},"request":{"method":"PUT","url":"Patient/d5fe6f9c-6036-4004-9993-290f3a2be34a"}},{"fullUrl":"https://madie.cms.gov/Encounter/10922bfd-82ae-4d4f-90f2-af93810e083e","resource":{"resourceType":"Encounter","id":"10922bfd-82ae-4d4f-90f2-af93810e083e","meta":{"profile":["http://hl7.org/fhir/us/qicore/StructureDefinition/qicore-encounter"]},"status":"finished","class":{"system":"http://terminology.hl7.org/CodeSystem/v3-ActCode","code":"EMER","display":"emergency"},"type":[{"coding":[{"system":"http://snomed.info/sct","version":"2023-09","code":"4525004","display":"Emergency department patient visit (procedure)","userSelected":true}]}],"subject":{"reference":"Patient/d5fe6f9c-6036-4004-9993-290f3a2be34a"},"period":{"start":"2026-01-01T08:00:00.000+00:00","end":"2026-01-01T12:15:00.000+00:00"},"diagnosis":[{"condition":{"reference":"Condition/3a4c415b-3fec-409f-9f6e-a20d9412be13"},"use":{"coding":[{"system":"http://terminology.hl7.org/CodeSystem/diagnosis-role","code":"billing"}]},"rank":1}],"location":[{"location":{"reference":"Location/072cdbb5-012e-4941-8662-62f7ef72e07e"},"period":{"start":"2026-01-01T07:45:00.000+00:00","end":"2026-01-01T12:15:00.000+00:00"}},{"location":{"reference":"Location/ddf959ae-33f4-4d8a-9daa-6c2e443f00cb"},"period":{"start":"2026-01-01T09:01:00.000+00:00","end":"2026-01-01T12:15:00.000+00:00"}}]},"request":{"method":"PUT","url":"Encounter/10922bfd-82ae-4d4f-90f2-af93810e083e"}},{"fullUrl":"https://madie.cms.gov/Location/072cdbb5-012e-4941-8662-62f7ef72e07e","resource":{"resourceType":"Location","id":"072cdbb5-012e-4941-8662-62f7ef72e07e","meta":{"profile":["http://hl7.org/fhir/us/qicore/StructureDefinition/qicore-location"]},"identifier":[{"use":"usual","system":"http://exampleoflocation.com","value":"B1-S.F1"}],"name":"Emergency Department","type":[{"coding":[{"system":"https://www.cdc.gov/nhsn/cdaportal/terminology/codesystem/hsloc.html","version":"2022","code":"1108-0","display":"Emergency Department","userSelected":true}]}]},"request":{"method":"PUT","url":"Location/072cdbb5-012e-4941-8662-62f7ef72e07e"}},{"fullUrl":"https://madie.cms.gov/Location/ddf959ae-33f4-4d8a-9daa-6c2e443f00cb","resource":{"resourceType":"Location","id":"ddf959ae-33f4-4d8a-9daa-6c2e443f00cb","meta":{"profile":["http://hl7.org/fhir/us/qicore/StructureDefinition/qicore-location"]},"identifier":[{"use":"usual","system":"http://exampleoflocation.com","value":"B1-S.F2"}],"name":"Treatment Room","type":[{"coding":[{"system":"https://www.cdc.gov/nhsn/cdaportal/terminology/codesystem/hsloc.html","version":"2022","code":"1209-6","display":"Treatment Room","userSelected":true}]}]},"request":{"method":"PUT","url":"Location/ddf959ae-33f4-4d8a-9daa-6c2e443f00cb"}},{"fullUrl":"https://madie.cms.gov/Condition/3a4c415b-3fec-409f-9f6e-a20d9412be13","resource":{"resourceType":"Condition","id":"3a4c415b-3fec-409f-9f6e-a20d9412be13","meta":{"profile":["http://hl7.org/fhir/us/qicore/StructureDefinition/qicore-condition"]},"category":[{"coding":[{"system":"http://terminology.hl7.org/CodeSystem/condition-category","code":"encounter-diagnosis","display":"Encounter Diagnosis"}]}],"code":{"coding":[{"system":"http://snomed.info/sct","version":"2023-09","code":"10674711000119105","display":"Acute severe exacerbation of asthma co-occurrent with allergic rhinitis (disorder)","userSelected":true}]},"subject":{"reference":"Patient/d5fe6f9c-6036-4004-9993-290f3a2be34a"},"recordedDate":"2026-04-09T08:00:00.000+00:00"},"request":{"method":"PUT","url":"Condition/3a4c415b-3fec-409f-9f6e-a20d9412be13"}},{"fullUrl":"https://madie.cms.gov/Location/d63fc740-f931-4d43-9d4e-80eb7b622539","resource":{"resourceType":"Location","id":"d63fc740-f931-4d43-9d4e-80eb7b622539","meta":{"profile":["http://hl7.org/fhir/us/qicore/StructureDefinition/qicore-location"]},"identifier":[{"use":"usual","system":"http://exampleoflocation.com","value":"B1-S.F2"}],"name":"Emergency Department","type":[{"coding":[{"system":"https://www.cdc.gov/nhsn/cdaportal/terminology/codesystem/hsloc.html","version":"2022","code":"1108-0","display":"Emergency Department","userSelected":true}]}]},"request":{"method":"PUT","url":"Location/d63fc740-f931-4d43-9d4e-80eb7b622539"}},{"fullUrl":"https://madie.cms.gov/Location/89737c82-3369-4c48-9952-57ead24a6aa4","resource":{"resourceType":"Location","id":"89737c82-3369-4c48-9952-57ead24a6aa4","meta":{"profile":["http://hl7.org/fhir/us/qicore/StructureDefinition/qicore-location"]},"identifier":[{"use":"usual","system":"http://exampleoflocation.com","value":"B1-S.F2"}],"name":"MEmergency Department","type":[{"coding":[{"system":"https://www.cdc.gov/nhsn/cdaportal/terminology/codesystem/hsloc.html","version":"2022","code":"1209-6","display":"Treatment Room"}]}]},"request":{"method":"PUT","url":"Location/89737c82-3369-4c48-9952-57ead24a6aa4"}},{"fullUrl":"https://madie.cms.gov/Coverage/e7d4fb48-3a52-47a3-8ac6-8559cf48a618","resource":{"resourceType":"Coverage","id":"e7d4fb48-3a52-47a3-8ac6-8559cf48a618","meta":{"profile":["http://hl7.org/fhir/us/qicore/StructureDefinition/qicore-coverage"]},"status":"active","type":{"coding":[{"system":"https://nahdo.org/sopt","code":"1","display":"MEDICARE"}]},"beneficiary":{"reference":"Patient/d5fe6f9c-6036-4004-9993-290f3a2be34a"},"period":{"start":"2023-12-31T00:00:00+00:00"},"payor":[{"reference":"Organization/3e899f33-84eb-4634-a770-a5a0bd7a80e7"}]},"request":{"method":"PUT","url":"Coverage/e7d4fb48-3a52-47a3-8ac6-8559cf48a618"}},{"fullUrl":"https://madie.cms.gov/Organization/9f1b8d36-c418-44ab-86fc-7c27323025bf","resource":{"resourceType":"Organization","id":"3e899f33-84eb-4634-a770-a5a0bd7a80e7","meta":{"profile":["http://hl7.org/fhir/us/qicore/StructureDefinition/qicore-organization"]},"identifier":[{"use":"temp","system":"urn:oid:2.16.840.1.113883.4.4","value":"21-3259825"}],"active":true,"type":[{"coding":[{"system":"http://terminology.hl7.org/CodeSystem/organization-type","code":"pay","display":"Payer"}]}],"name":"Blue Cross Blue Shield of Texas","telecom":[{"system":"phone","value":"(+1) 972-766-6900"}],"address":[{"use":"billing","type":"postal","line":["P.O. Box 660044"],"city":"Dallas","state":"TX","postalCode":"75266-0044","country":"USA"}]},"request":{"method":"PUT","url":"Organization/3e899f33-84eb-4634-a770-a5a0bd7a80e7"}},{"fullUrl":"https://madie.cms.gov/Practitioner/350dbadb-2a33-466a-8d94-ec55844e631d","resource":{"resourceType":"Practitioner","id":"350dbadb-2a33-466a-8d94-ec55844e631d","meta":{"profile":["http://hl7.org/fhir/us/qicore/StructureDefinition/qicore-practitioner"]},"identifier":[{"system":"http://hl7.org/fhir/sid/us-npi","value":"123456"}],"name":[{"family":"Evil","prefix":["Dr"]}]},"request":{"method":"PUT","url":"Practitioner/350dbadb-2a33-466a-8d94-ec55844e631d"}},{"fullUrl":"https://madie.cms.gov/MeasureReport/d8bb98d9-e74f-423b-bacb-27292304cad0","resource":{"resourceType":"MeasureReport","id":"d8bb98d9-e74f-423b-bacb-27292304cad0","meta":{"profile":["http://hl7.org/fhir/us/cqfmeasures/StructureDefinition/test-case-cqfm"]},"contained":[{"resourceType":"Parameters","id":"0965cd52-9a67-454e-af66-a208d9b7dccb-parameters","parameter":[{"name":"subject","valueString":"d5fe6f9c-6036-4004-9993-290f3a2be34a"}]}],"extension":[{"url":"http://hl7.org/fhir/us/cqfmeasures/StructureDefinition/cqfm-inputParameters","valueReference":{"reference":"#0965cd52-9a67-454e-af66-a208d9b7dccb-parameters"}},{"url":"http://hl7.org/fhir/us/cqfmeasures/StructureDefinition/cqfm-testCaseDescription","valueMarkdown":"\tChild, age 18, Encounter first day of MP, time to treatment 61 minutes, no mental illness, gender \"other\""}],"modifierExtension":[{"url":"http://hl7.org/fhir/us/cqfmeasures/StructureDefinition/cqfm-isTestCase","valueBoolean":true}],"status":"complete","type":"individual","measure":"https://madie.cms.gov/Measure/CMS1264ECCQREHQRFHIR","period":{"start":"2026-01-01","end":"2026-12-31"},"group":[{"population":[{"code":{"coding":[{"system":"http://terminology.hl7.org/CodeSystem/measure-population","code":"initial-population","display":"Initial Population"}]},"count":1},{"code":{"coding":[{"system":"http://terminology.hl7.org/CodeSystem/measure-population","code":"denominator","display":"Denominator"}]},"count":1},{"code":{"coding":[{"system":"http://terminology.hl7.org/CodeSystem/measure-population","code":"numerator","display":"Numerator"}]},"count":1}]}]},"request":{"method":"PUT","url":"MeasureReport/d8bb98d9-e74f-423b-bacb-27292304cad0"}}]}