{"resourceType":"Bundle","id":"tests-7bee402e-2687-4813-9b39-37d723663d18-bundle","type":"transaction","entry":[{"fullUrl":"https://madie.cms.gov/Patient/7bee402e-2687-4813-9b39-37d723663d18","resource":{"resourceType":"Patient","id":"7bee402e-2687-4813-9b39-37d723663d18","meta":{"profile":["http://hl7.org/fhir/us/qicore/StructureDefinition/qicore-patient"]},"extension":[{"url":"http://hl7.org/fhir/us/core/StructureDefinition/us-core-race","extension":[{"url":"ombCategory","valueCoding":{"system":"urn:oid:2.16.840.1.113883.6.238","code":"1002-5","display":"American Indian or Alaska Native","userSelected":true}},{"url":"text","valueString":"American Indian or Alaska Native"}]},{"url":"http://hl7.org/fhir/us/core/StructureDefinition/us-core-ethnicity","extension":[{"url":"ombCategory","valueCoding":{"system":"urn:oid:2.16.840.1.113883.6.238","code":"2135-2","display":"Hispanic or Latino","userSelected":true}},{"url":"text","valueString":"Hispanic or Latino"}]}],"identifier":[{"type":{"coding":[{"system":"http://terminology.hl7.org/CodeSystem/v2-0203","code":"MR"}]},"system":"https://bonnie-fhir.healthit.gov/","value":"661476b015ed5841a5547ebf"}],"name":[{"family":"NUMERStrat1Fail","given":["EDLOS480Minutes"]}],"gender":"male","birthDate":"2010-01-01"},"request":{"method":"PUT","url":"Patient/7bee402e-2687-4813-9b39-37d723663d18"}},{"fullUrl":"https://madie.cms.gov/Encounter/058f6de3-66f3-40b1-ac46-296758266169","resource":{"resourceType":"Encounter","id":"058f6de3-66f3-40b1-ac46-296758266169","meta":{"profile":["http://hl7.org/fhir/us/qicore/StructureDefinition/qicore-encounter"]},"status":"finished","class":{"system":"http://terminology.hl7.org/CodeSystem/v3-ActCode","code":"EMER","display":"emergency department"},"type":[{"coding":[{"system":"http://snomed.info/sct","version":"2023-09","code":"4525004","display":"Emergency department patient visit (procedure)","userSelected":true}]}],"subject":{"reference":"Patient/7bee402e-2687-4813-9b39-37d723663d18"},"period":{"start":"2026-01-01T06:00:00.000+00:00","end":"2026-01-01T14:00:00.000+00:00"},"diagnosis":[{"condition":{"reference":"Condition/bdc23554-15c6-4f04-a075-eaa812677c5b"},"use":{"coding":[{"system":"http://terminology.hl7.org/CodeSystem/diagnosis-role","code":"billing"}]},"rank":1}],"location":[{"location":{"reference":"Location/1ce23af1-ed21-4760-8df6-6d94965dfa9a"},"period":{"start":"2026-01-01T06:00:00.000+00:00","end":"2026-01-01T14:00:00.000+00:00"}}]},"request":{"method":"PUT","url":"Encounter/058f6de3-66f3-40b1-ac46-296758266169"}},{"fullUrl":"https://madie.cms.gov/Location/1ce23af1-ed21-4760-8df6-6d94965dfa9a","resource":{"resourceType":"Location","id":"1ce23af1-ed21-4760-8df6-6d94965dfa9a","meta":{"profile":["http://hl7.org/fhir/us/qicore/StructureDefinition/qicore-location"]},"identifier":[{"use":"usual","system":"http://exampleoflocation.com","value":"B1-S.F2"}],"name":"Emergency Department","type":[{"coding":[{"system":"https://www.cdc.gov/nhsn/cdaportal/terminology/codesystem/hsloc.html","version":"2022","code":"1108-0","display":"Emergency Department","userSelected":true}]}]},"request":{"method":"PUT","url":"Location/1ce23af1-ed21-4760-8df6-6d94965dfa9a"}},{"fullUrl":"https://madie.cms.gov/Condition/bdc23554-15c6-4f04-a075-eaa812677c5b","resource":{"resourceType":"Condition","id":"bdc23554-15c6-4f04-a075-eaa812677c5b","meta":{"profile":["http://hl7.org/fhir/us/qicore/StructureDefinition/qicore-condition"]},"category":[{"coding":[{"system":"http://terminology.hl7.org/CodeSystem/condition-category","code":"encounter-diagnosis","display":"Encounter Diagnosis"}]}],"code":{"coding":[{"system":"http://snomed.info/sct","version":"2023-09","code":"10660471000119109","display":"Ulcer of left foot due to type 2 diabetes mellitus (disorder)","userSelected":true}]},"subject":{"reference":"Patient/7bee402e-2687-4813-9b39-37d723663d18"},"recordedDate":"2026-01-01T08:00:00.000+00:00"},"request":{"method":"PUT","url":"Condition/bdc23554-15c6-4f04-a075-eaa812677c5b"}},{"fullUrl":"https://madie.cms.gov/Coverage/600bc0bc-7cc4-4436-9802-b6275b97c1c0","resource":{"resourceType":"Coverage","id":"600bc0bc-7cc4-4436-9802-b6275b97c1c0","meta":{"profile":["http://hl7.org/fhir/us/qicore/StructureDefinition/qicore-coverage"]},"status":"active","beneficiary":{"reference":"Patient/7bee402e-2687-4813-9b39-37d723663d18"},"payor":[{"reference":"Organization/f4907415-83c5-4eae-ab0b-cb63a840880d"}]},"request":{"method":"PUT","url":"Coverage/600bc0bc-7cc4-4436-9802-b6275b97c1c0"}},{"fullUrl":"https://madie.cms.gov/Organization/f605d847-1bcc-493f-8d35-2d82f884418d","resource":{"resourceType":"Organization","id":"f4907415-83c5-4eae-ab0b-cb63a840880d","meta":{"profile":["http://hl7.org/fhir/us/qicore/StructureDefinition/qicore-organization"]},"identifier":[{"use":"temp","system":"urn:oid:2.16.840.1.113883.4.4","value":"21-3259825"}],"active":true,"type":[{"coding":[{"system":"http://terminology.hl7.org/CodeSystem/organization-type","code":"pay","display":"Payer"}]}],"name":"Blue Cross Blue Shield of Texas","telecom":[{"system":"phone","value":"(+1) 972-766-6900"}],"address":[{"use":"billing","type":"postal","line":["P.O. Box 660044"],"city":"Dallas","state":"TX","postalCode":"75266-0044","country":"USA"}]},"request":{"method":"PUT","url":"Organization/f4907415-83c5-4eae-ab0b-cb63a840880d"}},{"fullUrl":"https://madie.cms.gov/Practitioner/96b002b3-1bb0-4760-9f17-f5b5fde8d29c","resource":{"resourceType":"Practitioner","id":"96b002b3-1bb0-4760-9f17-f5b5fde8d29c","meta":{"profile":["http://hl7.org/fhir/us/qicore/StructureDefinition/qicore-practitioner"]},"identifier":[{"system":"http://hl7.org/fhir/sid/us-npi","value":"123456"}],"name":[{"family":"Evil","prefix":["Dr"]}]},"request":{"method":"PUT","url":"Practitioner/96b002b3-1bb0-4760-9f17-f5b5fde8d29c"}},{"fullUrl":"https://madie.cms.gov/MeasureReport/df1d1f8e-ab85-45fb-81a1-41348676018d","resource":{"resourceType":"MeasureReport","id":"df1d1f8e-ab85-45fb-81a1-41348676018d","meta":{"profile":["http://hl7.org/fhir/us/cqfmeasures/StructureDefinition/test-case-cqfm"]},"contained":[{"resourceType":"Parameters","id":"d291fcb5-5f96-4750-8c30-b577722bd2d7-parameters","parameter":[{"name":"subject","valueString":"7bee402e-2687-4813-9b39-37d723663d18"}]}],"extension":[{"url":"http://hl7.org/fhir/us/cqfmeasures/StructureDefinition/cqfm-inputParameters","valueReference":{"reference":"#d291fcb5-5f96-4750-8c30-b577722bd2d7-parameters"}},{"url":"http://hl7.org/fhir/us/cqfmeasures/StructureDefinition/cqfm-testCaseDescription","valueMarkdown":"ED enc first day of MP, EDLOS 480 minutes"}],"modifierExtension":[{"url":"http://hl7.org/fhir/us/cqfmeasures/StructureDefinition/cqfm-isTestCase","valueBoolean":true}],"status":"complete","type":"individual","measure":"https://madie.cms.gov/Measure/CMS1264ECCQREHQRFHIR","period":{"start":"2026-01-01","end":"2026-12-31"},"group":[{"population":[{"code":{"coding":[{"system":"http://terminology.hl7.org/CodeSystem/measure-population","code":"initial-population","display":"Initial Population"}]},"count":1},{"code":{"coding":[{"system":"http://terminology.hl7.org/CodeSystem/measure-population","code":"denominator","display":"Denominator"}]},"count":1},{"code":{"coding":[{"system":"http://terminology.hl7.org/CodeSystem/measure-population","code":"numerator","display":"Numerator"}]},"count":0}]}]},"request":{"method":"PUT","url":"MeasureReport/df1d1f8e-ab85-45fb-81a1-41348676018d"}}]}