{"resourceType":"Bundle","id":"tests-404c928b-a752-4792-91c4-8a1fd0656759-bundle","type":"transaction","entry":[{"fullUrl":"https://madie.cms.gov/Patient/404c928b-a752-4792-91c4-8a1fd0656759","resource":{"resourceType":"Patient","id":"404c928b-a752-4792-91c4-8a1fd0656759","meta":{"profile":["http://hl7.org/fhir/us/qicore/StructureDefinition/qicore-patient"]},"extension":[{"url":"http://hl7.org/fhir/us/core/StructureDefinition/us-core-race","extension":[{"url":"ombCategory","valueCoding":{"system":"urn:oid:2.16.840.1.113883.6.238","code":"2076-8","display":"Native Hawaiian or Other Pacific Islander","userSelected":true}},{"url":"text","valueString":"Native Hawaiian or Other Pacific Islander"}]},{"url":"http://hl7.org/fhir/us/core/StructureDefinition/us-core-ethnicity","extension":[{"url":"ombCategory","valueCoding":{"system":"urn:oid:2.16.840.1.113883.6.238","code":"2186-5","display":"Not Hispanic or Latino","userSelected":true}},{"url":"text","valueString":"Not Hispanic or Latino"}]}],"identifier":[{"type":{"coding":[{"system":"http://terminology.hl7.org/CodeSystem/v2-0203","code":"MR"}]},"system":"https://bonnie-fhir.healthit.gov/","value":"661579e3db207d74c03b8a54"}],"name":[{"family":"NUMERStrat4Pass","given":["EDEncounterStatusFinished"]}],"gender":"female","birthDate":"2007-12-31"},"request":{"method":"PUT","url":"Patient/404c928b-a752-4792-91c4-8a1fd0656759"}},{"fullUrl":"https://madie.cms.gov/Encounter/c83acff1-d5c3-4dac-b75a-455cc3aebf89","resource":{"resourceType":"Encounter","id":"c83acff1-d5c3-4dac-b75a-455cc3aebf89","meta":{"profile":["http://hl7.org/fhir/us/qicore/StructureDefinition/qicore-encounter"]},"status":"finished","class":{"system":"http://terminology.hl7.org/CodeSystem/v3-ActCode","code":"EMER","display":"emergency"},"type":[{"coding":[{"system":"http://snomed.info/sct","version":"2023-09","code":"4525004","display":"Emergency department patient visit (procedure)","userSelected":true}]}],"subject":{"reference":"Patient/404c928b-a752-4792-91c4-8a1fd0656759"},"period":{"start":"2026-01-01T08:00:00.000+00:00","end":"2026-01-01T08:40:00.000+00:00"},"diagnosis":[{"condition":{"reference":"Condition/90e8b8d7-48ec-43e0-8191-dfb33155e098"},"use":{"coding":[{"system":"http://terminology.hl7.org/CodeSystem/diagnosis-role","code":"billing"}]},"rank":1}],"location":[{"location":{"reference":"Location/1e55d10c-6ea1-4d76-acff-10fe7af73b6a"},"period":{"start":"2026-01-01T07:45:00.000+00:00","end":"2026-01-01T08:15:00.000+00:00"}},{"location":{"reference":"Location/1bd7953f-99dc-4643-8497-65c2a6763cbd"},"period":{"start":"2026-01-01T08:30:00.000+00:00","end":"2026-01-01T08:40:00.000+00:00"}}]},"request":{"method":"PUT","url":"Encounter/c83acff1-d5c3-4dac-b75a-455cc3aebf89"}},{"fullUrl":"https://madie.cms.gov/Location/1e55d10c-6ea1-4d76-acff-10fe7af73b6a","resource":{"resourceType":"Location","id":"1e55d10c-6ea1-4d76-acff-10fe7af73b6a","meta":{"profile":["http://hl7.org/fhir/us/qicore/StructureDefinition/qicore-location"]},"identifier":[{"use":"usual","system":"http://exampleoflocation.com","value":"B1-S.F1"}],"name":"Emergency Department","type":[{"coding":[{"system":"https://www.cdc.gov/nhsn/cdaportal/terminology/codesystem/hsloc.html","version":"2022","code":"1108-0","display":"Emergency Department","userSelected":true}]}]},"request":{"method":"PUT","url":"Location/1e55d10c-6ea1-4d76-acff-10fe7af73b6a"}},{"fullUrl":"https://madie.cms.gov/Location/1bd7953f-99dc-4643-8497-65c2a6763cbd","resource":{"resourceType":"Location","id":"1bd7953f-99dc-4643-8497-65c2a6763cbd","meta":{"profile":["http://hl7.org/fhir/us/qicore/StructureDefinition/qicore-location"]},"identifier":[{"use":"usual","system":"http://exampleoflocation.com","value":"B1-S.F2"}],"name":"Emergency Department","type":[{"coding":[{"system":"https://www.cdc.gov/nhsn/cdaportal/terminology/codesystem/hsloc.html","version":"2022","code":"1209-6","display":"Treatment Room","userSelected":true}]}]},"request":{"method":"PUT","url":"Location/1bd7953f-99dc-4643-8497-65c2a6763cbd"}},{"fullUrl":"https://madie.cms.gov/Condition/90e8b8d7-48ec-43e0-8191-dfb33155e098","resource":{"resourceType":"Condition","id":"90e8b8d7-48ec-43e0-8191-dfb33155e098","meta":{"profile":["http://hl7.org/fhir/us/qicore/StructureDefinition/qicore-condition"]},"category":[{"coding":[{"system":"http://terminology.hl7.org/CodeSystem/condition-category","code":"encounter-diagnosis","display":"Encounter Diagnosis"}]}],"code":{"coding":[{"system":"http://snomed.info/sct","version":"2023-09","code":"10349009","display":"Multi-infarct dementia with delirium (disorder)","userSelected":true}]},"subject":{"reference":"Patient/404c928b-a752-4792-91c4-8a1fd0656759"},"recordedDate":"2026-04-09T08:00:00.000+00:00"},"request":{"method":"PUT","url":"Condition/90e8b8d7-48ec-43e0-8191-dfb33155e098"}},{"fullUrl":"https://madie.cms.gov/Location/a50f0996-6aa4-4711-abd0-93cc57327287","resource":{"resourceType":"Location","id":"a50f0996-6aa4-4711-abd0-93cc57327287","meta":{"profile":["http://hl7.org/fhir/us/qicore/StructureDefinition/qicore-location"]},"identifier":[{"use":"usual","system":"http://exampleoflocation.com","value":"B1-S.F2"}],"name":"Emergency Department","type":[{"coding":[{"system":"https://www.cdc.gov/nhsn/cdaportal/terminology/codesystem/hsloc.html","version":"2022","code":"1108-0","display":"Emergency Department","userSelected":true}]}]},"request":{"method":"PUT","url":"Location/a50f0996-6aa4-4711-abd0-93cc57327287"}},{"fullUrl":"https://madie.cms.gov/Location/cc17967e-3b45-462b-a001-df8ffda811a1","resource":{"resourceType":"Location","id":"cc17967e-3b45-462b-a001-df8ffda811a1","meta":{"profile":["http://hl7.org/fhir/us/qicore/StructureDefinition/qicore-location"]},"identifier":[{"use":"usual","system":"http://exampleoflocation.com","value":"B1-S.F2"}],"name":"Emergency Department","type":[{"coding":[{"system":"https://www.cdc.gov/nhsn/cdaportal/terminology/codesystem/hsloc.html","version":"2022","code":"1209-6","display":"Treatment Room"}]}]},"request":{"method":"PUT","url":"Location/cc17967e-3b45-462b-a001-df8ffda811a1"}},{"fullUrl":"https://madie.cms.gov/Coverage/c8e700cf-8dc4-49c2-bb06-b068222b7379","resource":{"resourceType":"Coverage","id":"c8e700cf-8dc4-49c2-bb06-b068222b7379","meta":{"profile":["http://hl7.org/fhir/us/qicore/StructureDefinition/qicore-coverage"]},"status":"active","beneficiary":{"reference":"Patient/404c928b-a752-4792-91c4-8a1fd0656759"},"payor":[{"reference":"Organization/f4907415-83c5-4eae-ab0b-cb63a840880d"}]},"request":{"method":"PUT","url":"Coverage/c8e700cf-8dc4-49c2-bb06-b068222b7379"}},{"fullUrl":"https://madie.cms.gov/Organization/9bad36bb-433a-4e4a-b90f-eda58ebe0fc6","resource":{"resourceType":"Organization","id":"f4907415-83c5-4eae-ab0b-cb63a840880d","meta":{"profile":["http://hl7.org/fhir/us/qicore/StructureDefinition/qicore-organization"]},"identifier":[{"use":"temp","system":"urn:oid:2.16.840.1.113883.4.4","value":"21-3259825"}],"active":true,"type":[{"coding":[{"system":"http://terminology.hl7.org/CodeSystem/organization-type","code":"pay","display":"Payer"}]}],"name":"Blue Cross Blue Shield of Texas","telecom":[{"system":"phone","value":"(+1) 972-766-6900"}],"address":[{"use":"billing","type":"postal","line":["P.O. Box 660044"],"city":"Dallas","state":"TX","postalCode":"75266-0044","country":"USA"}]},"request":{"method":"PUT","url":"Organization/f4907415-83c5-4eae-ab0b-cb63a840880d"}},{"fullUrl":"https://madie.cms.gov/Practitioner/da41855b-da19-4107-900d-148d90fb291b","resource":{"resourceType":"Practitioner","id":"da41855b-da19-4107-900d-148d90fb291b","meta":{"profile":["http://hl7.org/fhir/us/qicore/StructureDefinition/qicore-practitioner"]},"identifier":[{"system":"http://hl7.org/fhir/sid/us-npi","value":"123456"}],"name":[{"family":"Evil","prefix":["Dr"]}]},"request":{"method":"PUT","url":"Practitioner/da41855b-da19-4107-900d-148d90fb291b"}},{"fullUrl":"https://madie.cms.gov/MeasureReport/f13dfc61-d0e4-4f93-b527-a71d92c1d127","resource":{"resourceType":"MeasureReport","id":"f13dfc61-d0e4-4f93-b527-a71d92c1d127","meta":{"profile":["http://hl7.org/fhir/us/cqfmeasures/StructureDefinition/test-case-cqfm"]},"contained":[{"resourceType":"Parameters","id":"b859b0c2-fd14-49dd-b126-7db67044fe4e-parameters","parameter":[{"name":"subject","valueString":"404c928b-a752-4792-91c4-8a1fd0656759"}]}],"extension":[{"url":"http://hl7.org/fhir/us/cqfmeasures/StructureDefinition/cqfm-inputParameters","valueReference":{"reference":"#b859b0c2-fd14-49dd-b126-7db67044fe4e-parameters"}},{"url":"http://hl7.org/fhir/us/cqfmeasures/StructureDefinition/cqfm-testCaseDescription","valueMarkdown":"Enc 1st day of MP, in ED only 40 mins. "}],"modifierExtension":[{"url":"http://hl7.org/fhir/us/cqfmeasures/StructureDefinition/cqfm-isTestCase","valueBoolean":true}],"status":"complete","type":"individual","measure":"https://madie.cms.gov/Measure/CMS1264ECCQREHQRFHIR","period":{"start":"2026-01-01","end":"2026-12-31"},"group":[{"population":[{"code":{"coding":[{"system":"http://terminology.hl7.org/CodeSystem/measure-population","code":"initial-population","display":"Initial Population"}]},"count":1},{"code":{"coding":[{"system":"http://terminology.hl7.org/CodeSystem/measure-population","code":"denominator","display":"Denominator"}]},"count":1},{"code":{"coding":[{"system":"http://terminology.hl7.org/CodeSystem/measure-population","code":"numerator","display":"Numerator"}]},"count":0}]}]},"request":{"method":"PUT","url":"MeasureReport/f13dfc61-d0e4-4f93-b527-a71d92c1d127"}}]}