{"resourceType":"Bundle","id":"tests-35fd427f-1233-4f3c-b8b3-9e400755da8f-bundle","type":"transaction","entry":[{"fullUrl":"https://madie.cms.gov/Patient/35fd427f-1233-4f3c-b8b3-9e400755da8f","resource":{"resourceType":"Patient","id":"35fd427f-1233-4f3c-b8b3-9e400755da8f","meta":{"profile":["http://hl7.org/fhir/us/qicore/StructureDefinition/qicore-patient"]},"extension":[{"url":"http://hl7.org/fhir/us/core/StructureDefinition/us-core-race","extension":[{"url":"ombCategory","valueCoding":{"system":"urn:oid:2.16.840.1.113883.6.238","code":"1002-5","display":"American Indian or Alaska Native","userSelected":true}},{"url":"text","valueString":"American Indian or Alaska Native"}]},{"url":"http://hl7.org/fhir/us/core/StructureDefinition/us-core-ethnicity","extension":[{"url":"ombCategory","valueCoding":{"system":"urn:oid:2.16.840.1.113883.6.238","code":"2135-2","display":"Hispanic or Latino","userSelected":true}},{"url":"text","valueString":"Hispanic or Latino"}]}],"identifier":[{"type":{"coding":[{"system":"http://terminology.hl7.org/CodeSystem/v2-0203","code":"MR"}]},"system":"https://bonnie-fhir.healthit.gov/","value":"661476b015ed5841a5547ebf"}],"name":[{"family":"NUMERStrat3Pass","given":["EDLOS481Minutes"]}],"gender":"male","birthDate":"2009-01-01"},"request":{"method":"PUT","url":"Patient/35fd427f-1233-4f3c-b8b3-9e400755da8f"}},{"fullUrl":"https://madie.cms.gov/Encounter/a4c1e8af-566e-445a-ba92-f1ef1ef23679","resource":{"resourceType":"Encounter","id":"a4c1e8af-566e-445a-ba92-f1ef1ef23679","meta":{"profile":["http://hl7.org/fhir/us/qicore/StructureDefinition/qicore-encounter"]},"status":"finished","class":{"system":"http://terminology.hl7.org/CodeSystem/v3-ActCode","code":"EMER","display":"emergency department"},"type":[{"coding":[{"system":"http://snomed.info/sct","version":"2023-09","code":"4525004","display":"Emergency department patient visit (procedure)","userSelected":true}]}],"subject":{"reference":"Patient/35fd427f-1233-4f3c-b8b3-9e400755da8f"},"period":{"start":"2026-01-01T00:00:00.000+00:00","end":"2026-01-01T08:00:00.000+00:00"},"diagnosis":[{"condition":{"reference":"Condition/5dac6d35-e09d-4125-a123-28405597388d"},"use":{"coding":[{"system":"http://terminology.hl7.org/CodeSystem/diagnosis-role","code":"billing"}]},"rank":1}],"location":[{"location":{"reference":"Location/50180d62-d742-4375-b7f4-35c3cc1d4779"},"period":{"start":"2026-01-01T00:00:00.000+00:00","end":"2026-01-01T08:01:00.000+00:00"}}]},"request":{"method":"PUT","url":"Encounter/a4c1e8af-566e-445a-ba92-f1ef1ef23679"}},{"fullUrl":"https://madie.cms.gov/Location/50180d62-d742-4375-b7f4-35c3cc1d4779","resource":{"resourceType":"Location","id":"50180d62-d742-4375-b7f4-35c3cc1d4779","meta":{"profile":["http://hl7.org/fhir/us/qicore/StructureDefinition/qicore-location"]},"identifier":[{"use":"usual","system":"http://exampleoflocation.com","value":"B1-S.F2"}],"name":"Emergency Department","type":[{"coding":[{"system":"https://www.cdc.gov/nhsn/cdaportal/terminology/codesystem/hsloc.html","version":"2022","code":"1108-0","display":"Emergency Department","userSelected":true}]}]},"request":{"method":"PUT","url":"Location/50180d62-d742-4375-b7f4-35c3cc1d4779"}},{"fullUrl":"https://madie.cms.gov/Coverage/ab409618-ff39-4ad9-8ba5-f8da18ddeb6c","resource":{"resourceType":"Coverage","id":"ab409618-ff39-4ad9-8ba5-f8da18ddeb6c","meta":{"profile":["http://hl7.org/fhir/us/qicore/StructureDefinition/qicore-coverage"]},"status":"active","beneficiary":{"reference":"Patient/35fd427f-1233-4f3c-b8b3-9e400755da8f"},"payor":[{"reference":"Organization/3778262e-e084-4bb5-9a47-1a144735f786"}]},"request":{"method":"PUT","url":"Coverage/ab409618-ff39-4ad9-8ba5-f8da18ddeb6c"}},{"fullUrl":"https://madie.cms.gov/Condition/5dac6d35-e09d-4125-a123-28405597388d","resource":{"resourceType":"Condition","id":"5dac6d35-e09d-4125-a123-28405597388d","meta":{"profile":["http://hl7.org/fhir/us/qicore/StructureDefinition/qicore-condition"]},"category":[{"coding":[{"system":"http://terminology.hl7.org/CodeSystem/condition-category","code":"encounter-diagnosis","display":"Encounter Diagnosis"}]}],"code":{"coding":[{"system":"http://snomed.info/sct","version":"2023-09","code":"10349009","display":"Multi-infarct dementia with delirium (disorder)","userSelected":true}]},"subject":{"reference":"Patient/35fd427f-1233-4f3c-b8b3-9e400755da8f"},"recordedDate":"2026-04-09T08:00:00.000+00:00"},"request":{"method":"PUT","url":"Condition/5dac6d35-e09d-4125-a123-28405597388d"}},{"fullUrl":"https://madie.cms.gov/Organization/9f67454d-1176-4bb1-88ba-a2b7cfef4ba2","resource":{"resourceType":"Organization","id":"3778262e-e084-4bb5-9a47-1a144735f786","meta":{"profile":["http://hl7.org/fhir/us/qicore/StructureDefinition/qicore-organization"]},"identifier":[{"use":"temp","system":"urn:oid:2.16.840.1.113883.4.4","value":"21-3259825"}],"active":true,"type":[{"coding":[{"system":"http://terminology.hl7.org/CodeSystem/organization-type","code":"pay","display":"Payer"}]}],"name":"Blue Cross Blue Shield of Texas","telecom":[{"system":"phone","value":"(+1) 972-766-6900"}],"address":[{"use":"billing","type":"postal","line":["P.O. Box 660044"],"city":"Dallas","state":"TX","postalCode":"75266-0044","country":"USA"}]},"request":{"method":"PUT","url":"Organization/3778262e-e084-4bb5-9a47-1a144735f786"}},{"fullUrl":"https://madie.cms.gov/Practitioner/ffc31cf9-93a2-4c42-a2c8-6fb8bb79b4fe","resource":{"resourceType":"Practitioner","id":"ffc31cf9-93a2-4c42-a2c8-6fb8bb79b4fe","meta":{"profile":["http://hl7.org/fhir/us/qicore/StructureDefinition/qicore-practitioner"]},"identifier":[{"system":"http://hl7.org/fhir/sid/us-npi","value":"123456"}],"name":[{"family":"Evil","prefix":["Dr"]}]},"request":{"method":"PUT","url":"Practitioner/ffc31cf9-93a2-4c42-a2c8-6fb8bb79b4fe"}},{"fullUrl":"https://madie.cms.gov/MeasureReport/772aaa1f-e517-494d-acb7-4f54fd437391","resource":{"resourceType":"MeasureReport","id":"772aaa1f-e517-494d-acb7-4f54fd437391","meta":{"profile":["http://hl7.org/fhir/us/cqfmeasures/StructureDefinition/test-case-cqfm"]},"contained":[{"resourceType":"Parameters","id":"bf801be9-c253-42b6-9c5b-fba69f91a50b-parameters","parameter":[{"name":"subject","valueString":"35fd427f-1233-4f3c-b8b3-9e400755da8f"}]}],"extension":[{"url":"http://hl7.org/fhir/us/cqfmeasures/StructureDefinition/cqfm-inputParameters","valueReference":{"reference":"#bf801be9-c253-42b6-9c5b-fba69f91a50b-parameters"}},{"url":"http://hl7.org/fhir/us/cqfmeasures/StructureDefinition/cqfm-testCaseDescription","valueMarkdown":"Child, age 17, ED enc first min of MP, has mental illness dx"}],"modifierExtension":[{"url":"http://hl7.org/fhir/us/cqfmeasures/StructureDefinition/cqfm-isTestCase","valueBoolean":true}],"status":"complete","type":"individual","measure":"https://madie.cms.gov/Measure/CMS1264ECCQREHQRFHIR","period":{"start":"2026-01-01","end":"2026-12-31"},"group":[{"population":[{"code":{"coding":[{"system":"http://terminology.hl7.org/CodeSystem/measure-population","code":"initial-population","display":"Initial Population"}]},"count":1},{"code":{"coding":[{"system":"http://terminology.hl7.org/CodeSystem/measure-population","code":"denominator","display":"Denominator"}]},"count":1},{"code":{"coding":[{"system":"http://terminology.hl7.org/CodeSystem/measure-population","code":"numerator","display":"Numerator"}]},"count":1}]}]},"request":{"method":"PUT","url":"MeasureReport/772aaa1f-e517-494d-acb7-4f54fd437391"}}]}