{"resourceType":"Bundle","id":"tests-16cffb87-15ea-48b7-bd68-f211f48d6f19-bundle","type":"transaction","entry":[{"fullUrl":"https://madie.cms.gov/Patient/16cffb87-15ea-48b7-bd68-f211f48d6f19","resource":{"resourceType":"Patient","id":"16cffb87-15ea-48b7-bd68-f211f48d6f19","meta":{"profile":["http://hl7.org/fhir/us/qicore/StructureDefinition/qicore-patient"]},"extension":[{"url":"http://hl7.org/fhir/us/core/StructureDefinition/us-core-race","extension":[{"url":"ombCategory","valueCoding":{"system":"urn:oid:2.16.840.1.113883.6.238","code":"1002-5","display":"American Indian or Alaska Native","userSelected":true}},{"url":"text","valueString":"American Indian or Alaska Native"}]},{"url":"http://hl7.org/fhir/us/core/StructureDefinition/us-core-ethnicity","extension":[{"url":"ombCategory","valueCoding":{"system":"urn:oid:2.16.840.1.113883.6.238","code":"2135-2","display":"Hispanic or Latino","userSelected":true}},{"url":"text","valueString":"Hispanic or Latino"}]}],"identifier":[{"type":{"coding":[{"system":"http://terminology.hl7.org/CodeSystem/v2-0203","code":"MR"}]},"system":"https://bonnie-fhir.healthit.gov/","value":"661581c7db207d74c03b8a65"}],"name":[{"family":"NUMERStrat4Pass","given":["LWBS"]}],"gender":"male","birthDate":"2008-01-01"},"request":{"method":"PUT","url":"Patient/16cffb87-15ea-48b7-bd68-f211f48d6f19"}},{"fullUrl":"https://madie.cms.gov/Encounter/6923fa33-638d-4cc7-aa74-f932197bf34f","resource":{"resourceType":"Encounter","id":"6923fa33-638d-4cc7-aa74-f932197bf34f","meta":{"profile":["http://hl7.org/fhir/us/qicore/StructureDefinition/qicore-encounter"]},"status":"finished","class":{"system":"http://terminology.hl7.org/CodeSystem/v3-ActCode","code":"EMER","display":"emergency"},"type":[{"coding":[{"system":"http://snomed.info/sct","version":"2023-09","code":"225390008","display":"Triage (procedure)","userSelected":true}]}],"subject":{"reference":"Patient/16cffb87-15ea-48b7-bd68-f211f48d6f19"},"period":{"start":"2026-12-31T08:00:00.000+00:00","end":"2026-12-31T08:15:00.000+00:00"},"diagnosis":[{"condition":{"reference":"Condition/5375b54d-31e8-4204-9164-a2dd2dca5b6f"},"use":{"coding":[{"system":"http://terminology.hl7.org/CodeSystem/diagnosis-role","code":"billing"}]},"rank":1}],"hospitalization":{"dischargeDisposition":{"coding":[{"system":"http://snomed.info/sct","code":"21541000119102","display":"Patient left without being seen (finding)","userSelected":true}]}}},"request":{"method":"PUT","url":"Encounter/6923fa33-638d-4cc7-aa74-f932197bf34f"}},{"fullUrl":"https://madie.cms.gov/Condition/5375b54d-31e8-4204-9164-a2dd2dca5b6f","resource":{"resourceType":"Condition","id":"5375b54d-31e8-4204-9164-a2dd2dca5b6f","meta":{"profile":["http://hl7.org/fhir/us/qicore/StructureDefinition/qicore-condition"]},"category":[{"coding":[{"system":"http://terminology.hl7.org/CodeSystem/condition-category","code":"encounter-diagnosis","display":"Encounter Diagnosis"}]}],"code":{"coding":[{"system":"http://snomed.info/sct","version":"2023-09","code":"10349009","display":"Multi-infarct dementia with delirium (disorder)","userSelected":true}]},"subject":{"reference":"Patient/16cffb87-15ea-48b7-bd68-f211f48d6f19"},"recordedDate":"2026-04-09T08:00:00.000+00:00"},"request":{"method":"PUT","url":"Condition/5375b54d-31e8-4204-9164-a2dd2dca5b6f"}},{"fullUrl":"https://madie.cms.gov/Coverage/7af10311-26c5-4a17-a7bb-b4efa43f8664","resource":{"resourceType":"Coverage","id":"7af10311-26c5-4a17-a7bb-b4efa43f8664","meta":{"profile":["http://hl7.org/fhir/us/qicore/StructureDefinition/qicore-coverage"]},"status":"active","beneficiary":{"reference":"Patient/16cffb87-15ea-48b7-bd68-f211f48d6f19"},"payor":[{"reference":"Organization/18ca435c-cae6-4c34-8033-af717477f9fc"}]},"request":{"method":"PUT","url":"Coverage/7af10311-26c5-4a17-a7bb-b4efa43f8664"}},{"fullUrl":"https://madie.cms.gov/Organization/db7a8210-2701-4a68-90e2-2cf65b10233c","resource":{"resourceType":"Organization","id":"18ca435c-cae6-4c34-8033-af717477f9fc","meta":{"profile":["http://hl7.org/fhir/us/qicore/StructureDefinition/qicore-organization"]},"identifier":[{"use":"temp","system":"urn:oid:2.16.840.1.113883.4.4","value":"21-3259825"}],"active":true,"type":[{"coding":[{"system":"http://terminology.hl7.org/CodeSystem/organization-type","code":"pay","display":"Payer"}]}],"name":"Blue Cross Blue Shield of Texas","telecom":[{"system":"phone","value":"(+1) 972-766-6900"}],"address":[{"use":"billing","type":"postal","line":["P.O. Box 660044"],"city":"Dallas","state":"TX","postalCode":"75266-0044","country":"USA"}]},"request":{"method":"PUT","url":"Organization/18ca435c-cae6-4c34-8033-af717477f9fc"}},{"fullUrl":"https://madie.cms.gov/Practitioner/4260fc5e-fd4c-483f-b860-a3a8551a8f0a","resource":{"resourceType":"Practitioner","id":"4260fc5e-fd4c-483f-b860-a3a8551a8f0a","meta":{"profile":["http://hl7.org/fhir/us/qicore/StructureDefinition/qicore-practitioner"]},"identifier":[{"system":"http://hl7.org/fhir/sid/us-npi","value":"123456"}],"name":[{"family":"Evil","prefix":["Dr"]}]},"request":{"method":"PUT","url":"Practitioner/4260fc5e-fd4c-483f-b860-a3a8551a8f0a"}},{"fullUrl":"https://madie.cms.gov/MeasureReport/6144e078-0915-4578-ad35-4495abd0e064","resource":{"resourceType":"MeasureReport","id":"6144e078-0915-4578-ad35-4495abd0e064","meta":{"profile":["http://hl7.org/fhir/us/cqfmeasures/StructureDefinition/test-case-cqfm"]},"contained":[{"resourceType":"Parameters","id":"a5d83083-9f2c-497a-82c0-ffa61e5469e7-parameters","parameter":[{"name":"subject","valueString":"16cffb87-15ea-48b7-bd68-f211f48d6f19"}]}],"extension":[{"url":"http://hl7.org/fhir/us/cqfmeasures/StructureDefinition/cqfm-inputParameters","valueReference":{"reference":"#a5d83083-9f2c-497a-82c0-ffa61e5469e7-parameters"}},{"url":"http://hl7.org/fhir/us/cqfmeasures/StructureDefinition/cqfm-testCaseDescription","valueMarkdown":"Adult, age 18, ED enc last day of MP, LWBS with mental health diagnosis"}],"modifierExtension":[{"url":"http://hl7.org/fhir/us/cqfmeasures/StructureDefinition/cqfm-isTestCase","valueBoolean":true}],"status":"complete","type":"individual","measure":"https://madie.cms.gov/Measure/CMS1264ECCQREHQRFHIR","period":{"start":"2026-01-01","end":"2026-12-31"},"group":[{"population":[{"code":{"coding":[{"system":"http://terminology.hl7.org/CodeSystem/measure-population","code":"initial-population","display":"Initial Population"}]},"count":1},{"code":{"coding":[{"system":"http://terminology.hl7.org/CodeSystem/measure-population","code":"denominator","display":"Denominator"}]},"count":1},{"code":{"coding":[{"system":"http://terminology.hl7.org/CodeSystem/measure-population","code":"numerator","display":"Numerator"}]},"count":1}]}]},"request":{"method":"PUT","url":"MeasureReport/6144e078-0915-4578-ad35-4495abd0e064"}}]}