{"resourceType":"Bundle","id":"tests-dfd5dc6b-3299-4e4f-ae02-45f251e1f75b-bundle","type":"transaction","entry":[{"fullUrl":"https://madie.cms.gov/Patient/dfd5dc6b-3299-4e4f-ae02-45f251e1f75b","resource":{"resourceType":"Patient","id":"dfd5dc6b-3299-4e4f-ae02-45f251e1f75b","meta":{"profile":["http://hl7.org/fhir/us/qicore/StructureDefinition/qicore-patient"]},"extension":[{"url":"http://hl7.org/fhir/us/core/StructureDefinition/us-core-race","extension":[{"url":"ombCategory","valueCoding":{"system":"urn:oid:2.16.840.1.113883.6.238","code":"1002-5","display":"American Indian or Alaska Native","userSelected":true}},{"url":"text","valueString":"American Indian or Alaska Native"}]},{"url":"http://hl7.org/fhir/us/core/StructureDefinition/us-core-ethnicity","extension":[{"url":"ombCategory","valueCoding":{"system":"urn:oid:2.16.840.1.113883.6.238","code":"2135-2","display":"Hispanic or Latino","userSelected":true}},{"url":"text","valueString":"Hispanic or Latino"}]}],"identifier":[{"type":{"coding":[{"system":"http://terminology.hl7.org/CodeSystem/v2-0203","code":"MR"}]},"system":"https://bonnie-fhir.healthit.gov/","value":"661476b015ed5841a5547ebf"}],"name":[{"family":"NUMEXStrat4Pass","given":["EDOBSOrderBoarded"]}],"gender":"male","birthDate":"2008-01-01"},"request":{"method":"PUT","url":"Patient/dfd5dc6b-3299-4e4f-ae02-45f251e1f75b"}},{"fullUrl":"https://madie.cms.gov/Encounter/31c259ff-5f4c-4dc8-875c-4b7194b4db67","resource":{"resourceType":"Encounter","id":"31c259ff-5f4c-4dc8-875c-4b7194b4db67","meta":{"profile":["http://hl7.org/fhir/us/qicore/StructureDefinition/qicore-encounter"]},"status":"finished","class":{"system":"http://terminology.hl7.org/CodeSystem/v3-ActCode","code":"EMER","display":"emergency department"},"type":[{"coding":[{"system":"http://snomed.info/sct","version":"2023-09","code":"4525004","display":"Emergency department patient visit (procedure)","userSelected":true}]}],"subject":{"reference":"Patient/dfd5dc6b-3299-4e4f-ae02-45f251e1f75b"},"period":{"start":"2026-01-01T00:00:00.000+00:00","end":"2026-01-01T06:00:00.000+00:00"},"diagnosis":[{"condition":{"reference":"Condition/5e1207c1-90ff-4b26-ae32-cd6f526fa030"},"use":{"coding":[{"system":"http://terminology.hl7.org/CodeSystem/diagnosis-role","code":"billing"}]},"rank":1}],"location":[{"location":{"reference":"Location/293b55b5-2bfc-49ed-a88d-2ca566704ca6"},"period":{"start":"2026-01-01T00:00:00.000+00:00","end":"2026-01-01T06:01:00.000+00:00"}}]},"request":{"method":"PUT","url":"Encounter/31c259ff-5f4c-4dc8-875c-4b7194b4db67"}},{"fullUrl":"https://madie.cms.gov/ServiceRequest/5a65946d-dc99-4526-b9e0-d2af71693934","resource":{"resourceType":"ServiceRequest","id":"5a65946d-dc99-4526-b9e0-d2af71693934","meta":{"profile":["http://hl7.org/fhir/us/qicore/StructureDefinition/qicore-servicerequest"]},"status":"completed","intent":"order","code":{"coding":[{"system":"http://snomed.info/sct","code":"19712007","display":"Patient transfer, to another health care facility (procedure)","userSelected":true}]},"subject":{"reference":"Patient/dfd5dc6b-3299-4e4f-ae02-45f251e1f75b"},"authoredOn":"2026-01-01T02:00:00.000+00:00"},"request":{"method":"PUT","url":"ServiceRequest/5a65946d-dc99-4526-b9e0-d2af71693934"}},{"fullUrl":"https://madie.cms.gov/Location/293b55b5-2bfc-49ed-a88d-2ca566704ca6","resource":{"resourceType":"Location","id":"293b55b5-2bfc-49ed-a88d-2ca566704ca6","meta":{"profile":["http://hl7.org/fhir/us/qicore/StructureDefinition/qicore-location"]},"identifier":[{"use":"usual","system":"http://exampleoflocation.com","value":"B1-S.F2"}],"name":"Emergency Department","type":[{"coding":[{"system":"https://www.cdc.gov/nhsn/cdaportal/terminology/codesystem/hsloc.html","version":"2022","code":"1108-0","display":"Emergency Department","userSelected":true}]}]},"request":{"method":"PUT","url":"Location/293b55b5-2bfc-49ed-a88d-2ca566704ca6"}},{"fullUrl":"https://madie.cms.gov/Coverage/fd905614-5aad-476c-a07c-9e6e1a653aef","resource":{"resourceType":"Coverage","id":"fd905614-5aad-476c-a07c-9e6e1a653aef","meta":{"profile":["http://hl7.org/fhir/us/qicore/StructureDefinition/qicore-coverage"]},"status":"active","beneficiary":{"reference":"Patient/dfd5dc6b-3299-4e4f-ae02-45f251e1f75b"},"payor":[{"reference":"Organization/3778262e-e084-4bb5-9a47-1a144735f786"}]},"request":{"method":"PUT","url":"Coverage/fd905614-5aad-476c-a07c-9e6e1a653aef"}},{"fullUrl":"https://madie.cms.gov/Condition/5e1207c1-90ff-4b26-ae32-cd6f526fa030","resource":{"resourceType":"Condition","id":"5e1207c1-90ff-4b26-ae32-cd6f526fa030","meta":{"profile":["http://hl7.org/fhir/us/qicore/StructureDefinition/qicore-condition"]},"category":[{"coding":[{"system":"http://terminology.hl7.org/CodeSystem/condition-category","code":"encounter-diagnosis","display":"Encounter Diagnosis"}]}],"code":{"coding":[{"system":"http://snomed.info/sct","version":"2023-09","code":"66344007","display":"Recurrent major depression (disorder)","userSelected":true}]},"subject":{"reference":"Patient/dfd5dc6b-3299-4e4f-ae02-45f251e1f75b"},"recordedDate":"2025-04-18T08:00:00.000+00:00"},"request":{"method":"PUT","url":"Condition/5e1207c1-90ff-4b26-ae32-cd6f526fa030"}},{"fullUrl":"https://madie.cms.gov/Coverage/133f2fbd-6ad8-4686-a1bc-3bb34e4c3b36","resource":{"resourceType":"Coverage","id":"133f2fbd-6ad8-4686-a1bc-3bb34e4c3b36","meta":{"profile":["http://hl7.org/fhir/us/qicore/StructureDefinition/qicore-coverage"]},"status":"active","beneficiary":{"reference":"Patient/dfd5dc6b-3299-4e4f-ae02-45f251e1f75b"},"payor":[{"reference":"Organization/3778262e-e084-4bb5-9a47-1a144735f786"}]},"request":{"method":"PUT","url":"Coverage/133f2fbd-6ad8-4686-a1bc-3bb34e4c3b36"}},{"fullUrl":"https://madie.cms.gov/ServiceRequest/61084c36-4b70-4f35-9fc3-f8e528e9f8f0","resource":{"resourceType":"ServiceRequest","id":"61084c36-4b70-4f35-9fc3-f8e528e9f8f0","meta":{"profile":["http://hl7.org/fhir/us/qicore/StructureDefinition/qicore-servicerequest"]},"status":"active","intent":"order","code":{"coding":[{"system":"http://www.ama-assn.org/go/cpt","version":"2024","code":"99221","display":"Initial hospital inpatient or observation care, per day, for the evaluation and management of a patient, which requires a medically appropriate history and/or examination and straightforward or low level medical decision making. When using total time on the date of the encounter for code selection, 40 minutes must be met or exceeded.","userSelected":true}]},"subject":{"reference":"Patient/dfd5dc6b-3299-4e4f-ae02-45f251e1f75b"},"authoredOn":"2026-01-01T02:00:00.000+00:00"},"request":{"method":"PUT","url":"ServiceRequest/61084c36-4b70-4f35-9fc3-f8e528e9f8f0"}},{"fullUrl":"https://madie.cms.gov/Organization/6d39b701-c078-4d90-be08-0368e8055ed2","resource":{"resourceType":"Organization","id":"3778262e-e084-4bb5-9a47-1a144735f786","meta":{"profile":["http://hl7.org/fhir/us/qicore/StructureDefinition/qicore-organization"]},"identifier":[{"use":"temp","system":"urn:oid:2.16.840.1.113883.4.4","value":"21-3259825"}],"active":true,"type":[{"coding":[{"system":"http://terminology.hl7.org/CodeSystem/organization-type","code":"pay","display":"Payer"}]}],"name":"Blue Cross Blue Shield of Texas","telecom":[{"system":"phone","value":"(+1) 972-766-6900"}],"address":[{"use":"billing","type":"postal","line":["P.O. Box 660044"],"city":"Dallas","state":"TX","postalCode":"75266-0044","country":"USA"}]},"request":{"method":"PUT","url":"Organization/3778262e-e084-4bb5-9a47-1a144735f786"}},{"fullUrl":"https://madie.cms.gov/Practitioner/941312fd-eeeb-4b97-aa05-b127baee3bce","resource":{"resourceType":"Practitioner","id":"941312fd-eeeb-4b97-aa05-b127baee3bce","meta":{"profile":["http://hl7.org/fhir/us/qicore/StructureDefinition/qicore-practitioner"]},"identifier":[{"system":"http://hl7.org/fhir/sid/us-npi","value":"123456"}],"name":[{"family":"Evil","prefix":["Dr"]}]},"request":{"method":"PUT","url":"Practitioner/941312fd-eeeb-4b97-aa05-b127baee3bce"}},{"fullUrl":"https://madie.cms.gov/MeasureReport/8506da89-5c76-4b4f-be8e-124866c6170f","resource":{"resourceType":"MeasureReport","id":"8506da89-5c76-4b4f-be8e-124866c6170f","meta":{"profile":["http://hl7.org/fhir/us/cqfmeasures/StructureDefinition/test-case-cqfm"]},"contained":[{"resourceType":"Parameters","id":"d4f33dab-49e8-444a-b98c-6f1e9384fcc9-parameters","parameter":[{"name":"subject","valueString":"dfd5dc6b-3299-4e4f-ae02-45f251e1f75b"}]}],"extension":[{"url":"http://hl7.org/fhir/us/cqfmeasures/StructureDefinition/cqfm-inputParameters","valueReference":{"reference":"#d4f33dab-49e8-444a-b98c-6f1e9384fcc9-parameters"}},{"url":"http://hl7.org/fhir/us/cqfmeasures/StructureDefinition/cqfm-testCaseDescription","valueMarkdown":"Adult, patient was boarded 6 hrs 1 min; Enc 8 hrs, enc departure 8 hrs 1 min. dx recurrent major depression"}],"modifierExtension":[{"url":"http://hl7.org/fhir/us/cqfmeasures/StructureDefinition/cqfm-isTestCase","valueBoolean":true}],"status":"complete","type":"individual","measure":"https://madie.cms.gov/Measure/CMS1264ECCQREHQRFHIR","period":{"start":"2026-01-01","end":"2026-12-31"},"group":[{"population":[{"code":{"coding":[{"system":"http://terminology.hl7.org/CodeSystem/measure-population","code":"initial-population","display":"Initial Population"}]},"count":1},{"code":{"coding":[{"system":"http://terminology.hl7.org/CodeSystem/measure-population","code":"denominator","display":"Denominator"}]},"count":1},{"code":{"coding":[{"system":"http://terminology.hl7.org/CodeSystem/measure-population","code":"numerator","display":"Numerator"}]},"count":0}]}]},"request":{"method":"PUT","url":"MeasureReport/8506da89-5c76-4b4f-be8e-124866c6170f"}}]}