{"resourceType":"Bundle","id":"tests-d8832769-c838-4f1b-9c1e-fa4ed3a3efb9-bundle","type":"transaction","entry":[{"fullUrl":"https://madie.cms.gov/Patient/d8832769-c838-4f1b-9c1e-fa4ed3a3efb9","resource":{"resourceType":"Patient","id":"d8832769-c838-4f1b-9c1e-fa4ed3a3efb9","meta":{"profile":["http://hl7.org/fhir/us/qicore/StructureDefinition/qicore-patient"]},"extension":[{"url":"http://hl7.org/fhir/us/core/StructureDefinition/us-core-race","extension":[{"url":"ombCategory","valueCoding":{"system":"urn:oid:2.16.840.1.113883.6.238","code":"1002-5","display":"American Indian or Alaska Native","userSelected":true}},{"url":"text","valueString":"American Indian or Alaska Native"}]},{"url":"http://hl7.org/fhir/us/core/StructureDefinition/us-core-ethnicity","extension":[{"url":"ombCategory","valueCoding":{"system":"urn:oid:2.16.840.1.113883.6.238","code":"2135-2","display":"Hispanic or Latino","userSelected":true}},{"url":"text","valueString":"Hispanic or Latino"}]}],"identifier":[{"type":{"coding":[{"system":"http://terminology.hl7.org/CodeSystem/v2-0203","code":"MR"}]},"system":"https://bonnie-fhir.healthit.gov/","value":"661476b015ed5841a5547ebf"}],"name":[{"family":"NUMERStrat3Pass","given":["EDObsBoarded"]}],"gender":"male","birthDate":"2009-01-01"},"request":{"method":"PUT","url":"Patient/d8832769-c838-4f1b-9c1e-fa4ed3a3efb9"}},{"fullUrl":"https://madie.cms.gov/Encounter/3599569d-d96e-452f-9d78-33edc111eb84","resource":{"resourceType":"Encounter","id":"3599569d-d96e-452f-9d78-33edc111eb84","meta":{"profile":["http://hl7.org/fhir/us/qicore/StructureDefinition/qicore-encounter"]},"status":"finished","class":{"system":"http://terminology.hl7.org/CodeSystem/v3-ActCode","code":"EMER","display":"emergency department"},"type":[{"coding":[{"system":"http://snomed.info/sct","version":"2023-09","code":"4525004","display":"Emergency department patient visit (procedure)","userSelected":true}]}],"subject":{"reference":"Patient/d8832769-c838-4f1b-9c1e-fa4ed3a3efb9"},"period":{"start":"2026-01-01T00:00:00.000+00:00","end":"2026-01-01T06:00:00.000+00:00"},"diagnosis":[{"condition":{"reference":"Condition/89dc69aa-9f7b-41ee-bfbf-0272b6c5a11c"},"use":{"coding":[{"system":"http://terminology.hl7.org/CodeSystem/diagnosis-role","code":"billing"}]},"rank":1}],"location":[{"location":{"reference":"Location/a804f6f1-c643-461d-929d-91087701af57"},"period":{"start":"2026-01-01T00:00:00.000+00:00","end":"2026-01-01T06:01:00.000+00:00"}}]},"request":{"method":"PUT","url":"Encounter/3599569d-d96e-452f-9d78-33edc111eb84"}},{"fullUrl":"https://madie.cms.gov/ServiceRequest/bcca9aed-4027-4b68-9258-3b157d840a4b","resource":{"resourceType":"ServiceRequest","id":"bcca9aed-4027-4b68-9258-3b157d840a4b","meta":{"profile":["http://hl7.org/fhir/us/qicore/StructureDefinition/qicore-servicerequest"]},"status":"completed","intent":"order","code":{"coding":[{"system":"http://snomed.info/sct","code":"448551000124100","display":"Patient transfer to another hospital (procedure)","userSelected":true}]},"subject":{"reference":"Patient/d8832769-c838-4f1b-9c1e-fa4ed3a3efb9"},"authoredOn":"2026-01-01T02:00:00.000+00:00"},"request":{"method":"PUT","url":"ServiceRequest/bcca9aed-4027-4b68-9258-3b157d840a4b"}},{"fullUrl":"https://madie.cms.gov/Location/a804f6f1-c643-461d-929d-91087701af57","resource":{"resourceType":"Location","id":"a804f6f1-c643-461d-929d-91087701af57","meta":{"profile":["http://hl7.org/fhir/us/qicore/StructureDefinition/qicore-location"]},"identifier":[{"use":"usual","system":"http://exampleoflocation.com","value":"B1-S.F2"}],"name":"Emergency Department","type":[{"coding":[{"system":"https://www.cdc.gov/nhsn/cdaportal/terminology/codesystem/hsloc.html","version":"2022","code":"1108-0","display":"Emergency Department","userSelected":true}]}]},"request":{"method":"PUT","url":"Location/a804f6f1-c643-461d-929d-91087701af57"}},{"fullUrl":"https://madie.cms.gov/Coverage/17dcc861-f539-4240-b7df-ab59f8c045db","resource":{"resourceType":"Coverage","id":"17dcc861-f539-4240-b7df-ab59f8c045db","meta":{"profile":["http://hl7.org/fhir/us/qicore/StructureDefinition/qicore-coverage"]},"status":"active","beneficiary":{"reference":"Patient/d8832769-c838-4f1b-9c1e-fa4ed3a3efb9"},"payor":[{"reference":"Organization/4da248b0-6e59-49b7-b80e-338aa21d299f"}]},"request":{"method":"PUT","url":"Coverage/17dcc861-f539-4240-b7df-ab59f8c045db"}},{"fullUrl":"https://madie.cms.gov/Condition/89dc69aa-9f7b-41ee-bfbf-0272b6c5a11c","resource":{"resourceType":"Condition","id":"89dc69aa-9f7b-41ee-bfbf-0272b6c5a11c","meta":{"profile":["http://hl7.org/fhir/us/qicore/StructureDefinition/qicore-condition"]},"category":[{"coding":[{"system":"http://terminology.hl7.org/CodeSystem/condition-category","code":"encounter-diagnosis","display":"Encounter Diagnosis"}]}],"code":{"coding":[{"system":"http://snomed.info/sct","version":"2023-09","code":"10349009","display":"Multi-infarct dementia with delirium (disorder)","userSelected":true}]},"subject":{"reference":"Patient/d8832769-c838-4f1b-9c1e-fa4ed3a3efb9"},"recordedDate":"2026-01-01T08:00:00.000+00:00"},"request":{"method":"PUT","url":"Condition/89dc69aa-9f7b-41ee-bfbf-0272b6c5a11c"}},{"fullUrl":"https://madie.cms.gov/Encounter/29addd99-c1d4-4711-8ebe-a9279415aa9b","resource":{"resourceType":"Encounter","id":"29addd99-c1d4-4711-8ebe-a9279415aa9b","meta":{"profile":["http://hl7.org/fhir/us/qicore/StructureDefinition/qicore-encounter"]},"status":"finished","class":{"system":"http://terminology.hl7.org/CodeSystem/v3-ActCode","code":"EMER","display":"emergency"},"type":[{"coding":[{"system":"http://www.ama-assn.org/go/cpt","version":"2024","code":"99221","display":"Initial hospital inpatient or observation care, per day, for the evaluation and management of a patient, which requires a medically appropriate history and/or examination and straightforward or low level medical decision making. When using total time on the date of the encounter for code selection, 40 minutes must be met or exceeded.","userSelected":true}]}],"subject":{"reference":"Patient/d8832769-c838-4f1b-9c1e-fa4ed3a3efb9"},"period":{"start":"2026-01-01T01:01:00.000+00:00","end":"2026-01-01T05:59:00.000+00:00"}},"request":{"method":"PUT","url":"Encounter/29addd99-c1d4-4711-8ebe-a9279415aa9b"}},{"fullUrl":"https://madie.cms.gov/Organization/f8f0c47e-5172-4415-b481-0dac4fc8bb14","resource":{"resourceType":"Organization","id":"4da248b0-6e59-49b7-b80e-338aa21d299f","meta":{"profile":["http://hl7.org/fhir/us/qicore/StructureDefinition/qicore-organization"]},"identifier":[{"use":"temp","system":"urn:oid:2.16.840.1.113883.4.4","value":"21-3259825"}],"active":true,"type":[{"coding":[{"system":"http://terminology.hl7.org/CodeSystem/organization-type","code":"pay","display":"Payer"}]}],"name":"Blue Cross Blue Shield of Texas","telecom":[{"system":"phone","value":"(+1) 972-766-6900"}],"address":[{"use":"billing","type":"postal","line":["P.O. Box 660044"],"city":"Dallas","state":"TX","postalCode":"75266-0044","country":"USA"}]},"request":{"method":"PUT","url":"Organization/4da248b0-6e59-49b7-b80e-338aa21d299f"}},{"fullUrl":"https://madie.cms.gov/Practitioner/c7dcd711-7ff9-47d1-9dc5-30f2b9276904","resource":{"resourceType":"Practitioner","id":"c7dcd711-7ff9-47d1-9dc5-30f2b9276904","meta":{"profile":["http://hl7.org/fhir/us/qicore/StructureDefinition/qicore-practitioner"]},"identifier":[{"system":"http://hl7.org/fhir/sid/us-npi","value":"123456"}],"name":[{"family":"Evil","prefix":["Dr"]}]},"request":{"method":"PUT","url":"Practitioner/c7dcd711-7ff9-47d1-9dc5-30f2b9276904"}},{"fullUrl":"https://madie.cms.gov/MeasureReport/72940dda-99d8-4f9c-846f-be28a144cfc0","resource":{"resourceType":"MeasureReport","id":"72940dda-99d8-4f9c-846f-be28a144cfc0","meta":{"profile":["http://hl7.org/fhir/us/cqfmeasures/StructureDefinition/test-case-cqfm"]},"contained":[{"resourceType":"Parameters","id":"b553557e-8030-4282-8cd2-5d6027e01e20-parameters","parameter":[{"name":"subject","valueString":"d8832769-c838-4f1b-9c1e-fa4ed3a3efb9"}]}],"extension":[{"url":"http://hl7.org/fhir/us/cqfmeasures/StructureDefinition/cqfm-inputParameters","valueReference":{"reference":"#b553557e-8030-4282-8cd2-5d6027e01e20-parameters"}},{"url":"http://hl7.org/fhir/us/cqfmeasures/StructureDefinition/cqfm-testCaseDescription","valueMarkdown":"Child, ED observation during ED enc where patient was boarded 6 hrs 1 min; Enc 8 hrs, enc departure 8 hrs 1 min."}],"modifierExtension":[{"url":"http://hl7.org/fhir/us/cqfmeasures/StructureDefinition/cqfm-isTestCase","valueBoolean":true}],"status":"complete","type":"individual","measure":"https://madie.cms.gov/Measure/CMS1264ECCQREHQRFHIR","period":{"start":"2026-01-01","end":"2026-12-31"},"group":[{"population":[{"code":{"coding":[{"system":"http://terminology.hl7.org/CodeSystem/measure-population","code":"initial-population","display":"Initial Population"}]},"count":1},{"code":{"coding":[{"system":"http://terminology.hl7.org/CodeSystem/measure-population","code":"denominator","display":"Denominator"}]},"count":1},{"code":{"coding":[{"system":"http://terminology.hl7.org/CodeSystem/measure-population","code":"numerator","display":"Numerator"}]},"count":0}]}]},"request":{"method":"PUT","url":"MeasureReport/72940dda-99d8-4f9c-846f-be28a144cfc0"}}]}