{"resourceType":"Bundle","id":"tests-a42d4cc2-24ca-4637-889f-276bcdd1e7cf-bundle","type":"transaction","entry":[{"fullUrl":"https://madie.cms.gov/Patient/a42d4cc2-24ca-4637-889f-276bcdd1e7cf","resource":{"resourceType":"Patient","id":"a42d4cc2-24ca-4637-889f-276bcdd1e7cf","meta":{"profile":["http://hl7.org/fhir/us/qicore/StructureDefinition/qicore-patient"]},"extension":[{"url":"http://hl7.org/fhir/us/core/StructureDefinition/us-core-race","extension":[{"url":"ombCategory","valueCoding":{"system":"urn:oid:2.16.840.1.113883.6.238","code":"1002-5","display":"American Indian or Alaska Native","userSelected":true}},{"url":"text","valueString":"American Indian or Alaska Native"}]},{"url":"http://hl7.org/fhir/us/core/StructureDefinition/us-core-ethnicity","extension":[{"url":"ombCategory","valueCoding":{"system":"urn:oid:2.16.840.1.113883.6.238","code":"2135-2","display":"Hispanic or Latino","userSelected":true}},{"url":"text","valueString":"Hispanic or Latino"}]}],"identifier":[{"type":{"coding":[{"system":"http://terminology.hl7.org/CodeSystem/v2-0203","code":"MR"}]},"system":"https://bonnie-fhir.healthit.gov/","value":"661476b015ed5841a5547ebf"}],"name":[{"family":"NUMERStrat1Pass","given":["EDLOS481Minutes"]}],"gender":"male","birthDate":"2010-01-01"},"request":{"method":"PUT","url":"Patient/a42d4cc2-24ca-4637-889f-276bcdd1e7cf"}},{"fullUrl":"https://madie.cms.gov/Encounter/0edfdaca-547e-434d-afb1-6846a3c3d1f1","resource":{"resourceType":"Encounter","id":"0edfdaca-547e-434d-afb1-6846a3c3d1f1","meta":{"profile":["http://hl7.org/fhir/us/qicore/StructureDefinition/qicore-encounter"]},"status":"finished","class":{"system":"http://terminology.hl7.org/CodeSystem/v3-ActCode","code":"EMER","display":"emergency department"},"type":[{"coding":[{"system":"http://snomed.info/sct","version":"2023-09","code":"4525004","display":"Emergency department patient visit (procedure)","userSelected":true}]}],"subject":{"reference":"Patient/a42d4cc2-24ca-4637-889f-276bcdd1e7cf"},"period":{"start":"2026-01-01T06:00:00.000+00:00","end":"2026-01-01T14:01:00.000+00:00"},"diagnosis":[{"condition":{"reference":"Condition/87fe4780-30ab-419d-99b1-e59779d6b428"},"use":{"coding":[{"system":"http://terminology.hl7.org/CodeSystem/diagnosis-role","code":"billing"}]},"rank":1}],"location":[{"location":{"reference":"Location/c03c342c-eab9-4855-9bad-a7318c076a3d"},"period":{"start":"2026-01-01T06:00:00.000+00:00","end":"2026-01-01T14:01:00.000+00:00"}}]},"request":{"method":"PUT","url":"Encounter/0edfdaca-547e-434d-afb1-6846a3c3d1f1"}},{"fullUrl":"https://madie.cms.gov/Condition/87fe4780-30ab-419d-99b1-e59779d6b428","resource":{"resourceType":"Condition","id":"87fe4780-30ab-419d-99b1-e59779d6b428","meta":{"profile":["http://hl7.org/fhir/us/qicore/StructureDefinition/qicore-condition"]},"category":[{"coding":[{"system":"http://terminology.hl7.org/CodeSystem/condition-category","code":"encounter-diagnosis","display":"Encounter Diagnosis"}]}],"code":{"coding":[{"system":"http://snomed.info/sct","version":"2023-09","code":"10660471000119109","display":"Ulcer of left foot due to type 2 diabetes mellitus (disorder)","userSelected":true}]},"subject":{"reference":"Patient/a42d4cc2-24ca-4637-889f-276bcdd1e7cf"},"recordedDate":"2026-01-01T08:00:00.000+00:00"},"request":{"method":"PUT","url":"Condition/87fe4780-30ab-419d-99b1-e59779d6b428"}},{"fullUrl":"https://madie.cms.gov/Location/c03c342c-eab9-4855-9bad-a7318c076a3d","resource":{"resourceType":"Location","id":"c03c342c-eab9-4855-9bad-a7318c076a3d","meta":{"profile":["http://hl7.org/fhir/us/qicore/StructureDefinition/qicore-location"]},"identifier":[{"use":"usual","system":"http://exampleoflocation.com","value":"B1-S.F2"}],"name":"Emergency Department","type":[{"coding":[{"system":"https://www.cdc.gov/nhsn/cdaportal/terminology/codesystem/hsloc.html","version":"2022","code":"1108-0","display":"Emergency Department","userSelected":true}]}]},"request":{"method":"PUT","url":"Location/c03c342c-eab9-4855-9bad-a7318c076a3d"}},{"fullUrl":"https://madie.cms.gov/Coverage/bc2288b8-8524-45a1-8e6e-4a0a59b46ee5","resource":{"resourceType":"Coverage","id":"bc2288b8-8524-45a1-8e6e-4a0a59b46ee5","meta":{"profile":["http://hl7.org/fhir/us/qicore/StructureDefinition/qicore-coverage"]},"status":"active","beneficiary":{"reference":"Patient/a42d4cc2-24ca-4637-889f-276bcdd1e7cf"},"payor":[{"reference":"Organization/607fdef9-3983-4cef-ab1a-95434d29b463"}]},"request":{"method":"PUT","url":"Coverage/bc2288b8-8524-45a1-8e6e-4a0a59b46ee5"}},{"fullUrl":"https://madie.cms.gov/Organization/6ed3bac3-75b8-49c1-ae24-df5dbba26a42","resource":{"resourceType":"Organization","id":"607fdef9-3983-4cef-ab1a-95434d29b463","meta":{"profile":["http://hl7.org/fhir/us/qicore/StructureDefinition/qicore-organization"]},"identifier":[{"use":"temp","system":"urn:oid:2.16.840.1.113883.4.4","value":"21-3259825"}],"active":true,"type":[{"coding":[{"system":"http://terminology.hl7.org/CodeSystem/organization-type","code":"pay","display":"Payer"}]}],"name":"Blue Cross Blue Shield of Texas","telecom":[{"system":"phone","value":"(+1) 972-766-6900"}],"address":[{"use":"billing","type":"postal","line":["P.O. Box 660044"],"city":"Dallas","state":"TX","postalCode":"75266-0044","country":"USA"}]},"request":{"method":"PUT","url":"Organization/607fdef9-3983-4cef-ab1a-95434d29b463"}},{"fullUrl":"https://madie.cms.gov/Practitioner/bc691285-68b7-4a11-9ea6-60d9d87ddf5a","resource":{"resourceType":"Practitioner","id":"bc691285-68b7-4a11-9ea6-60d9d87ddf5a","meta":{"profile":["http://hl7.org/fhir/us/qicore/StructureDefinition/qicore-practitioner"]},"identifier":[{"system":"http://hl7.org/fhir/sid/us-npi","value":"123456"}],"name":[{"family":"Evil","prefix":["Dr"]}]},"request":{"method":"PUT","url":"Practitioner/bc691285-68b7-4a11-9ea6-60d9d87ddf5a"}},{"fullUrl":"https://madie.cms.gov/MeasureReport/692346b4-5cd8-4c03-9f7f-a119a914eb70","resource":{"resourceType":"MeasureReport","id":"692346b4-5cd8-4c03-9f7f-a119a914eb70","meta":{"profile":["http://hl7.org/fhir/us/cqfmeasures/StructureDefinition/test-case-cqfm"]},"contained":[{"resourceType":"Parameters","id":"018b6cb8-3455-444a-858e-a6e78a80163d-parameters","parameter":[{"name":"subject","valueString":"a42d4cc2-24ca-4637-889f-276bcdd1e7cf"}]}],"extension":[{"url":"http://hl7.org/fhir/us/cqfmeasures/StructureDefinition/cqfm-inputParameters","valueReference":{"reference":"#018b6cb8-3455-444a-858e-a6e78a80163d-parameters"}},{"url":"http://hl7.org/fhir/us/cqfmeasures/StructureDefinition/cqfm-testCaseDescription","valueMarkdown":"Child, age 17, ED enc first day of MP, LOS 481 minutes,"}],"modifierExtension":[{"url":"http://hl7.org/fhir/us/cqfmeasures/StructureDefinition/cqfm-isTestCase","valueBoolean":true}],"status":"complete","type":"individual","measure":"https://madie.cms.gov/Measure/CMS1264ECCQREHQRFHIR","period":{"start":"2026-01-01","end":"2026-12-31"},"group":[{"population":[{"code":{"coding":[{"system":"http://terminology.hl7.org/CodeSystem/measure-population","code":"initial-population","display":"Initial Population"}]},"count":1},{"code":{"coding":[{"system":"http://terminology.hl7.org/CodeSystem/measure-population","code":"denominator","display":"Denominator"}]},"count":1},{"code":{"coding":[{"system":"http://terminology.hl7.org/CodeSystem/measure-population","code":"numerator","display":"Numerator"}]},"count":1}]}]},"request":{"method":"PUT","url":"MeasureReport/692346b4-5cd8-4c03-9f7f-a119a914eb70"}}]}