{"resourceType":"Bundle","id":"tests-9bac5045-01af-4350-b54f-63ab17f3ba9f-bundle","type":"transaction","entry":[{"fullUrl":"https://madie.cms.gov/Patient/9bac5045-01af-4350-b54f-63ab17f3ba9f","resource":{"resourceType":"Patient","id":"9bac5045-01af-4350-b54f-63ab17f3ba9f","meta":{"profile":["http://hl7.org/fhir/us/qicore/StructureDefinition/qicore-patient"]},"extension":[{"url":"http://hl7.org/fhir/us/core/StructureDefinition/us-core-race","extension":[{"url":"ombCategory","valueCoding":{"system":"urn:oid:2.16.840.1.113883.6.238","code":"2076-8","display":"Native Hawaiian or Other Pacific Islander","userSelected":true}},{"url":"text","valueString":"Native Hawaiian or Other Pacific Islander"}]},{"url":"http://hl7.org/fhir/us/core/StructureDefinition/us-core-ethnicity","extension":[{"url":"ombCategory","valueCoding":{"system":"urn:oid:2.16.840.1.113883.6.238","code":"2186-5","display":"Not Hispanic or Latino","userSelected":true}},{"url":"text","valueString":"Not Hispanic or Latino"}]}],"identifier":[{"type":{"coding":[{"system":"http://terminology.hl7.org/CodeSystem/v2-0203","code":"MR"}]},"system":"https://bonnie-fhir.healthit.gov/","value":"661579e3db207d74c03b8a54"}],"name":[{"family":"NUMERStrat4Pass","given":["EncStartsAndEndsB4MP"]}],"gender":"female","birthDate":"2007-12-31"},"request":{"method":"PUT","url":"Patient/9bac5045-01af-4350-b54f-63ab17f3ba9f"}},{"fullUrl":"https://madie.cms.gov/Encounter/8806df52-16a6-4176-9559-c6c4950bc54e","resource":{"resourceType":"Encounter","id":"8806df52-16a6-4176-9559-c6c4950bc54e","meta":{"profile":["http://hl7.org/fhir/us/qicore/StructureDefinition/qicore-encounter"]},"status":"finished","class":{"system":"http://terminology.hl7.org/CodeSystem/v3-ActCode","code":"EMER","display":"emergency"},"type":[{"coding":[{"system":"http://snomed.info/sct","version":"2023-09","code":"4525004","display":"Emergency department patient visit (procedure)","userSelected":true}]}],"subject":{"reference":"Patient/9bac5045-01af-4350-b54f-63ab17f3ba9f"},"period":{"start":"2025-12-29T08:00:00.000+00:00","end":"2025-12-31T12:15:00.000+00:00"},"diagnosis":[{"condition":{"reference":"Condition/296adfe1-91c7-40e0-ad77-6da5e3b74609"},"use":{"coding":[{"system":"http://terminology.hl7.org/CodeSystem/diagnosis-role","code":"billing"}]},"rank":1}],"location":[{"location":{"reference":"Location/dceec54a-0d92-42c8-af27-6e910dc63477"},"period":{"start":"2025-12-29T07:45:00.000+00:00","end":"2025-12-31T12:15:00.000+00:00"}},{"location":{"reference":"Location/a8bc47a6-eef8-462c-8788-ca6a4c2c4e24"},"period":{"start":"2025-12-29T09:01:00.000+00:00","end":"2026-12-31T12:15:00.000+00:00"}}]},"request":{"method":"PUT","url":"Encounter/8806df52-16a6-4176-9559-c6c4950bc54e"}},{"fullUrl":"https://madie.cms.gov/Location/dceec54a-0d92-42c8-af27-6e910dc63477","resource":{"resourceType":"Location","id":"dceec54a-0d92-42c8-af27-6e910dc63477","meta":{"profile":["http://hl7.org/fhir/us/qicore/StructureDefinition/qicore-location"]},"identifier":[{"use":"usual","system":"http://exampleoflocation.com","value":"B1-S.F1"}],"name":"Emergency Department","type":[{"coding":[{"system":"https://www.cdc.gov/nhsn/cdaportal/terminology/codesystem/hsloc.html","version":"2022","code":"1108-0","display":"Emergency Department","userSelected":true}]}]},"request":{"method":"PUT","url":"Location/dceec54a-0d92-42c8-af27-6e910dc63477"}},{"fullUrl":"https://madie.cms.gov/Location/a8bc47a6-eef8-462c-8788-ca6a4c2c4e24","resource":{"resourceType":"Location","id":"a8bc47a6-eef8-462c-8788-ca6a4c2c4e24","meta":{"profile":["http://hl7.org/fhir/us/qicore/StructureDefinition/qicore-location"]},"identifier":[{"use":"usual","system":"http://exampleoflocation.com","value":"B1-S.F2"}],"name":"Emergency Department","type":[{"coding":[{"system":"https://www.cdc.gov/nhsn/cdaportal/terminology/codesystem/hsloc.html","version":"2022","code":"1209-6","display":"Treatment Room","userSelected":true}]}]},"request":{"method":"PUT","url":"Location/a8bc47a6-eef8-462c-8788-ca6a4c2c4e24"}},{"fullUrl":"https://madie.cms.gov/Condition/296adfe1-91c7-40e0-ad77-6da5e3b74609","resource":{"resourceType":"Condition","id":"296adfe1-91c7-40e0-ad77-6da5e3b74609","meta":{"profile":["http://hl7.org/fhir/us/qicore/StructureDefinition/qicore-condition"]},"category":[{"coding":[{"system":"http://terminology.hl7.org/CodeSystem/condition-category","code":"encounter-diagnosis","display":"Encounter Diagnosis"}]}],"code":{"coding":[{"system":"http://snomed.info/sct","version":"2023-09","code":"10349009","display":"Multi-infarct dementia with delirium (disorder)","userSelected":true}]},"subject":{"reference":"Patient/9bac5045-01af-4350-b54f-63ab17f3ba9f"},"recordedDate":"2026-04-09T08:00:00.000+00:00"},"request":{"method":"PUT","url":"Condition/296adfe1-91c7-40e0-ad77-6da5e3b74609"}},{"fullUrl":"https://madie.cms.gov/Location/71f9ebb6-78d7-48bc-9935-859d492ae7e4","resource":{"resourceType":"Location","id":"71f9ebb6-78d7-48bc-9935-859d492ae7e4","meta":{"profile":["http://hl7.org/fhir/us/qicore/StructureDefinition/qicore-location"]},"identifier":[{"use":"usual","system":"http://exampleoflocation.com","value":"B1-S.F2"}],"name":"Medical Surgical East, first floor","type":[{"coding":[{"system":"https://www.cdc.gov/nhsn/cdaportal/terminology/codesystem/hsloc.html","version":"2022","code":"1108-0","display":"Emergency Department","userSelected":true}]}]},"request":{"method":"PUT","url":"Location/71f9ebb6-78d7-48bc-9935-859d492ae7e4"}},{"fullUrl":"https://madie.cms.gov/Location/01f8f8a7-cb16-4345-8ec9-c814b49222db","resource":{"resourceType":"Location","id":"01f8f8a7-cb16-4345-8ec9-c814b49222db","meta":{"profile":["http://hl7.org/fhir/us/qicore/StructureDefinition/qicore-location"]},"identifier":[{"use":"usual","system":"http://exampleoflocation.com","value":"B1-S.F2"}],"name":"Emergency Department","type":[{"coding":[{"system":"https://www.cdc.gov/nhsn/cdaportal/terminology/codesystem/hsloc.html","version":"2022","code":"1209-6","display":"Treatment Room"}]}]},"request":{"method":"PUT","url":"Location/01f8f8a7-cb16-4345-8ec9-c814b49222db"}},{"fullUrl":"https://madie.cms.gov/Coverage/9159fdde-3fb4-42a5-a7cf-55754c7e5473","resource":{"resourceType":"Coverage","id":"9159fdde-3fb4-42a5-a7cf-55754c7e5473","meta":{"profile":["http://hl7.org/fhir/us/qicore/StructureDefinition/qicore-coverage"]},"status":"active","beneficiary":{"reference":"Patient/9bac5045-01af-4350-b54f-63ab17f3ba9f"},"payor":[{"reference":"Organization/18ca435c-cae6-4c34-8033-af717477f9fc"}]},"request":{"method":"PUT","url":"Coverage/9159fdde-3fb4-42a5-a7cf-55754c7e5473"}},{"fullUrl":"https://madie.cms.gov/Organization/a4f7307b-5c63-4947-bf78-c41ddef45106","resource":{"resourceType":"Organization","id":"18ca435c-cae6-4c34-8033-af717477f9fc","meta":{"profile":["http://hl7.org/fhir/us/qicore/StructureDefinition/qicore-organization"]},"identifier":[{"use":"temp","system":"urn:oid:2.16.840.1.113883.4.4","value":"21-3259825"}],"active":true,"type":[{"coding":[{"system":"http://terminology.hl7.org/CodeSystem/organization-type","code":"pay","display":"Payer"}]}],"name":"Blue Cross Blue Shield of Texas","telecom":[{"system":"phone","value":"(+1) 972-766-6900"}],"address":[{"use":"billing","type":"postal","line":["P.O. Box 660044"],"city":"Dallas","state":"TX","postalCode":"75266-0044","country":"USA"}]},"request":{"method":"PUT","url":"Organization/18ca435c-cae6-4c34-8033-af717477f9fc"}},{"fullUrl":"https://madie.cms.gov/Practitioner/48650c8b-f75f-43ac-b8ee-701bdc65d888","resource":{"resourceType":"Practitioner","id":"48650c8b-f75f-43ac-b8ee-701bdc65d888","meta":{"profile":["http://hl7.org/fhir/us/qicore/StructureDefinition/qicore-practitioner"]},"identifier":[{"system":"http://hl7.org/fhir/sid/us-npi","value":"123456"}],"name":[{"family":"Evil","prefix":["Dr"]}]},"request":{"method":"PUT","url":"Practitioner/48650c8b-f75f-43ac-b8ee-701bdc65d888"}},{"fullUrl":"https://madie.cms.gov/MeasureReport/874df7f5-d707-4703-b902-d503d21547cf","resource":{"resourceType":"MeasureReport","id":"874df7f5-d707-4703-b902-d503d21547cf","meta":{"profile":["http://hl7.org/fhir/us/cqfmeasures/StructureDefinition/test-case-cqfm"]},"contained":[{"resourceType":"Parameters","id":"6c998a5c-62cc-409d-bedc-1fc1ad8c7c55-parameters","parameter":[{"name":"subject","valueString":"9bac5045-01af-4350-b54f-63ab17f3ba9f"}]}],"extension":[{"url":"http://hl7.org/fhir/us/cqfmeasures/StructureDefinition/cqfm-inputParameters","valueReference":{"reference":"#6c998a5c-62cc-409d-bedc-1fc1ad8c7c55-parameters"}},{"url":"http://hl7.org/fhir/us/cqfmeasures/StructureDefinition/cqfm-testCaseDescription","valueMarkdown":"12/29/20XX - 12/31/XX Enc starts and ends before MP. "}],"modifierExtension":[{"url":"http://hl7.org/fhir/us/cqfmeasures/StructureDefinition/cqfm-isTestCase","valueBoolean":true}],"status":"complete","type":"individual","measure":"https://madie.cms.gov/Measure/CMS1264ECCQREHQRFHIR","period":{"start":"2026-01-01","end":"2026-12-31"},"group":[{"population":[{"code":{"coding":[{"system":"http://terminology.hl7.org/CodeSystem/measure-population","code":"initial-population","display":"Initial Population"}]},"count":0},{"code":{"coding":[{"system":"http://terminology.hl7.org/CodeSystem/measure-population","code":"denominator","display":"Denominator"}]},"count":0},{"code":{"coding":[{"system":"http://terminology.hl7.org/CodeSystem/measure-population","code":"numerator","display":"Numerator"}]},"count":0}]}]},"request":{"method":"PUT","url":"MeasureReport/874df7f5-d707-4703-b902-d503d21547cf"}}]}