{"resourceType":"Bundle","id":"tests-dac89c3d-536e-4dca-9871-570a0bcd8d16-bundle","type":"transaction","entry":[{"fullUrl":"https://madie.cms.gov/Patient/dac89c3d-536e-4dca-9871-570a0bcd8d16","resource":{"resourceType":"Patient","id":"dac89c3d-536e-4dca-9871-570a0bcd8d16","meta":{"profile":["http://hl7.org/fhir/us/qicore/StructureDefinition/qicore-patient"]},"extension":[{"url":"http://hl7.org/fhir/us/core/StructureDefinition/us-core-race","extension":[{"url":"ombCategory","valueCoding":{"system":"urn:oid:2.16.840.1.113883.6.238","code":"1002-5","display":"American Indian or Alaska Native","userSelected":true}},{"url":"text","valueString":"American Indian or Alaska Native"}]},{"url":"http://hl7.org/fhir/us/core/StructureDefinition/us-core-ethnicity","extension":[{"url":"ombCategory","valueCoding":{"system":"urn:oid:2.16.840.1.113883.6.238","code":"2135-2","display":"Hispanic or Latino","userSelected":true}},{"url":"text","valueString":"Hispanic or Latino"}]}],"identifier":[{"type":{"coding":[{"system":"http://terminology.hl7.org/CodeSystem/v2-0203","code":"MR"}]},"system":"https://bonnie-fhir.healthit.gov/","value":"661476b015ed5841a5547ebf"}],"name":[{"family":"NUMERStrat1Pass","given":["MultipleEncGreaterThan240Min"]}],"gender":"male","birthDate":"2010-01-01"},"request":{"method":"PUT","url":"Patient/dac89c3d-536e-4dca-9871-570a0bcd8d16"}},{"fullUrl":"https://madie.cms.gov/Encounter/dcf04770-d600-4a58-b3ec-7eab688ce351","resource":{"resourceType":"Encounter","id":"dcf04770-d600-4a58-b3ec-7eab688ce351","meta":{"profile":["http://hl7.org/fhir/us/qicore/StructureDefinition/qicore-encounter"]},"status":"finished","class":{"system":"http://terminology.hl7.org/CodeSystem/v3-ActCode","code":"EMER","display":"emergency department"},"type":[{"coding":[{"system":"http://snomed.info/sct","version":"2023-09","code":"4525004","display":"Emergency department patient visit (procedure)","userSelected":true}]}],"subject":{"reference":"Patient/dac89c3d-536e-4dca-9871-570a0bcd8d16"},"period":{"start":"2026-01-01T06:00:00.000+00:00","end":"2026-01-01T14:01:00.000+00:00"},"diagnosis":[{"condition":{"reference":"Condition/5effd310-d6a3-4cc6-a4c5-32ea79adfb45"},"use":{"coding":[{"system":"http://terminology.hl7.org/CodeSystem/diagnosis-role","code":"billing"}]},"rank":1}],"location":[{"location":{"reference":"Location/1db48822-fe23-44ef-ad09-0fb145ee719d"},"period":{"start":"2026-01-01T06:00:00.000+00:00","end":"2026-01-01T14:01:00.000+00:00"}}]},"request":{"method":"PUT","url":"Encounter/dcf04770-d600-4a58-b3ec-7eab688ce351"}},{"fullUrl":"https://madie.cms.gov/Encounter/f9b64c73-2b67-47d6-8863-73e4ab0668b3","resource":{"resourceType":"Encounter","id":"f9b64c73-2b67-47d6-8863-73e4ab0668b3","meta":{"profile":["http://hl7.org/fhir/us/qicore/StructureDefinition/qicore-encounter"]},"status":"finished","class":{"system":"http://terminology.hl7.org/CodeSystem/v3-ActCode","code":"EMER","display":"emergency department"},"type":[{"coding":[{"system":"http://snomed.info/sct","version":"2023-09","code":"4525004","display":"Emergency department patient visit (procedure)","userSelected":true}]}],"subject":{"reference":"Patient/dac89c3d-536e-4dca-9871-570a0bcd8d16"},"period":{"start":"2026-04-01T06:00:00.000+00:00","end":"2026-04-01T14:01:00.000+00:00"},"diagnosis":[{"condition":{"reference":"Condition/5effd310-d6a3-4cc6-a4c5-32ea79adfb45"},"use":{"coding":[{"system":"http://terminology.hl7.org/CodeSystem/diagnosis-role","code":"billing"}]},"rank":1}],"location":[{"location":{"reference":"Location/1db48822-fe23-44ef-ad09-0fb145ee719d"},"period":{"start":"2026-04-01T06:00:00.000+00:00","end":"2026-04-01T14:01:00.000+00:00"}}]},"request":{"method":"PUT","url":"Encounter/f9b64c73-2b67-47d6-8863-73e4ab0668b3"}},{"fullUrl":"https://madie.cms.gov/Condition/5effd310-d6a3-4cc6-a4c5-32ea79adfb45","resource":{"resourceType":"Condition","id":"5effd310-d6a3-4cc6-a4c5-32ea79adfb45","meta":{"profile":["http://hl7.org/fhir/us/qicore/StructureDefinition/qicore-condition"]},"category":[{"coding":[{"system":"http://terminology.hl7.org/CodeSystem/condition-category","code":"encounter-diagnosis","display":"Encounter Diagnosis"}]}],"code":{"coding":[{"system":"http://snomed.info/sct","version":"2023-09","code":"10660471000119109","display":"Ulcer of left foot due to type 2 diabetes mellitus (disorder)","userSelected":true}]},"subject":{"reference":"Patient/dac89c3d-536e-4dca-9871-570a0bcd8d16"},"recordedDate":"2026-01-01T08:00:00.000+00:00"},"request":{"method":"PUT","url":"Condition/5effd310-d6a3-4cc6-a4c5-32ea79adfb45"}},{"fullUrl":"https://madie.cms.gov/Location/1db48822-fe23-44ef-ad09-0fb145ee719d","resource":{"resourceType":"Location","id":"1db48822-fe23-44ef-ad09-0fb145ee719d","meta":{"profile":["http://hl7.org/fhir/us/qicore/StructureDefinition/qicore-location"]},"identifier":[{"use":"usual","system":"http://exampleoflocation.com","value":"B1-S.F2"}],"name":"Medical Surgical East, first floor","type":[{"coding":[{"system":"https://www.cdc.gov/nhsn/cdaportal/terminology/codesystem/hsloc.html","version":"2022","code":"1108-0","display":"Emergency Department","userSelected":true}]}]},"request":{"method":"PUT","url":"Location/1db48822-fe23-44ef-ad09-0fb145ee719d"}},{"fullUrl":"https://madie.cms.gov/Coverage/1cbda29c-4905-4e0e-911b-e4903046d1b1","resource":{"resourceType":"Coverage","id":"1cbda29c-4905-4e0e-911b-e4903046d1b1","meta":{"profile":["http://hl7.org/fhir/us/qicore/StructureDefinition/qicore-coverage"]},"status":"active","beneficiary":{"reference":"Patient/dac89c3d-536e-4dca-9871-570a0bcd8d16"},"payor":[{"reference":"Organization/3e899f33-84eb-4634-a770-a5a0bd7a80e7"}]},"request":{"method":"PUT","url":"Coverage/1cbda29c-4905-4e0e-911b-e4903046d1b1"}},{"fullUrl":"https://madie.cms.gov/Organization/915a82b1-b3fb-4eb1-bfee-3576edf2d776","resource":{"resourceType":"Organization","id":"3e899f33-84eb-4634-a770-a5a0bd7a80e7","meta":{"profile":["http://hl7.org/fhir/us/qicore/StructureDefinition/qicore-organization"]},"identifier":[{"use":"temp","system":"urn:oid:2.16.840.1.113883.4.4","value":"21-3259825"}],"active":true,"type":[{"coding":[{"system":"http://terminology.hl7.org/CodeSystem/organization-type","code":"pay","display":"Payer"}]}],"name":"Blue Cross Blue Shield of Texas","telecom":[{"system":"phone","value":"(+1) 972-766-6900"}],"address":[{"use":"billing","type":"postal","line":["P.O. Box 660044"],"city":"Dallas","state":"TX","postalCode":"75266-0044","country":"USA"}]},"request":{"method":"PUT","url":"Organization/3e899f33-84eb-4634-a770-a5a0bd7a80e7"}},{"fullUrl":"https://madie.cms.gov/Practitioner/70d43e82-a230-46e0-9fe7-e1d78adfed25","resource":{"resourceType":"Practitioner","id":"70d43e82-a230-46e0-9fe7-e1d78adfed25","meta":{"profile":["http://hl7.org/fhir/us/qicore/StructureDefinition/qicore-practitioner"]},"identifier":[{"system":"http://hl7.org/fhir/sid/us-npi","value":"123456"}],"name":[{"family":"Evil","prefix":["Dr"]}]},"request":{"method":"PUT","url":"Practitioner/70d43e82-a230-46e0-9fe7-e1d78adfed25"}},{"fullUrl":"https://madie.cms.gov/MeasureReport/c18a68f9-d197-427a-a5bb-ef73a67a0f99","resource":{"resourceType":"MeasureReport","id":"c18a68f9-d197-427a-a5bb-ef73a67a0f99","meta":{"profile":["http://hl7.org/fhir/us/cqfmeasures/StructureDefinition/test-case-cqfm"]},"contained":[{"resourceType":"Parameters","id":"be539a6d-6e07-4bb3-a964-9ca83e407591-parameters","parameter":[{"name":"subject","valueString":"dac89c3d-536e-4dca-9871-570a0bcd8d16"}]}],"extension":[{"url":"http://hl7.org/fhir/us/cqfmeasures/StructureDefinition/cqfm-inputParameters","valueReference":{"reference":"#be539a6d-6e07-4bb3-a964-9ca83e407591-parameters"}},{"url":"http://hl7.org/fhir/us/cqfmeasures/StructureDefinition/cqfm-testCaseDescription","valueMarkdown":"Encounter in Jan and Encounter in April, both greater than 240 minutes, both pass numerator. Adolescent, no mental health diagnosis."}],"modifierExtension":[{"url":"http://hl7.org/fhir/us/cqfmeasures/StructureDefinition/cqfm-isTestCase","valueBoolean":true}],"status":"complete","type":"individual","measure":"https://madie.cms.gov/Measure/CMS1264ECCQREHQRFHIR","period":{"start":"2026-01-01","end":"2026-12-31"},"group":[{"population":[{"code":{"coding":[{"system":"http://terminology.hl7.org/CodeSystem/measure-population","code":"initial-population","display":"Initial Population"}]},"count":2},{"code":{"coding":[{"system":"http://terminology.hl7.org/CodeSystem/measure-population","code":"denominator","display":"Denominator"}]},"count":2},{"code":{"coding":[{"system":"http://terminology.hl7.org/CodeSystem/measure-population","code":"numerator","display":"Numerator"}]},"count":2}]}]},"request":{"method":"PUT","url":"MeasureReport/c18a68f9-d197-427a-a5bb-ef73a67a0f99"}}]}