{"resourceType":"Bundle","id":"tests-63cea3d6-d2e0-4736-a035-87633ca960bd-bundle","type":"transaction","entry":[{"fullUrl":"https://madie.cms.gov/Patient/63cea3d6-d2e0-4736-a035-87633ca960bd","resource":{"resourceType":"Patient","id":"63cea3d6-d2e0-4736-a035-87633ca960bd","meta":{"profile":["http://hl7.org/fhir/us/qicore/StructureDefinition/qicore-patient"]},"extension":[{"url":"http://hl7.org/fhir/us/core/StructureDefinition/us-core-race","extension":[{"url":"ombCategory","valueCoding":{"system":"urn:oid:2.16.840.1.113883.6.238","code":"1002-5","display":"American Indian or Alaska Native","userSelected":true}},{"url":"text","valueString":"American Indian or Alaska Native"}]},{"url":"http://hl7.org/fhir/us/core/StructureDefinition/us-core-ethnicity","extension":[{"url":"ombCategory","valueCoding":{"system":"urn:oid:2.16.840.1.113883.6.238","code":"2135-2","display":"Hispanic or Latino","userSelected":true}},{"url":"text","valueString":"Hispanic or Latino"}]}],"identifier":[{"type":{"coding":[{"system":"http://terminology.hl7.org/CodeSystem/v2-0203","code":"MR"}]},"system":"https://bonnie-fhir.healthit.gov/","value":"661476b015ed5841a5547ebf"}],"name":[{"family":"NUMERStrat4Fail","given":["TransferredLessThan240Mins"]}],"gender":"male","birthDate":"2008-01-01"},"request":{"method":"PUT","url":"Patient/63cea3d6-d2e0-4736-a035-87633ca960bd"}},{"fullUrl":"https://madie.cms.gov/Encounter/fe46b257-ade1-4b7a-9d74-af838d81f2d3","resource":{"resourceType":"Encounter","id":"fe46b257-ade1-4b7a-9d74-af838d81f2d3","meta":{"profile":["http://hl7.org/fhir/us/qicore/StructureDefinition/qicore-encounter"]},"status":"finished","class":{"system":"http://terminology.hl7.org/CodeSystem/v3-ActCode","code":"EMER","display":"emergency department"},"type":[{"coding":[{"system":"http://snomed.info/sct","version":"2023-09","code":"4525004","display":"Emergency department patient visit (procedure)","userSelected":true}]}],"subject":{"reference":"Patient/63cea3d6-d2e0-4736-a035-87633ca960bd"},"period":{"start":"2026-01-01T00:00:00.000+00:00","end":"2026-01-01T04:00:00.000+00:00"},"diagnosis":[{"condition":{"reference":"Condition/33b94889-ee09-4009-9322-1fc0ddee7424"},"use":{"coding":[{"system":"http://terminology.hl7.org/CodeSystem/diagnosis-role","code":"billing"}]},"rank":1}],"location":[{"location":{"reference":"Location/115be303-6ba7-4476-85bb-0455c3fccc3b"},"period":{"start":"2026-01-01T00:00:00.000+00:00","end":"2026-01-01T04:00:00.000+00:00"}}]},"request":{"method":"PUT","url":"Encounter/fe46b257-ade1-4b7a-9d74-af838d81f2d3"}},{"fullUrl":"https://madie.cms.gov/ServiceRequest/ea84a1de-df24-4110-90c6-6b0f97e6017e","resource":{"resourceType":"ServiceRequest","id":"ea84a1de-df24-4110-90c6-6b0f97e6017e","meta":{"profile":["http://hl7.org/fhir/us/qicore/StructureDefinition/qicore-servicerequest"]},"status":"completed","intent":"order","code":{"coding":[{"system":"http://snomed.info/sct","code":"19712007","display":"Patient transfer, to another health care facility (procedure)","userSelected":true}]},"subject":{"reference":"Patient/63cea3d6-d2e0-4736-a035-87633ca960bd"},"authoredOn":"2026-01-01T00:00:00.000+00:00"},"request":{"method":"PUT","url":"ServiceRequest/ea84a1de-df24-4110-90c6-6b0f97e6017e"}},{"fullUrl":"https://madie.cms.gov/Location/115be303-6ba7-4476-85bb-0455c3fccc3b","resource":{"resourceType":"Location","id":"115be303-6ba7-4476-85bb-0455c3fccc3b","meta":{"profile":["http://hl7.org/fhir/us/qicore/StructureDefinition/qicore-location"]},"identifier":[{"use":"usual","system":"http://exampleoflocation.com","value":"B1-S.F2"}],"name":"Emergency Department","type":[{"coding":[{"system":"https://www.cdc.gov/nhsn/cdaportal/terminology/codesystem/hsloc.html","version":"2022","code":"1108-0","display":"Emergency Department","userSelected":true}]}]},"request":{"method":"PUT","url":"Location/115be303-6ba7-4476-85bb-0455c3fccc3b"}},{"fullUrl":"https://madie.cms.gov/Coverage/95d1583b-22ea-4876-9cdb-81e80550254c","resource":{"resourceType":"Coverage","id":"95d1583b-22ea-4876-9cdb-81e80550254c","meta":{"profile":["http://hl7.org/fhir/us/qicore/StructureDefinition/qicore-coverage"]},"status":"active","beneficiary":{"reference":"Patient/63cea3d6-d2e0-4736-a035-87633ca960bd"},"payor":[{"reference":"Organization/5ad6ea38-07e9-4482-9e1b-c09eee595be9"}]},"request":{"method":"PUT","url":"Coverage/95d1583b-22ea-4876-9cdb-81e80550254c"}},{"fullUrl":"https://madie.cms.gov/Condition/33b94889-ee09-4009-9322-1fc0ddee7424","resource":{"resourceType":"Condition","id":"33b94889-ee09-4009-9322-1fc0ddee7424","meta":{"profile":["http://hl7.org/fhir/us/qicore/StructureDefinition/qicore-condition"]},"category":[{"coding":[{"system":"http://terminology.hl7.org/CodeSystem/condition-category","code":"encounter-diagnosis","display":"Encounter Diagnosis"}]}],"code":{"coding":[{"system":"http://snomed.info/sct","version":"2023-09","code":"10349009","display":"Multi-infarct dementia with delirium (disorder)","userSelected":true}]},"subject":{"reference":"Patient/63cea3d6-d2e0-4736-a035-87633ca960bd"},"recordedDate":"2026-04-09T08:00:00.000+00:00"},"request":{"method":"PUT","url":"Condition/33b94889-ee09-4009-9322-1fc0ddee7424"}},{"fullUrl":"https://madie.cms.gov/Organization/a82158dd-f710-402d-b59f-39e558334541","resource":{"resourceType":"Organization","id":"5ad6ea38-07e9-4482-9e1b-c09eee595be9","meta":{"profile":["http://hl7.org/fhir/us/qicore/StructureDefinition/qicore-organization"]},"identifier":[{"use":"temp","system":"urn:oid:2.16.840.1.113883.4.4","value":"21-3259825"}],"active":true,"type":[{"coding":[{"system":"http://terminology.hl7.org/CodeSystem/organization-type","code":"pay","display":"Payer"}]}],"name":"Blue Cross Blue Shield of Texas","telecom":[{"system":"phone","value":"(+1) 972-766-6900"}],"address":[{"use":"billing","type":"postal","line":["P.O. Box 660044"],"city":"Dallas","state":"TX","postalCode":"75266-0044","country":"USA"}]},"request":{"method":"PUT","url":"Organization/5ad6ea38-07e9-4482-9e1b-c09eee595be9"}},{"fullUrl":"https://madie.cms.gov/Practitioner/51237ce8-3c08-4fca-8c3d-72e61d555847","resource":{"resourceType":"Practitioner","id":"51237ce8-3c08-4fca-8c3d-72e61d555847","meta":{"profile":["http://hl7.org/fhir/us/qicore/StructureDefinition/qicore-practitioner"]},"identifier":[{"system":"http://hl7.org/fhir/sid/us-npi","value":"123456"}],"name":[{"family":"Evil","prefix":["Dr"]}]},"request":{"method":"PUT","url":"Practitioner/51237ce8-3c08-4fca-8c3d-72e61d555847"}},{"fullUrl":"https://madie.cms.gov/MeasureReport/d23b53ff-dddc-4a8f-b4e4-3a5882678f97","resource":{"resourceType":"MeasureReport","id":"d23b53ff-dddc-4a8f-b4e4-3a5882678f97","meta":{"profile":["http://hl7.org/fhir/us/cqfmeasures/StructureDefinition/test-case-cqfm"]},"contained":[{"resourceType":"Parameters","id":"7f5c7479-e273-4a4e-be22-0462a77da77d-parameters","parameter":[{"name":"subject","valueString":"63cea3d6-d2e0-4736-a035-87633ca960bd"}]}],"extension":[{"url":"http://hl7.org/fhir/us/cqfmeasures/StructureDefinition/cqfm-inputParameters","valueReference":{"reference":"#7f5c7479-e273-4a4e-be22-0462a77da77d-parameters"}},{"url":"http://hl7.org/fhir/us/cqfmeasures/StructureDefinition/cqfm-testCaseDescription","valueMarkdown":"Enc 1st day of MP, in ED for 4 hours,  transferred at 0000, has mental health dx"}],"modifierExtension":[{"url":"http://hl7.org/fhir/us/cqfmeasures/StructureDefinition/cqfm-isTestCase","valueBoolean":true}],"status":"complete","type":"individual","measure":"https://madie.cms.gov/Measure/CMS1264ECCQREHQRFHIR","period":{"start":"2026-01-01","end":"2026-12-31"},"group":[{"population":[{"code":{"coding":[{"system":"http://terminology.hl7.org/CodeSystem/measure-population","code":"initial-population","display":"Initial Population"}]},"count":1},{"code":{"coding":[{"system":"http://terminology.hl7.org/CodeSystem/measure-population","code":"denominator","display":"Denominator"}]},"count":1},{"code":{"coding":[{"system":"http://terminology.hl7.org/CodeSystem/measure-population","code":"numerator","display":"Numerator"}]},"count":0}]}]},"request":{"method":"PUT","url":"MeasureReport/d23b53ff-dddc-4a8f-b4e4-3a5882678f97"}}]}