{"resourceType":"Bundle","id":"tests-5fb0b78c-ffd3-47c3-91a3-252bc4a70177-bundle","type":"transaction","entry":[{"fullUrl":"https://madie.cms.gov/Patient/5fb0b78c-ffd3-47c3-91a3-252bc4a70177","resource":{"resourceType":"Patient","id":"5fb0b78c-ffd3-47c3-91a3-252bc4a70177","meta":{"profile":["http://hl7.org/fhir/us/qicore/StructureDefinition/qicore-patient"]},"extension":[{"url":"http://hl7.org/fhir/us/core/StructureDefinition/us-core-race","extension":[{"url":"ombCategory","valueCoding":{"system":"urn:oid:2.16.840.1.113883.6.238","code":"1002-5","display":"American Indian or Alaska Native","userSelected":true}},{"url":"text","valueString":"American Indian or Alaska Native"}]},{"url":"http://hl7.org/fhir/us/core/StructureDefinition/us-core-ethnicity","extension":[{"url":"ombCategory","valueCoding":{"system":"urn:oid:2.16.840.1.113883.6.238","code":"2135-2","display":"Hispanic or Latino","userSelected":true}},{"url":"text","valueString":"Hispanic or Latino"}]}],"identifier":[{"type":{"coding":[{"system":"http://terminology.hl7.org/CodeSystem/v2-0203","code":"MR"}]},"system":"https://bonnie-fhir.healthit.gov/","value":"661476b015ed5841a5547ebf"}],"name":[{"family":"NUMERStrat2Pass","given":["EDObsBoarded"]}],"gender":"male","birthDate":"2007-01-01"},"request":{"method":"PUT","url":"Patient/5fb0b78c-ffd3-47c3-91a3-252bc4a70177"}},{"fullUrl":"https://madie.cms.gov/Encounter/e375823f-4192-44fe-aac0-2e74c6a8eac7","resource":{"resourceType":"Encounter","id":"e375823f-4192-44fe-aac0-2e74c6a8eac7","meta":{"profile":["http://hl7.org/fhir/us/qicore/StructureDefinition/qicore-encounter"]},"status":"finished","class":{"system":"http://terminology.hl7.org/CodeSystem/v3-ActCode","code":"EMER","display":"emergency department"},"type":[{"coding":[{"system":"http://snomed.info/sct","version":"2023-09","code":"4525004","display":"Emergency department patient visit (procedure)","userSelected":true}]}],"subject":{"reference":"Patient/5fb0b78c-ffd3-47c3-91a3-252bc4a70177"},"period":{"start":"2026-01-01T00:00:00.000+00:00","end":"2026-01-01T06:00:00.000+00:00"},"diagnosis":[{"condition":{"reference":"Condition/2e6ce513-902d-475d-95ca-2e6f4a04381e"},"use":{"coding":[{"system":"http://terminology.hl7.org/CodeSystem/diagnosis-role","code":"billing"}]},"rank":1}],"location":[{"location":{"reference":"Location/5980ad0d-58c9-4f56-b68c-ef0eeb8884c0"},"period":{"start":"2026-01-01T00:00:00.000+00:00","end":"2026-01-01T10:01:00.000+00:00"}}]},"request":{"method":"PUT","url":"Encounter/e375823f-4192-44fe-aac0-2e74c6a8eac7"}},{"fullUrl":"https://madie.cms.gov/ServiceRequest/24fdb115-2113-4ee0-ab87-7edd7096e766","resource":{"resourceType":"ServiceRequest","id":"24fdb115-2113-4ee0-ab87-7edd7096e766","meta":{"profile":["http://hl7.org/fhir/us/qicore/StructureDefinition/qicore-servicerequest"]},"status":"active","intent":"order","code":{"coding":[{"system":"http://snomed.info/sct","code":"19712007","display":"Patient transfer, to another health care facility (procedure)","userSelected":true}]},"subject":{"reference":"Patient/5fb0b78c-ffd3-47c3-91a3-252bc4a70177"},"authoredOn":"2026-01-01T02:00:00.000+00:00"},"request":{"method":"PUT","url":"ServiceRequest/24fdb115-2113-4ee0-ab87-7edd7096e766"}},{"fullUrl":"https://madie.cms.gov/Location/5980ad0d-58c9-4f56-b68c-ef0eeb8884c0","resource":{"resourceType":"Location","id":"5980ad0d-58c9-4f56-b68c-ef0eeb8884c0","meta":{"profile":["http://hl7.org/fhir/us/qicore/StructureDefinition/qicore-location"]},"identifier":[{"use":"usual","system":"http://exampleoflocation.com","value":"B1-S.F2"}],"name":"MEmergency Department","type":[{"coding":[{"system":"https://www.cdc.gov/nhsn/cdaportal/terminology/codesystem/hsloc.html","version":"2022","code":"1108-0","display":"Emergency Department","userSelected":true}]}]},"request":{"method":"PUT","url":"Location/5980ad0d-58c9-4f56-b68c-ef0eeb8884c0"}},{"fullUrl":"https://madie.cms.gov/Coverage/2627a7b8-efbe-43e2-aaab-16200af7a360","resource":{"resourceType":"Coverage","id":"2627a7b8-efbe-43e2-aaab-16200af7a360","meta":{"profile":["http://hl7.org/fhir/us/qicore/StructureDefinition/qicore-coverage"]},"status":"active","beneficiary":{"reference":"Patient/5fb0b78c-ffd3-47c3-91a3-252bc4a70177"},"payor":[{"reference":"Organization/5ad6ea38-07e9-4482-9e1b-c09eee595be9"}]},"request":{"method":"PUT","url":"Coverage/2627a7b8-efbe-43e2-aaab-16200af7a360"}},{"fullUrl":"https://madie.cms.gov/Condition/2e6ce513-902d-475d-95ca-2e6f4a04381e","resource":{"resourceType":"Condition","id":"2e6ce513-902d-475d-95ca-2e6f4a04381e","meta":{"profile":["http://hl7.org/fhir/us/qicore/StructureDefinition/qicore-condition"]},"category":[{"coding":[{"system":"http://terminology.hl7.org/CodeSystem/condition-category","code":"encounter-diagnosis","display":"Encounter Diagnosis"}]}],"code":{"coding":[{"system":"http://snomed.info/sct","version":"2023-09","code":"10674711000119105","display":"Acute severe exacerbation of asthma co-occurrent with allergic rhinitis (disorder)","userSelected":true}]},"subject":{"reference":"Patient/5fb0b78c-ffd3-47c3-91a3-252bc4a70177"},"recordedDate":"2026-01-01T08:00:00.000+00:00"},"request":{"method":"PUT","url":"Condition/2e6ce513-902d-475d-95ca-2e6f4a04381e"}},{"fullUrl":"https://madie.cms.gov/Encounter/42014b11-9318-40fb-8c5b-6f037e40b706","resource":{"resourceType":"Encounter","id":"42014b11-9318-40fb-8c5b-6f037e40b706","meta":{"profile":["http://hl7.org/fhir/us/qicore/StructureDefinition/qicore-encounter"]},"status":"finished","class":{"system":"http://terminology.hl7.org/CodeSystem/v3-ActCode","code":"EMER","display":"emergency"},"type":[{"coding":[{"system":"http://www.ama-assn.org/go/cpt","version":"2024","code":"99221","display":"Initial hospital inpatient or observation care, per day, for the evaluation and management of a patient, which requires a medically appropriate history and/or examination and straightforward or low level medical decision making. When using total time on the date of the encounter for code selection, 40 minutes must be met or exceeded.","userSelected":true}]}],"subject":{"reference":"Patient/5fb0b78c-ffd3-47c3-91a3-252bc4a70177"},"period":{"start":"2026-01-01T01:01:00.000+00:00","end":"2026-01-01T05:59:00.000+00:00"}},"request":{"method":"PUT","url":"Encounter/42014b11-9318-40fb-8c5b-6f037e40b706"}},{"fullUrl":"https://madie.cms.gov/Organization/152e19aa-c7ee-47de-9c83-82328125b16a","resource":{"resourceType":"Organization","id":"5ad6ea38-07e9-4482-9e1b-c09eee595be9","meta":{"profile":["http://hl7.org/fhir/us/qicore/StructureDefinition/qicore-organization"]},"identifier":[{"use":"temp","system":"urn:oid:2.16.840.1.113883.4.4","value":"21-3259825"}],"active":true,"type":[{"coding":[{"system":"http://terminology.hl7.org/CodeSystem/organization-type","code":"pay","display":"Payer"}]}],"name":"Blue Cross Blue Shield of Texas","telecom":[{"system":"phone","value":"(+1) 972-766-6900"}],"address":[{"use":"billing","type":"postal","line":["P.O. Box 660044"],"city":"Dallas","state":"TX","postalCode":"75266-0044","country":"USA"}]},"request":{"method":"PUT","url":"Organization/5ad6ea38-07e9-4482-9e1b-c09eee595be9"}},{"fullUrl":"https://madie.cms.gov/Practitioner/1081078a-8b31-4c9c-93ae-773eb82f54ce","resource":{"resourceType":"Practitioner","id":"1081078a-8b31-4c9c-93ae-773eb82f54ce","meta":{"profile":["http://hl7.org/fhir/us/qicore/StructureDefinition/qicore-practitioner"]},"identifier":[{"system":"http://hl7.org/fhir/sid/us-npi","value":"123456"}],"name":[{"family":"Evil","prefix":["Dr"]}]},"request":{"method":"PUT","url":"Practitioner/1081078a-8b31-4c9c-93ae-773eb82f54ce"}},{"fullUrl":"https://madie.cms.gov/MeasureReport/62556767-ca6f-4a17-a8ee-1d31c1fd0a6c","resource":{"resourceType":"MeasureReport","id":"62556767-ca6f-4a17-a8ee-1d31c1fd0a6c","meta":{"profile":["http://hl7.org/fhir/us/cqfmeasures/StructureDefinition/test-case-cqfm"]},"contained":[{"resourceType":"Parameters","id":"45f52a1e-2272-4751-96f0-cd175e9f9f64-parameters","parameter":[{"name":"subject","valueString":"5fb0b78c-ffd3-47c3-91a3-252bc4a70177"}]}],"extension":[{"url":"http://hl7.org/fhir/us/cqfmeasures/StructureDefinition/cqfm-inputParameters","valueReference":{"reference":"#45f52a1e-2272-4751-96f0-cd175e9f9f64-parameters"}},{"url":"http://hl7.org/fhir/us/cqfmeasures/StructureDefinition/cqfm-testCaseDescription","valueMarkdown":"Adult, ED observation during ED enc where patient was boarded 6 hrs 1 min; Enc 8 hrs, enc departure 8 hrs 1 min, asthma"}],"modifierExtension":[{"url":"http://hl7.org/fhir/us/cqfmeasures/StructureDefinition/cqfm-isTestCase","valueBoolean":true}],"status":"complete","type":"individual","measure":"https://madie.cms.gov/Measure/CMS1264ECCQREHQRFHIR","period":{"start":"2026-01-01","end":"2026-12-31"},"group":[{"population":[{"code":{"coding":[{"system":"http://terminology.hl7.org/CodeSystem/measure-population","code":"initial-population","display":"Initial Population"}]},"count":1},{"code":{"coding":[{"system":"http://terminology.hl7.org/CodeSystem/measure-population","code":"denominator","display":"Denominator"}]},"count":1},{"code":{"coding":[{"system":"http://terminology.hl7.org/CodeSystem/measure-population","code":"numerator","display":"Numerator"}]},"count":0}]}]},"request":{"method":"PUT","url":"MeasureReport/62556767-ca6f-4a17-a8ee-1d31c1fd0a6c"}}]}