{"resourceType":"Bundle","id":"tests-c3284314-fe9b-408a-9b26-a21830f84432-bundle","type":"transaction","entry":[{"fullUrl":"https://madie.cms.gov/Patient/c3284314-fe9b-408a-9b26-a21830f84432","resource":{"resourceType":"Patient","id":"c3284314-fe9b-408a-9b26-a21830f84432","meta":{"profile":["http://hl7.org/fhir/us/qicore/StructureDefinition/qicore-patient"]},"extension":[{"url":"http://hl7.org/fhir/us/core/StructureDefinition/us-core-race","extension":[{"url":"ombCategory","valueCoding":{"system":"urn:oid:2.16.840.1.113883.6.238","code":"1002-5","display":"American Indian or Alaska Native","userSelected":true}},{"url":"text","valueString":"American Indian or Alaska Native"}]},{"url":"http://hl7.org/fhir/us/core/StructureDefinition/us-core-ethnicity","extension":[{"url":"ombCategory","valueCoding":{"system":"urn:oid:2.16.840.1.113883.6.238","code":"2135-2","display":"Hispanic or Latino","userSelected":true}},{"url":"text","valueString":"Hispanic or Latino"}]}],"identifier":[{"type":{"coding":[{"system":"http://terminology.hl7.org/CodeSystem/v2-0203","code":"MR"}]},"system":"https://bonnie-fhir.healthit.gov/","value":"661476b015ed5841a5547ebf"}],"name":[{"family":"NUMERStrat3Pass","given":["EDObsBoarded"]}],"gender":"male","birthDate":"2009-01-01"},"request":{"method":"PUT","url":"Patient/c3284314-fe9b-408a-9b26-a21830f84432"}},{"fullUrl":"https://madie.cms.gov/Encounter/0b2edb84-506e-4015-931a-b2f74f8ddac7","resource":{"resourceType":"Encounter","id":"0b2edb84-506e-4015-931a-b2f74f8ddac7","meta":{"profile":["http://hl7.org/fhir/us/qicore/StructureDefinition/qicore-encounter"]},"status":"finished","class":{"system":"http://terminology.hl7.org/CodeSystem/v3-ActCode","code":"EMER","display":"emergency department"},"type":[{"coding":[{"system":"http://snomed.info/sct","version":"2023-09","code":"4525004","display":"Emergency department patient visit (procedure)","userSelected":true}]}],"subject":{"reference":"Patient/c3284314-fe9b-408a-9b26-a21830f84432"},"period":{"start":"2026-01-01T00:00:00.000+00:00","end":"2026-01-01T06:00:00.000+00:00"},"diagnosis":[{"condition":{"reference":"Condition/non-behavioral-health-diagnosis-without-substance-use-disorders-8a64"},"use":{"coding":[{"system":"http://terminology.hl7.org/CodeSystem/diagnosis-role","code":"billing"}]},"rank":1}],"location":[{"location":{"reference":"Location/54494a1b-ae7f-4a42-8d20-11eafbb0abaf"},"period":{"start":"2026-01-01T00:00:00.000+00:00","end":"2026-01-01T10:01:00.000+00:00"}}]},"request":{"method":"PUT","url":"Encounter/0b2edb84-506e-4015-931a-b2f74f8ddac7"}},{"fullUrl":"https://madie.cms.gov/ServiceRequest/ddfb53c0-f3fd-4541-8a16-7739070490d1","resource":{"resourceType":"ServiceRequest","id":"ddfb53c0-f3fd-4541-8a16-7739070490d1","meta":{"profile":["http://hl7.org/fhir/us/qicore/StructureDefinition/qicore-servicerequest"]},"status":"completed","intent":"order","code":{"coding":[{"system":"http://snomed.info/sct","code":"448551000124100","display":"Patient transfer to another hospital (procedure)","userSelected":true}]},"subject":{"reference":"Patient/c3284314-fe9b-408a-9b26-a21830f84432"},"authoredOn":"2026-01-01T02:00:00.000+00:00"},"request":{"method":"PUT","url":"ServiceRequest/ddfb53c0-f3fd-4541-8a16-7739070490d1"}},{"fullUrl":"https://madie.cms.gov/Location/54494a1b-ae7f-4a42-8d20-11eafbb0abaf","resource":{"resourceType":"Location","id":"54494a1b-ae7f-4a42-8d20-11eafbb0abaf","meta":{"profile":["http://hl7.org/fhir/us/qicore/StructureDefinition/qicore-location"]},"identifier":[{"use":"usual","system":"http://exampleoflocation.com","value":"B1-S.F2"}],"name":"Emergency Department","type":[{"coding":[{"system":"https://www.cdc.gov/nhsn/cdaportal/terminology/codesystem/hsloc.html","version":"2022","code":"1108-0","display":"Emergency Department","userSelected":true}]}]},"request":{"method":"PUT","url":"Location/54494a1b-ae7f-4a42-8d20-11eafbb0abaf"}},{"fullUrl":"https://madie.cms.gov/Coverage/53df4448-918c-41a2-92da-853c4cc83d99","resource":{"resourceType":"Coverage","id":"53df4448-918c-41a2-92da-853c4cc83d99","meta":{"profile":["http://hl7.org/fhir/us/qicore/StructureDefinition/qicore-coverage"]},"status":"active","beneficiary":{"reference":"Patient/c3284314-fe9b-408a-9b26-a21830f84432"},"payor":[{"reference":"Organization/db141f66-a1cc-407b-9e95-adac27adee14"}]},"request":{"method":"PUT","url":"Coverage/53df4448-918c-41a2-92da-853c4cc83d99"}},{"fullUrl":"https://madie.cms.gov/Condition/e84c89a3-19db-462d-9f13-1674ecbf8e6b","resource":{"resourceType":"Condition","id":"e84c89a3-19db-462d-9f13-1674ecbf8e6b","meta":{"profile":["http://hl7.org/fhir/us/qicore/StructureDefinition/qicore-condition"]},"category":[{"coding":[{"system":"http://terminology.hl7.org/CodeSystem/condition-category","code":"encounter-diagnosis","display":"Encounter Diagnosis"}]}],"code":{"coding":[{"system":"http://snomed.info/sct","version":"2023-09","code":"10674711000119105","display":"Acute severe exacerbation of asthma co-occurrent with allergic rhinitis (disorder)","userSelected":true}]},"subject":{"reference":"Patient/c3284314-fe9b-408a-9b26-a21830f84432"},"recordedDate":"2026-01-01T08:00:00.000+00:00"},"request":{"method":"PUT","url":"Condition/e84c89a3-19db-462d-9f13-1674ecbf8e6b"}},{"fullUrl":"https://madie.cms.gov/ServiceRequest/6f6eb1d1-5176-4f2a-9381-144d7d97911c","resource":{"resourceType":"ServiceRequest","id":"6f6eb1d1-5176-4f2a-9381-144d7d97911c","meta":{"profile":["http://hl7.org/fhir/us/qicore/StructureDefinition/qicore-servicerequest"]},"status":"active","intent":"order","code":{"coding":[{"system":"http://www.ama-assn.org/go/cpt","version":"2024","code":"99221","display":"Initial hospital inpatient or observation care, per day, for the evaluation and management of a patient, which requires a medically appropriate history and/or examination and straightforward or low level medical decision making. When using total time on the date of the encounter for code selection, 40 minutes must be met or exceeded.","userSelected":true}]},"subject":{"reference":"Patient/c3284314-fe9b-408a-9b26-a21830f84432"},"authoredOn":"2026-01-01T02:00:00.000+00:00"},"request":{"method":"PUT","url":"ServiceRequest/6f6eb1d1-5176-4f2a-9381-144d7d97911c"}},{"fullUrl":"https://madie.cms.gov/Organization/ed5fa982-059d-4557-b1b9-00c8647b4179","resource":{"resourceType":"Organization","id":"db141f66-a1cc-407b-9e95-adac27adee14","meta":{"profile":["http://hl7.org/fhir/us/qicore/StructureDefinition/qicore-organization"]},"identifier":[{"use":"temp","system":"urn:oid:2.16.840.1.113883.4.4","value":"21-3259825"}],"active":true,"type":[{"coding":[{"system":"http://terminology.hl7.org/CodeSystem/organization-type","code":"pay","display":"Payer"}]}],"name":"Blue Cross Blue Shield of Texas","telecom":[{"system":"phone","value":"(+1) 972-766-6900"}],"address":[{"use":"billing","type":"postal","line":["P.O. Box 660044"],"city":"Dallas","state":"TX","postalCode":"75266-0044","country":"USA"}]},"request":{"method":"PUT","url":"Organization/db141f66-a1cc-407b-9e95-adac27adee14"}},{"fullUrl":"https://madie.cms.gov/Practitioner/f6fac845-1430-4672-838a-5ecd14f5125e","resource":{"resourceType":"Practitioner","id":"f6fac845-1430-4672-838a-5ecd14f5125e","meta":{"profile":["http://hl7.org/fhir/us/qicore/StructureDefinition/qicore-practitioner"]},"identifier":[{"system":"http://hl7.org/fhir/sid/us-npi","value":"123456"}],"name":[{"family":"Evil","prefix":["Dr"]}]},"request":{"method":"PUT","url":"Practitioner/f6fac845-1430-4672-838a-5ecd14f5125e"}},{"fullUrl":"https://madie.cms.gov/MeasureReport/634b250f-1126-47e8-8641-4ecc6e6bad79","resource":{"resourceType":"MeasureReport","id":"634b250f-1126-47e8-8641-4ecc6e6bad79","meta":{"profile":["http://hl7.org/fhir/us/cqfmeasures/StructureDefinition/test-case-cqfm"]},"contained":[{"resourceType":"Parameters","id":"9efa123c-1279-4285-8412-73ad79d77359-parameters","parameter":[{"name":"subject","valueString":"c3284314-fe9b-408a-9b26-a21830f84432"}]}],"extension":[{"url":"http://hl7.org/fhir/us/cqfmeasures/StructureDefinition/cqfm-inputParameters","valueReference":{"reference":"#9efa123c-1279-4285-8412-73ad79d77359-parameters"}},{"url":"http://hl7.org/fhir/us/cqfmeasures/StructureDefinition/cqfm-testCaseDescription","valueMarkdown":"Child, ED observation order during ED enc where patient was boarded 6 hrs 1 min; Enc 8 hrs, enc departure 8 hrs 1 min. dx asthma "}],"modifierExtension":[{"url":"http://hl7.org/fhir/us/cqfmeasures/StructureDefinition/cqfm-isTestCase","valueBoolean":true}],"status":"complete","type":"individual","measure":"https://madie.cms.gov/Measure/CMS1264ECCQREHQRFHIR","period":{"start":"2026-01-01","end":"2026-12-31"},"group":[{"population":[{"code":{"coding":[{"system":"http://terminology.hl7.org/CodeSystem/measure-population","code":"initial-population","display":"Initial Population"}]},"count":1},{"code":{"coding":[{"system":"http://terminology.hl7.org/CodeSystem/measure-population","code":"denominator","display":"Denominator"}]},"count":1},{"code":{"coding":[{"system":"http://terminology.hl7.org/CodeSystem/measure-population","code":"numerator","display":"Numerator"}]},"count":0}]}]},"request":{"method":"PUT","url":"MeasureReport/634b250f-1126-47e8-8641-4ecc6e6bad79"}}]}