{"resourceType":"Bundle","id":"tests-666528ac-0d94-4b09-8e6c-c5930b7dd17c-bundle","type":"transaction","entry":[{"fullUrl":"https://madie.cms.gov/Patient/666528ac-0d94-4b09-8e6c-c5930b7dd17c","resource":{"resourceType":"Patient","id":"666528ac-0d94-4b09-8e6c-c5930b7dd17c","meta":{"profile":["http://hl7.org/fhir/us/qicore/StructureDefinition/qicore-patient"]},"extension":[{"url":"http://hl7.org/fhir/us/core/StructureDefinition/us-core-race","extension":[{"url":"ombCategory","valueCoding":{"system":"urn:oid:2.16.840.1.113883.6.238","code":"1002-5","display":"American Indian or Alaska Native","userSelected":true}},{"url":"text","valueString":"American Indian or Alaska Native"}]},{"url":"http://hl7.org/fhir/us/core/StructureDefinition/us-core-ethnicity","extension":[{"url":"ombCategory","valueCoding":{"system":"urn:oid:2.16.840.1.113883.6.238","code":"2135-2","display":"Hispanic or Latino","userSelected":true}},{"url":"text","valueString":"Hispanic or Latino"}]}],"identifier":[{"type":{"coding":[{"system":"http://terminology.hl7.org/CodeSystem/v2-0203","code":"MR"}]},"system":"https://bonnie-fhir.healthit.gov/","value":"661476b015ed5841a5547ebf"}],"name":[{"family":"NUMERStrat4Pass","given":["EDLOS481Minutes"]}],"gender":"male","birthDate":"2008-01-01"},"request":{"method":"PUT","url":"Patient/666528ac-0d94-4b09-8e6c-c5930b7dd17c"}},{"fullUrl":"https://madie.cms.gov/Encounter/798a015d-9093-4d4a-8cf9-c3f9caa7fbdd","resource":{"resourceType":"Encounter","id":"798a015d-9093-4d4a-8cf9-c3f9caa7fbdd","meta":{"profile":["http://hl7.org/fhir/us/qicore/StructureDefinition/qicore-encounter"]},"status":"finished","class":{"system":"http://terminology.hl7.org/CodeSystem/v3-ActCode","code":"EMER","display":"emergency department"},"type":[{"coding":[{"system":"http://snomed.info/sct","version":"2023-09","code":"4525004","display":"Emergency department patient visit (procedure)","userSelected":true}]}],"subject":{"reference":"Patient/666528ac-0d94-4b09-8e6c-c5930b7dd17c"},"period":{"start":"2026-01-01T00:00:00.000+00:00","end":"2026-01-01T08:00:00.000+00:00"},"diagnosis":[{"condition":{"reference":"Condition/8bef8e0f-8454-4f5c-903f-c55da106e897"},"use":{"coding":[{"system":"http://terminology.hl7.org/CodeSystem/diagnosis-role","code":"billing"}]},"rank":1}],"location":[{"location":{"reference":"Location/c511e01a-3f52-4496-a487-4fc7e69dd683"},"period":{"start":"2026-01-01T00:00:00.000+00:00","end":"2026-01-01T08:01:00.000+00:00"}}]},"request":{"method":"PUT","url":"Encounter/798a015d-9093-4d4a-8cf9-c3f9caa7fbdd"}},{"fullUrl":"https://madie.cms.gov/Location/c511e01a-3f52-4496-a487-4fc7e69dd683","resource":{"resourceType":"Location","id":"c511e01a-3f52-4496-a487-4fc7e69dd683","meta":{"profile":["http://hl7.org/fhir/us/qicore/StructureDefinition/qicore-location"]},"identifier":[{"use":"usual","system":"http://exampleoflocation.com","value":"B1-S.F2"}],"name":"Emergency Department","type":[{"coding":[{"system":"https://www.cdc.gov/nhsn/cdaportal/terminology/codesystem/hsloc.html","version":"2022","code":"1108-0","display":"Emergency Department","userSelected":true}]}]},"request":{"method":"PUT","url":"Location/c511e01a-3f52-4496-a487-4fc7e69dd683"}},{"fullUrl":"https://madie.cms.gov/Coverage/a0453ccd-d625-4873-aa6b-c695a9d758a9","resource":{"resourceType":"Coverage","id":"a0453ccd-d625-4873-aa6b-c695a9d758a9","meta":{"profile":["http://hl7.org/fhir/us/qicore/StructureDefinition/qicore-coverage"]},"status":"active","beneficiary":{"reference":"Patient/666528ac-0d94-4b09-8e6c-c5930b7dd17c"},"payor":[{"reference":"Organization/18ca435c-cae6-4c34-8033-af717477f9fc"}]},"request":{"method":"PUT","url":"Coverage/a0453ccd-d625-4873-aa6b-c695a9d758a9"}},{"fullUrl":"https://madie.cms.gov/Condition/8bef8e0f-8454-4f5c-903f-c55da106e897","resource":{"resourceType":"Condition","id":"8bef8e0f-8454-4f5c-903f-c55da106e897","meta":{"profile":["http://hl7.org/fhir/us/qicore/StructureDefinition/qicore-condition"]},"category":[{"coding":[{"system":"http://terminology.hl7.org/CodeSystem/condition-category","code":"encounter-diagnosis","display":"Encounter Diagnosis"}]}],"code":{"coding":[{"system":"http://snomed.info/sct","version":"2023-09","code":"10349009","display":"Multi-infarct dementia with delirium (disorder)","userSelected":true}]},"subject":{"reference":"Patient/666528ac-0d94-4b09-8e6c-c5930b7dd17c"},"recordedDate":"2026-04-09T08:00:00.000+00:00"},"request":{"method":"PUT","url":"Condition/8bef8e0f-8454-4f5c-903f-c55da106e897"}},{"fullUrl":"https://madie.cms.gov/Organization/b11fb934-6afa-4912-84e9-f22e3b80f6ab","resource":{"resourceType":"Organization","id":"18ca435c-cae6-4c34-8033-af717477f9fc","meta":{"profile":["http://hl7.org/fhir/us/qicore/StructureDefinition/qicore-organization"]},"identifier":[{"use":"temp","system":"urn:oid:2.16.840.1.113883.4.4","value":"21-3259825"}],"active":true,"type":[{"coding":[{"system":"http://terminology.hl7.org/CodeSystem/organization-type","code":"pay","display":"Payer"}]}],"name":"Blue Cross Blue Shield of Texas","telecom":[{"system":"phone","value":"(+1) 972-766-6900"}],"address":[{"use":"billing","type":"postal","line":["P.O. Box 660044"],"city":"Dallas","state":"TX","postalCode":"75266-0044","country":"USA"}]},"request":{"method":"PUT","url":"Organization/18ca435c-cae6-4c34-8033-af717477f9fc"}},{"fullUrl":"https://madie.cms.gov/Practitioner/e1ee08d1-7fd8-4810-85e2-7b048201f7d4","resource":{"resourceType":"Practitioner","id":"e1ee08d1-7fd8-4810-85e2-7b048201f7d4","meta":{"profile":["http://hl7.org/fhir/us/qicore/StructureDefinition/qicore-practitioner"]},"identifier":[{"system":"http://hl7.org/fhir/sid/us-npi","value":"123456"}],"name":[{"family":"Evil","prefix":["Dr"]}]},"request":{"method":"PUT","url":"Practitioner/e1ee08d1-7fd8-4810-85e2-7b048201f7d4"}},{"fullUrl":"https://madie.cms.gov/MeasureReport/1d385532-9709-4a3c-b386-21044efa8dc2","resource":{"resourceType":"MeasureReport","id":"1d385532-9709-4a3c-b386-21044efa8dc2","meta":{"profile":["http://hl7.org/fhir/us/cqfmeasures/StructureDefinition/test-case-cqfm"]},"contained":[{"resourceType":"Parameters","id":"1c680025-83eb-44b6-9bcf-0a1b46cbeedd-parameters","parameter":[{"name":"subject","valueString":"666528ac-0d94-4b09-8e6c-c5930b7dd17c"}]}],"extension":[{"url":"http://hl7.org/fhir/us/cqfmeasures/StructureDefinition/cqfm-inputParameters","valueReference":{"reference":"#1c680025-83eb-44b6-9bcf-0a1b46cbeedd-parameters"}},{"url":"http://hl7.org/fhir/us/cqfmeasures/StructureDefinition/cqfm-testCaseDescription","valueMarkdown":"Adult, age 18, ED enc first minute of MP, has a mental illness dx"}],"modifierExtension":[{"url":"http://hl7.org/fhir/us/cqfmeasures/StructureDefinition/cqfm-isTestCase","valueBoolean":true}],"status":"complete","type":"individual","measure":"https://madie.cms.gov/Measure/CMS1264ECCQREHQRFHIR","period":{"start":"2026-01-01","end":"2026-12-31"},"group":[{"population":[{"code":{"coding":[{"system":"http://terminology.hl7.org/CodeSystem/measure-population","code":"initial-population","display":"Initial Population"}]},"count":1},{"code":{"coding":[{"system":"http://terminology.hl7.org/CodeSystem/measure-population","code":"denominator","display":"Denominator"}]},"count":1},{"code":{"coding":[{"system":"http://terminology.hl7.org/CodeSystem/measure-population","code":"numerator","display":"Numerator"}]},"count":1}]}]},"request":{"method":"PUT","url":"MeasureReport/1d385532-9709-4a3c-b386-21044efa8dc2"}}]}