{"resourceType":"Bundle","id":"tests-9f77830b-ff7c-4060-bf38-295b215ab56d-bundle","type":"transaction","entry":[{"fullUrl":"https://madie.cms.gov/Patient/9f77830b-ff7c-4060-bf38-295b215ab56d","resource":{"resourceType":"Patient","id":"9f77830b-ff7c-4060-bf38-295b215ab56d","meta":{"profile":["http://hl7.org/fhir/us/qicore/StructureDefinition/qicore-patient"]},"extension":[{"url":"http://hl7.org/fhir/us/core/StructureDefinition/us-core-race","extension":[{"url":"ombCategory","valueCoding":{"system":"urn:oid:2.16.840.1.113883.6.238","code":"1002-5","display":"American Indian or Alaska Native","userSelected":true}},{"url":"text","valueString":"American Indian or Alaska Native"}]},{"url":"http://hl7.org/fhir/us/core/StructureDefinition/us-core-ethnicity","extension":[{"url":"ombCategory","valueCoding":{"system":"urn:oid:2.16.840.1.113883.6.238","code":"2135-2","display":"Hispanic or Latino","userSelected":true}},{"url":"text","valueString":"Hispanic or Latino"}]}],"identifier":[{"type":{"coding":[{"system":"http://terminology.hl7.org/CodeSystem/v2-0203","code":"MR"}]},"system":"https://bonnie-fhir.healthit.gov/","value":"661476b015ed5841a5547ebf"}],"name":[{"family":"NUMERStrat4Pass","given":["EDLOS481MinutesLastDayMP"]}],"gender":"male","birthDate":"2007-01-01"},"request":{"method":"PUT","url":"Patient/9f77830b-ff7c-4060-bf38-295b215ab56d"}},{"fullUrl":"https://madie.cms.gov/Encounter/4fd6f352-1250-40e0-9a6a-61c4e7d867b3","resource":{"resourceType":"Encounter","id":"4fd6f352-1250-40e0-9a6a-61c4e7d867b3","meta":{"profile":["http://hl7.org/fhir/us/qicore/StructureDefinition/qicore-encounter"]},"status":"finished","class":{"system":"http://terminology.hl7.org/CodeSystem/v3-ActCode","code":"EMER","display":"emergency department"},"type":[{"coding":[{"system":"http://snomed.info/sct","version":"2023-09","code":"4525004","display":"Emergency department patient visit (procedure)","userSelected":true}]}],"subject":{"reference":"Patient/9f77830b-ff7c-4060-bf38-295b215ab56d"},"period":{"start":"2026-12-31T06:00:00.000+00:00","end":"2026-12-31T14:01:00.000+00:00"},"diagnosis":[{"condition":{"reference":"Condition/7e97faad-815e-4bf9-b0f5-3b2ffea77293"},"use":{"coding":[{"system":"http://terminology.hl7.org/CodeSystem/diagnosis-role","code":"billing"}]},"rank":1}],"location":[{"location":{"reference":"Location/6c6ef234-7654-47e8-9fad-d3e348b29aff"},"period":{"start":"2026-12-31T06:00:00.000+00:00","end":"2026-12-31T14:01:00.000+00:00"}}]},"request":{"method":"PUT","url":"Encounter/4fd6f352-1250-40e0-9a6a-61c4e7d867b3"}},{"fullUrl":"https://madie.cms.gov/Location/6c6ef234-7654-47e8-9fad-d3e348b29aff","resource":{"resourceType":"Location","id":"6c6ef234-7654-47e8-9fad-d3e348b29aff","meta":{"profile":["http://hl7.org/fhir/us/qicore/StructureDefinition/qicore-location"]},"identifier":[{"use":"usual","system":"http://exampleoflocation.com","value":"B1-S.F2"}],"name":"Emergency Department","type":[{"coding":[{"system":"https://www.cdc.gov/nhsn/cdaportal/terminology/codesystem/hsloc.html","version":"2022","code":"1108-0","display":"Emergency Department","userSelected":true}]}]},"request":{"method":"PUT","url":"Location/6c6ef234-7654-47e8-9fad-d3e348b29aff"}},{"fullUrl":"https://madie.cms.gov/Condition/7e97faad-815e-4bf9-b0f5-3b2ffea77293","resource":{"resourceType":"Condition","id":"7e97faad-815e-4bf9-b0f5-3b2ffea77293","meta":{"profile":["http://hl7.org/fhir/us/qicore/StructureDefinition/qicore-condition"]},"category":[{"coding":[{"system":"http://terminology.hl7.org/CodeSystem/condition-category","code":"encounter-diagnosis","display":"Encounter Diagnosis"}]}],"code":{"coding":[{"system":"http://snomed.info/sct","version":"2023-09","code":"10349009","display":"Multi-infarct dementia with delirium (disorder)","userSelected":true}]},"subject":{"reference":"Patient/9f77830b-ff7c-4060-bf38-295b215ab56d"},"recordedDate":"2026-04-09T08:00:00.000+00:00"},"request":{"method":"PUT","url":"Condition/7e97faad-815e-4bf9-b0f5-3b2ffea77293"}},{"fullUrl":"https://madie.cms.gov/Coverage/2571303e-a9bf-4f55-879e-857adf9c22eb","resource":{"resourceType":"Coverage","id":"2571303e-a9bf-4f55-879e-857adf9c22eb","meta":{"profile":["http://hl7.org/fhir/us/qicore/StructureDefinition/qicore-coverage"]},"status":"active","beneficiary":{"reference":"Patient/9f77830b-ff7c-4060-bf38-295b215ab56d"},"payor":[{"reference":"Organization/3778262e-e084-4bb5-9a47-1a144735f786"}]},"request":{"method":"PUT","url":"Coverage/2571303e-a9bf-4f55-879e-857adf9c22eb"}},{"fullUrl":"https://madie.cms.gov/Organization/2485ef7b-e369-4e1b-938f-9596b2af6f88","resource":{"resourceType":"Organization","id":"3778262e-e084-4bb5-9a47-1a144735f786","meta":{"profile":["http://hl7.org/fhir/us/qicore/StructureDefinition/qicore-organization"]},"identifier":[{"use":"temp","system":"urn:oid:2.16.840.1.113883.4.4","value":"21-3259825"}],"active":true,"type":[{"coding":[{"system":"http://terminology.hl7.org/CodeSystem/organization-type","code":"pay","display":"Payer"}]}],"name":"Blue Cross Blue Shield of Texas","telecom":[{"system":"phone","value":"(+1) 972-766-6900"}],"address":[{"use":"billing","type":"postal","line":["P.O. Box 660044"],"city":"Dallas","state":"TX","postalCode":"75266-0044","country":"USA"}]},"request":{"method":"PUT","url":"Organization/3778262e-e084-4bb5-9a47-1a144735f786"}},{"fullUrl":"https://madie.cms.gov/Practitioner/53398922-89ed-4cf8-81c1-94b9726ad48a","resource":{"resourceType":"Practitioner","id":"53398922-89ed-4cf8-81c1-94b9726ad48a","meta":{"profile":["http://hl7.org/fhir/us/qicore/StructureDefinition/qicore-practitioner"]},"identifier":[{"system":"http://hl7.org/fhir/sid/us-npi","value":"123456"}],"name":[{"family":"Evil","prefix":["Dr"]}]},"request":{"method":"PUT","url":"Practitioner/53398922-89ed-4cf8-81c1-94b9726ad48a"}},{"fullUrl":"https://madie.cms.gov/MeasureReport/10f952e1-a885-4158-9529-b93db80a2c0e","resource":{"resourceType":"MeasureReport","id":"10f952e1-a885-4158-9529-b93db80a2c0e","meta":{"profile":["http://hl7.org/fhir/us/cqfmeasures/StructureDefinition/test-case-cqfm"]},"contained":[{"resourceType":"Parameters","id":"133c4cd3-79f6-4b20-996e-ba50dd188bd3-parameters","parameter":[{"name":"subject","valueString":"9f77830b-ff7c-4060-bf38-295b215ab56d"}]}],"extension":[{"url":"http://hl7.org/fhir/us/cqfmeasures/StructureDefinition/cqfm-inputParameters","valueReference":{"reference":"#133c4cd3-79f6-4b20-996e-ba50dd188bd3-parameters"}},{"url":"http://hl7.org/fhir/us/cqfmeasures/StructureDefinition/cqfm-testCaseDescription","valueMarkdown":"Adult, age 18, ED enc, LOS 481 minutes. last day MP, pt. mental health dx"}],"modifierExtension":[{"url":"http://hl7.org/fhir/us/cqfmeasures/StructureDefinition/cqfm-isTestCase","valueBoolean":true}],"status":"complete","type":"individual","measure":"https://madie.cms.gov/Measure/CMS1264ECCQREHQRFHIR","period":{"start":"2026-01-01","end":"2026-12-31"},"group":[{"population":[{"code":{"coding":[{"system":"http://terminology.hl7.org/CodeSystem/measure-population","code":"initial-population","display":"Initial Population"}]},"count":1},{"code":{"coding":[{"system":"http://terminology.hl7.org/CodeSystem/measure-population","code":"denominator","display":"Denominator"}]},"count":1},{"code":{"coding":[{"system":"http://terminology.hl7.org/CodeSystem/measure-population","code":"numerator","display":"Numerator"}]},"count":1}]}]},"request":{"method":"PUT","url":"MeasureReport/10f952e1-a885-4158-9529-b93db80a2c0e"}}]}