{"resourceType":"Bundle","id":"tests-8e43bc64-4242-494d-b47f-fdbbd3372bbe-bundle","type":"transaction","entry":[{"fullUrl":"https://madie.cms.gov/Patient/8e43bc64-4242-494d-b47f-fdbbd3372bbe","resource":{"resourceType":"Patient","id":"8e43bc64-4242-494d-b47f-fdbbd3372bbe","meta":{"profile":["http://hl7.org/fhir/us/qicore/StructureDefinition/qicore-patient"]},"extension":[{"url":"http://hl7.org/fhir/us/core/StructureDefinition/us-core-race","extension":[{"url":"ombCategory","valueCoding":{"system":"urn:oid:2.16.840.1.113883.6.238","code":"1002-5","display":"American Indian or Alaska Native","userSelected":true}},{"url":"text","valueString":"American Indian or Alaska Native"}]},{"url":"http://hl7.org/fhir/us/core/StructureDefinition/us-core-ethnicity","extension":[{"url":"ombCategory","valueCoding":{"system":"urn:oid:2.16.840.1.113883.6.238","code":"2135-2","display":"Hispanic or Latino","userSelected":true}},{"url":"text","valueString":"Hispanic or Latino"}]}],"identifier":[{"type":{"coding":[{"system":"http://terminology.hl7.org/CodeSystem/v2-0203","code":"MR"}]},"system":"https://bonnie-fhir.healthit.gov/","value":"661476b015ed5841a5547ebf"}],"name":[{"family":"NUMERStrat3Pass","given":["Boarded241MinOrderTransfer"]}],"gender":"male","birthDate":"2010-01-01"},"request":{"method":"PUT","url":"Patient/8e43bc64-4242-494d-b47f-fdbbd3372bbe"}},{"fullUrl":"https://madie.cms.gov/Encounter/e0d86766-7252-4b5f-a0aa-9c44280d4337","resource":{"resourceType":"Encounter","id":"e0d86766-7252-4b5f-a0aa-9c44280d4337","meta":{"profile":["http://hl7.org/fhir/us/qicore/StructureDefinition/qicore-encounter"]},"status":"finished","class":{"system":"http://terminology.hl7.org/CodeSystem/v3-ActCode","code":"EMER","display":"emergency department"},"type":[{"coding":[{"system":"http://snomed.info/sct","version":"2023-09","code":"4525004","display":"Emergency department patient visit (procedure)","userSelected":true}]}],"subject":{"reference":"Patient/8e43bc64-4242-494d-b47f-fdbbd3372bbe"},"period":{"start":"2026-01-01T19:50:00.000+00:00","end":"2026-01-01T19:58:00.000+00:00"},"diagnosis":[{"condition":{"reference":"Condition/36ad2008-6c1f-4786-899d-53b4201f72b5"},"use":{"coding":[{"system":"http://terminology.hl7.org/CodeSystem/diagnosis-role","code":"billing"}]},"rank":1}],"location":[{"location":{"reference":"Location/334fdbc0-2e17-456a-adbe-f90af97549d4"},"period":{"start":"2026-01-01T19:58:00.000+00:00","end":"2026-01-01T23:59:00.000+00:00"}}]},"request":{"method":"PUT","url":"Encounter/e0d86766-7252-4b5f-a0aa-9c44280d4337"}},{"fullUrl":"https://madie.cms.gov/ServiceRequest/9b03c85b-605a-4b81-b805-0dde5624c643","resource":{"resourceType":"ServiceRequest","id":"9b03c85b-605a-4b81-b805-0dde5624c643","meta":{"profile":["http://hl7.org/fhir/us/qicore/StructureDefinition/qicore-servicerequest"]},"status":"completed","intent":"order","code":{"coding":[{"system":"http://snomed.info/sct","code":"19712007","display":"Patient transfer, to another health care facility (procedure)","userSelected":true}]},"subject":{"reference":"Patient/8e43bc64-4242-494d-b47f-fdbbd3372bbe"},"authoredOn":"2026-01-01T19:58:00.000+00:00"},"request":{"method":"PUT","url":"ServiceRequest/9b03c85b-605a-4b81-b805-0dde5624c643"}},{"fullUrl":"https://madie.cms.gov/Location/334fdbc0-2e17-456a-adbe-f90af97549d4","resource":{"resourceType":"Location","id":"334fdbc0-2e17-456a-adbe-f90af97549d4","meta":{"profile":["http://hl7.org/fhir/us/qicore/StructureDefinition/qicore-location"]},"identifier":[{"use":"usual","system":"http://exampleoflocation.com","value":"B1-S.F2"}],"name":"Emergency Department","type":[{"coding":[{"system":"https://www.cdc.gov/nhsn/cdaportal/terminology/codesystem/hsloc.html","version":"2022","code":"1108-0","display":"Emergency Department","userSelected":true}]}]},"request":{"method":"PUT","url":"Location/334fdbc0-2e17-456a-adbe-f90af97549d4"}},{"fullUrl":"https://madie.cms.gov/Coverage/7ca49ffc-45d5-4a25-a0d5-359295184ca2","resource":{"resourceType":"Coverage","id":"7ca49ffc-45d5-4a25-a0d5-359295184ca2","meta":{"profile":["http://hl7.org/fhir/us/qicore/StructureDefinition/qicore-coverage"]},"status":"active","beneficiary":{"reference":"Patient/8e43bc64-4242-494d-b47f-fdbbd3372bbe"},"payor":[{"reference":"Organization/18ca435c-cae6-4c34-8033-af717477f9fc"}]},"request":{"method":"PUT","url":"Coverage/7ca49ffc-45d5-4a25-a0d5-359295184ca2"}},{"fullUrl":"https://madie.cms.gov/Condition/36ad2008-6c1f-4786-899d-53b4201f72b5","resource":{"resourceType":"Condition","id":"36ad2008-6c1f-4786-899d-53b4201f72b5","meta":{"profile":["http://hl7.org/fhir/us/qicore/StructureDefinition/qicore-condition"]},"category":[{"coding":[{"system":"http://terminology.hl7.org/CodeSystem/condition-category","code":"encounter-diagnosis","display":"Encounter Diagnosis"}]}],"code":{"coding":[{"system":"http://snomed.info/sct","version":"2023-09","code":"10349009","display":"Multi-infarct dementia with delirium (disorder)","userSelected":true}]},"subject":{"reference":"Patient/8e43bc64-4242-494d-b47f-fdbbd3372bbe"},"recordedDate":"2026-04-09T08:00:00.000+00:00"},"request":{"method":"PUT","url":"Condition/36ad2008-6c1f-4786-899d-53b4201f72b5"}},{"fullUrl":"https://madie.cms.gov/Organization/8f92c06d-6ed9-4c69-b220-c511b63ac0a8","resource":{"resourceType":"Organization","id":"18ca435c-cae6-4c34-8033-af717477f9fc","meta":{"profile":["http://hl7.org/fhir/us/qicore/StructureDefinition/qicore-organization"]},"identifier":[{"use":"temp","system":"urn:oid:2.16.840.1.113883.4.4","value":"21-3259825"}],"active":true,"type":[{"coding":[{"system":"http://terminology.hl7.org/CodeSystem/organization-type","code":"pay","display":"Payer"}]}],"name":"Blue Cross Blue Shield of Texas","telecom":[{"system":"phone","value":"(+1) 972-766-6900"}],"address":[{"use":"billing","type":"postal","line":["P.O. Box 660044"],"city":"Dallas","state":"TX","postalCode":"75266-0044","country":"USA"}]},"request":{"method":"PUT","url":"Organization/18ca435c-cae6-4c34-8033-af717477f9fc"}},{"fullUrl":"https://madie.cms.gov/Practitioner/4aa5dcee-a118-499a-9467-9316c3254bd4","resource":{"resourceType":"Practitioner","id":"4aa5dcee-a118-499a-9467-9316c3254bd4","meta":{"profile":["http://hl7.org/fhir/us/qicore/StructureDefinition/qicore-practitioner"]},"identifier":[{"system":"http://hl7.org/fhir/sid/us-npi","value":"123456"}],"name":[{"family":"Evil","prefix":["Dr"]}]},"request":{"method":"PUT","url":"Practitioner/4aa5dcee-a118-499a-9467-9316c3254bd4"}},{"fullUrl":"https://madie.cms.gov/MeasureReport/7b518275-a2e7-4477-9271-73e9ef02a07b","resource":{"resourceType":"MeasureReport","id":"7b518275-a2e7-4477-9271-73e9ef02a07b","meta":{"profile":["http://hl7.org/fhir/us/cqfmeasures/StructureDefinition/test-case-cqfm"]},"contained":[{"resourceType":"Parameters","id":"7717d9e2-2162-4dc2-aa6d-1bf30bc030e5-parameters","parameter":[{"name":"subject","valueString":"8e43bc64-4242-494d-b47f-fdbbd3372bbe"}]}],"extension":[{"url":"http://hl7.org/fhir/us/cqfmeasures/StructureDefinition/cqfm-inputParameters","valueReference":{"reference":"#7717d9e2-2162-4dc2-aa6d-1bf30bc030e5-parameters"}},{"url":"http://hl7.org/fhir/us/cqfmeasures/StructureDefinition/cqfm-testCaseDescription","valueMarkdown":"Child, age 17, ED enc, transfer order same time as start of ED, boarded 241 minutes (time from decision to transfer to departure)  boarded until last minute of day, mental illness"}],"modifierExtension":[{"url":"http://hl7.org/fhir/us/cqfmeasures/StructureDefinition/cqfm-isTestCase","valueBoolean":true}],"status":"complete","type":"individual","measure":"https://madie.cms.gov/Measure/CMS1264ECCQREHQRFHIR","period":{"start":"2026-01-01","end":"2026-12-31"},"group":[{"population":[{"code":{"coding":[{"system":"http://terminology.hl7.org/CodeSystem/measure-population","code":"initial-population","display":"Initial Population"}]},"count":1},{"code":{"coding":[{"system":"http://terminology.hl7.org/CodeSystem/measure-population","code":"denominator","display":"Denominator"}]},"count":1},{"code":{"coding":[{"system":"http://terminology.hl7.org/CodeSystem/measure-population","code":"numerator","display":"Numerator"}]},"count":1}]}]},"request":{"method":"PUT","url":"MeasureReport/7b518275-a2e7-4477-9271-73e9ef02a07b"}}]}