{"resourceType":"Bundle","id":"tests-eabe386d-5bca-4fdd-acb0-8228b4df83c0-bundle","type":"transaction","entry":[{"fullUrl":"https://madie.cms.gov/Patient/eabe386d-5bca-4fdd-acb0-8228b4df83c0","resource":{"resourceType":"Patient","id":"eabe386d-5bca-4fdd-acb0-8228b4df83c0","meta":{"profile":["http://hl7.org/fhir/us/qicore/StructureDefinition/qicore-patient"]},"extension":[{"url":"http://hl7.org/fhir/us/core/StructureDefinition/us-core-race","extension":[{"url":"ombCategory","valueCoding":{"system":"urn:oid:2.16.840.1.113883.6.238","code":"1002-5","display":"American Indian or Alaska Native","userSelected":true}},{"url":"text","valueString":"American Indian or Alaska Native"}]},{"url":"http://hl7.org/fhir/us/core/StructureDefinition/us-core-ethnicity","extension":[{"url":"ombCategory","valueCoding":{"system":"urn:oid:2.16.840.1.113883.6.238","code":"2135-2","display":"Hispanic or Latino","userSelected":true}},{"url":"text","valueString":"Hispanic or Latino"}]}],"identifier":[{"type":{"coding":[{"system":"http://terminology.hl7.org/CodeSystem/v2-0203","code":"MR"}]},"system":"https://bonnie-fhir.healthit.gov/","value":"661476b015ed5841a5547ebf"}],"name":[{"family":"DENOMFail","given":["EncDuringMP"]}],"gender":"male","birthDate":"2007-01-01"},"request":{"method":"PUT","url":"Patient/eabe386d-5bca-4fdd-acb0-8228b4df83c0"}},{"fullUrl":"https://madie.cms.gov/Encounter/14bbbf41-0bea-4aa4-b599-efb0a0de486b","resource":{"resourceType":"Encounter","id":"14bbbf41-0bea-4aa4-b599-efb0a0de486b","meta":{"profile":["http://hl7.org/fhir/us/qicore/StructureDefinition/qicore-encounter"]},"status":"finished","class":{"system":"http://terminology.hl7.org/CodeSystem/v3-ActCode","code":"EMER","display":"emergency department"},"type":[{"coding":[{"system":"http://snomed.info/sct","version":"2023-09","code":"4525004","display":"Emergency department patient visit (procedure)","userSelected":true}]}],"subject":{"reference":"Patient/eabe386d-5bca-4fdd-acb0-8228b4df83c0"},"period":{"start":"2026-01-01T19:58:00.000+00:00","end":"2026-01-01T23:59:00.000+00:00"},"diagnosis":[{"condition":{"reference":"Condition/b393da76-85b2-451a-bda0-5587162e28b1"},"use":{"coding":[{"system":"http://terminology.hl7.org/CodeSystem/diagnosis-role","code":"billing"}]},"rank":1}],"location":[{"location":{"reference":"Location/a882ef9a-29b0-4fb6-8a22-ed9ee3430927"},"period":{"start":"2026-01-01T00:01:00.000+00:00","end":"2026-01-01T02:59:00.000+00:00"}}]},"request":{"method":"PUT","url":"Encounter/14bbbf41-0bea-4aa4-b599-efb0a0de486b"}},{"fullUrl":"https://madie.cms.gov/ServiceRequest/c58b732f-ca15-45e5-b496-b3996aac9048","resource":{"resourceType":"ServiceRequest","id":"c58b732f-ca15-45e5-b496-b3996aac9048","meta":{"profile":["http://hl7.org/fhir/us/qicore/StructureDefinition/qicore-servicerequest"]},"status":"active","intent":"plan","code":{"coding":[{"system":"http://snomed.info/sct","version":"2023-09","code":"19951005","display":"Hospital admission, emergency, from emergency room, medical nature (procedure)","userSelected":true}]},"subject":{"reference":"Patient/eabe386d-5bca-4fdd-acb0-8228b4df83c0"},"authoredOn":"2026-01-01T01:58:00.000+00:00"},"request":{"method":"PUT","url":"ServiceRequest/c58b732f-ca15-45e5-b496-b3996aac9048"}},{"fullUrl":"https://madie.cms.gov/Location/a882ef9a-29b0-4fb6-8a22-ed9ee3430927","resource":{"resourceType":"Location","id":"a882ef9a-29b0-4fb6-8a22-ed9ee3430927","meta":{"profile":["http://hl7.org/fhir/us/qicore/StructureDefinition/qicore-location"]},"identifier":[{"use":"usual","system":"http://exampleoflocation.com","value":"B1-S.F2"}],"name":"Emergency Department","type":[{"coding":[{"system":"https://www.cdc.gov/nhsn/cdaportal/terminology/codesystem/hsloc.html","version":"2022","code":"1108-0","display":"Emergency Department","userSelected":true}]}]},"request":{"method":"PUT","url":"Location/a882ef9a-29b0-4fb6-8a22-ed9ee3430927"}},{"fullUrl":"https://madie.cms.gov/Coverage/cf05b591-71d2-4063-8d33-07a835431bd2","resource":{"resourceType":"Coverage","id":"cf05b591-71d2-4063-8d33-07a835431bd2","meta":{"profile":["http://hl7.org/fhir/us/qicore/StructureDefinition/qicore-coverage"]},"status":"active","beneficiary":{"reference":"Patient/eabe386d-5bca-4fdd-acb0-8228b4df83c0"},"payor":[{"reference":"Organization/3e899f33-84eb-4634-a770-a5a0bd7a80e7"}]},"request":{"method":"PUT","url":"Coverage/cf05b591-71d2-4063-8d33-07a835431bd2"}},{"fullUrl":"https://madie.cms.gov/Condition/b393da76-85b2-451a-bda0-5587162e28b1","resource":{"resourceType":"Condition","id":"b393da76-85b2-451a-bda0-5587162e28b1","meta":{"profile":["http://hl7.org/fhir/us/qicore/StructureDefinition/qicore-condition"]},"category":[{"coding":[{"system":"http://terminology.hl7.org/CodeSystem/condition-category","code":"encounter-diagnosis","display":"Encounter Diagnosis"}]}],"code":{"coding":[{"system":"http://snomed.info/sct","version":"2023-09","code":"10349009","display":"Multi-infarct dementia with delirium (disorder)","userSelected":true}]},"subject":{"reference":"Patient/eabe386d-5bca-4fdd-acb0-8228b4df83c0"},"recordedDate":"2026-04-09T08:00:00.000+00:00"},"request":{"method":"PUT","url":"Condition/b393da76-85b2-451a-bda0-5587162e28b1"}},{"fullUrl":"https://madie.cms.gov/Organization/bcddd7b5-ac80-4fa5-ab2d-584053555c54","resource":{"resourceType":"Organization","id":"3e899f33-84eb-4634-a770-a5a0bd7a80e7","meta":{"profile":["http://hl7.org/fhir/us/qicore/StructureDefinition/qicore-organization"]},"identifier":[{"use":"temp","system":"urn:oid:2.16.840.1.113883.4.4","value":"21-3259825"}],"active":true,"type":[{"coding":[{"system":"http://terminology.hl7.org/CodeSystem/organization-type","code":"pay","display":"Payer"}]}],"name":"Blue Cross Blue Shield of Texas","telecom":[{"system":"phone","value":"(+1) 972-766-6900"}],"address":[{"use":"billing","type":"postal","line":["P.O. Box 660044"],"city":"Dallas","state":"TX","postalCode":"75266-0044","country":"USA"}]},"request":{"method":"PUT","url":"Organization/3e899f33-84eb-4634-a770-a5a0bd7a80e7"}},{"fullUrl":"https://madie.cms.gov/Practitioner/e5d660e1-4050-4418-9393-32c1d426f30e","resource":{"resourceType":"Practitioner","id":"e5d660e1-4050-4418-9393-32c1d426f30e","meta":{"profile":["http://hl7.org/fhir/us/qicore/StructureDefinition/qicore-practitioner"]},"identifier":[{"system":"http://hl7.org/fhir/sid/us-npi","value":"123456"}],"name":[{"family":"Evil","prefix":["Dr"]}]},"request":{"method":"PUT","url":"Practitioner/e5d660e1-4050-4418-9393-32c1d426f30e"}},{"fullUrl":"https://madie.cms.gov/MeasureReport/b4b126c4-20e4-4f2a-ba7c-a4f2526d563e","resource":{"resourceType":"MeasureReport","id":"b4b126c4-20e4-4f2a-ba7c-a4f2526d563e","meta":{"profile":["http://hl7.org/fhir/us/cqfmeasures/StructureDefinition/test-case-cqfm"]},"contained":[{"resourceType":"Parameters","id":"c8fbf30f-931f-41ae-b433-0af78df94553-parameters","parameter":[{"name":"subject","valueString":"eabe386d-5bca-4fdd-acb0-8228b4df83c0"}]}],"extension":[{"url":"http://hl7.org/fhir/us/cqfmeasures/StructureDefinition/cqfm-inputParameters","valueReference":{"reference":"#c8fbf30f-931f-41ae-b433-0af78df94553-parameters"}},{"url":"http://hl7.org/fhir/us/cqfmeasures/StructureDefinition/cqfm-testCaseDescription","valueMarkdown":"Encounter first day, first minute of MP"}],"modifierExtension":[{"url":"http://hl7.org/fhir/us/cqfmeasures/StructureDefinition/cqfm-isTestCase","valueBoolean":true}],"status":"complete","type":"individual","measure":"https://madie.cms.gov/Measure/CMS1264ECCQREHQRFHIR","period":{"start":"2026-01-01","end":"2026-12-31"},"group":[{"population":[{"code":{"coding":[{"system":"http://terminology.hl7.org/CodeSystem/measure-population","code":"initial-population","display":"Initial Population"}]},"count":1},{"code":{"coding":[{"system":"http://terminology.hl7.org/CodeSystem/measure-population","code":"denominator","display":"Denominator"}]},"count":1},{"code":{"coding":[{"system":"http://terminology.hl7.org/CodeSystem/measure-population","code":"numerator","display":"Numerator"}]},"count":0}]}]},"request":{"method":"PUT","url":"MeasureReport/b4b126c4-20e4-4f2a-ba7c-a4f2526d563e"}}]}