{
  "resourceType": "Bundle",
  "id": "denomfail-invalidunits",
  "type": "transaction",
  "entry": [ {
    "fullUrl": "https://madie.cms.gov/Patient/f702444c-4d8c-43f3-a9d7-f420e10d6c4d",
    "resource": {
      "resourceType": "Patient",
      "id": "f702444c-4d8c-43f3-a9d7-f420e10d6c4d",
      "meta": {
        "profile": [ "http://hl7.org/fhir/us/core/StructureDefinition/us-core-patient", "http://hl7.org/fhir/us/qicore/StructureDefinition/qicore-patient" ]
      },
      "extension": [ {
        "url": "http://hl7.org/fhir/us/core/StructureDefinition/us-core-race",
        "extension": [ {
          "url": "ombCategory",
          "valueCoding": {
            "system": "urn:oid:2.16.840.1.113883.6.238",
            "code": "2028-9",
            "display": "Asian"
          }
        }, {
          "url": "text",
          "valueString": "Asian"
        } ]
      }, {
        "url": "http://hl7.org/fhir/us/core/StructureDefinition/us-core-ethnicity",
        "extension": [ {
          "url": "ombCategory",
          "valueCoding": {
            "system": "urn:oid:2.16.840.1.113883.6.238",
            "code": "2135-2",
            "display": "Hispanic or Latino"
          }
        }, {
          "url": "text",
          "valueString": "Hispanic or Latino"
        } ]
      } ],
      "identifier": [ {
        "system": "http://hospital.smarthealthit.org",
        "value": "999999995"
      } ],
      "name": [ {
        "family": "InvalidUnits",
        "given": [ "DENOMFail" ]
      } ],
      "gender": "female",
      "birthDate": "1984-06-12"
    },
    "request": {
      "method": "POST",
      "url": "Patient/f702444c-4d8c-43f3-a9d7-f420e10d6c4d"
    }
  }, {
    "fullUrl": "https://madie.cms.gov/Encounter/denomfail-invalidunits-1",
    "resource": {
      "resourceType": "Encounter",
      "id": "denomfail-invalidunits-1",
      "meta": {
        "profile": [ "http://hl7.org/fhir/us/qicore/StructureDefinition/qicore-encounter" ]
      },
      "status": "finished",
      "class": {
        "system": "http://terminology.hl7.org/CodeSystem/v3-ActCode",
        "code": "IMP",
        "display": "inpatient encounter"
      },
      "type": [ {
        "coding": [ {
          "system": "http://snomed.info/sct",
          "code": "183452005",
          "display": "Emergency hospital admission"
        } ]
      } ],
      "subject": {
        "reference": "Patient/f702444c-4d8c-43f3-a9d7-f420e10d6c4d"
      },
      "period": {
        "start": "2025-05-01T00:00:00.000Z",
        "end": "2025-05-03T01:00:00.000Z"
      }
    },
    "request": {
      "method": "POST",
      "url": "Encounter/denomfail-invalidunits-1"
    }
  }, {
    "fullUrl": "https://madie.cms.gov/Observation/denomfail-invalidunits-2",
    "resource": {
      "resourceType": "Observation",
      "id": "denomfail-invalidunits-2",
      "meta": {
        "profile": [ "http://hl7.org/fhir/us/qicore/StructureDefinition/qicore-observation" ]
      },
      "status": "final",
      "category": [ {
        "coding": [ {
          "system": "http://terminology.hl7.org/CodeSystem/observation-category",
          "code": "imaging",
          "display": "Imaging"
        } ]
      } ],
      "code": {
        "coding": [ {
          "system": "http://loinc.org",
          "code": "96914-7",
          "display": "CT dose and image quality category"
        } ],
        "text": "CT dose and image quality category"
      },
      "subject": {
        "reference": "Patient/f702444c-4d8c-43f3-a9d7-f420e10d6c4d"
      },
      "encounter": {
        "reference": "Encounter/denomfail-invalidunits-1"
      },
      "effectiveDateTime": "2025-05-02T00:00:00.000Z",
      "valueCodeableConcept": {
        "coding": [ {
          "system": "http://loinc.org",
          "code": "LA31752-1",
          "display": "Abdomen and Pelvis Low Dose"
        } ]
      },
      "component": [ {
        "code": {
          "coding": [ {
            "system": "http://loinc.org",
            "code": "96912-1",
            "display": "Calculated CT global noise"
          } ]
        },
        "valueQuantity": {
          "value": 63,
          "unit": "cm",
          "system": "http://unitsofmeasure.org",
          "code": "cm"
        }
      }, {
        "code": {
          "coding": [ {
            "system": "http://loinc.org",
            "code": "96913-9",
            "display": "Calculated CT size-adjusted dose"
          } ]
        },
        "valueQuantity": {
          "value": 597,
          "unit": "cm",
          "system": "http://unitsofmeasure.org",
          "code": "cm"
        }
      } ]
    },
    "request": {
      "method": "POST",
      "url": "Observation/denomfail-invalidunits-2"
    }
  }, {
    "fullUrl": "https://madie.cms.gov/MeasureReport/82909e73-c043-4c97-bfc0-4b6d19912b9c",
    "resource": {
      "resourceType": "MeasureReport",
      "id": "82909e73-c043-4c97-bfc0-4b6d19912b9c",
      "meta": {
        "profile": [ "http://hl7.org/fhir/us/cqfmeasures/StructureDefinition/test-case-cqfm" ]
      },
      "contained": [ {
        "resourceType": "Parameters",
        "id": "b65d1ce6-8dc1-4b7d-86ce-fc51a16f4495-parameters",
        "parameter": [ {
          "name": "subject",
          "valueString": "f702444c-4d8c-43f3-a9d7-f420e10d6c4d"
        } ]
      } ],
      "extension": [ {
        "url": "http://hl7.org/fhir/us/cqfmeasures/StructureDefinition/cqfm-inputParameters",
        "valueReference": {
          "reference": "#b65d1ce6-8dc1-4b7d-86ce-fc51a16f4495-parameters"
        }
      }, {
        "url": "http://hl7.org/fhir/us/cqfmeasures/StructureDefinition/cqfm-testCaseDescription",
        "valueMarkdown": "Patient has valid CT scan but with invalid units"
      } ],
      "modifierExtension": [ {
        "url": "http://hl7.org/fhir/us/cqfmeasures/StructureDefinition/cqfm-isTestCase",
        "valueBoolean": true
      } ],
      "status": "complete",
      "type": "individual",
      "measure": "https://madie.cms.gov/Measure/AlaraCTIQRFHIR",
      "period": {
        "start": "2025-01-01",
        "end": "2025-12-31"
      },
      "group": [ {
        "population": [ {
          "code": {
            "coding": [ {
              "system": "http://terminology.hl7.org/CodeSystem/measure-population",
              "code": "initial-population",
              "display": "Initial Population"
            } ]
          },
          "count": 1
        }, {
          "code": {
            "coding": [ {
              "system": "http://terminology.hl7.org/CodeSystem/measure-population",
              "code": "denominator",
              "display": "Denominator"
            } ]
          },
          "count": 0
        }, {
          "code": {
            "coding": [ {
              "system": "http://terminology.hl7.org/CodeSystem/measure-population",
              "code": "denominator-exclusion",
              "display": "Denominator Exclusion"
            } ]
          },
          "count": 0
        }, {
          "code": {
            "coding": [ {
              "system": "http://terminology.hl7.org/CodeSystem/measure-population",
              "code": "numerator",
              "display": "Numerator"
            } ]
          },
          "count": 0
        } ]
      } ],
      "evaluatedResource": [ {
        "reference": "https://madie.cms.gov/Patient/f702444c-4d8c-43f3-a9d7-f420e10d6c4d"
      }, {
        "reference": "https://madie.cms.gov/Encounter/denomfail-invalidunits-1"
      }, {
        "reference": "https://madie.cms.gov/Observation/denomfail-invalidunits-2"
      } ]
    },
    "request": {
      "method": "POST",
      "url": "MeasureReport/82909e73-c043-4c97-bfc0-4b6d19912b9c"
    }
  } ]
}