{"resourceType":"Bundle","id":"tests-998b7fee-53b4-4d2d-ba52-3819c9f9a7e5-bundle","type":"transaction","entry":[{"fullUrl":"https://madie.cms.gov/Patient/998b7fee-53b4-4d2d-ba52-3819c9f9a7e5","resource":{"resourceType":"Patient","id":"998b7fee-53b4-4d2d-ba52-3819c9f9a7e5","meta":{"profile":["http://hl7.org/fhir/us/core/StructureDefinition/us-core-patient","http://hl7.org/fhir/us/qicore/StructureDefinition/qicore-patient"]},"extension":[{"url":"http://hl7.org/fhir/us/core/StructureDefinition/us-core-race","extension":[{"url":"ombCategory","valueCoding":{"system":"urn:oid:2.16.840.1.113883.6.238","code":"2028-9","display":"Asian"}},{"url":"text","valueString":"Asian"}]},{"url":"http://hl7.org/fhir/us/core/StructureDefinition/us-core-ethnicity","extension":[{"url":"ombCategory","valueCoding":{"system":"urn:oid:2.16.840.1.113883.6.238","code":"2135-2","display":"Hispanic or Latino"}},{"url":"text","valueString":"Hispanic or Latino"}]}],"identifier":[{"system":"http://hospital.smarthealthit.org","value":"999999995"}],"name":[{"family":"ScanOutsideMP","given":["IPPFail"]}],"gender":"male","birthDate":"1979-06-12"},"request":{"method":"PUT","url":"Patient/998b7fee-53b4-4d2d-ba52-3819c9f9a7e5"}},{"fullUrl":"https://madie.cms.gov/Encounter/c72c8d78-d382-4b9e-8af7-a9a789bbc2ae","resource":{"resourceType":"Encounter","id":"c72c8d78-d382-4b9e-8af7-a9a789bbc2ae","meta":{"profile":["http://hl7.org/fhir/us/qicore/StructureDefinition/qicore-encounter"]},"status":"finished","class":{"system":"http://terminology.hl7.org/CodeSystem/v3-ActCode","code":"IMP","display":"inpatient encounter"},"type":[{"coding":[{"system":"http://snomed.info/sct","code":"183452005","display":"Emergency hospital admission"}]}],"subject":{"reference":"Patient/998b7fee-53b4-4d2d-ba52-3819c9f9a7e5"},"period":{"start":"2026-12-30T00:00:00.000Z","end":"2027-01-03T01:00:00.000Z"}},"request":{"method":"PUT","url":"Encounter/c72c8d78-d382-4b9e-8af7-a9a789bbc2ae"}},{"fullUrl":"https://madie.cms.gov/Observation/edff3d4a-9c13-4292-9da3-74d1358bd6b6","resource":{"resourceType":"Observation","id":"edff3d4a-9c13-4292-9da3-74d1358bd6b6","meta":{"profile":["http://hl7.org/fhir/us/qicore/StructureDefinition/qicore-observation"]},"status":"final","category":[{"coding":[{"system":"http://terminology.hl7.org/CodeSystem/observation-category","code":"imaging","display":"Imaging"}]}],"code":{"coding":[{"system":"http://loinc.org","code":"96914-7","display":"CT dose and image quality category"}],"text":"CT dose and image quality category"},"subject":{"reference":"Patient/998b7fee-53b4-4d2d-ba52-3819c9f9a7e5"},"encounter":{"reference":"Encounter/c72c8d78-d382-4b9e-8af7-a9a789bbc2ae"},"effectiveDateTime":"2027-01-02T00:00:00.000Z","valueCodeableConcept":{"coding":[{"system":"http://loinc.org","code":"LA31753-9","display":"Abdomen and Pelvis Routine Dose"}]},"component":[{"code":{"coding":[{"system":"http://loinc.org","code":"96912-1","display":"Calculated CT global noise"}]},"valueQuantity":{"value":63,"unit":"[hnsf'U]","system":"http://unitsofmeasure.org","code":"[hnsf'U]"}},{"code":{"coding":[{"system":"http://loinc.org","code":"96913-9","display":"Calculated CT size-adjusted dose"}]},"valueQuantity":{"value":597,"unit":"mGy.cm","system":"http://unitsofmeasure.org","code":"mGy.cm"}}]},"request":{"method":"PUT","url":"Observation/edff3d4a-9c13-4292-9da3-74d1358bd6b6"}},{"fullUrl":"https://madie.cms.gov/MeasureReport/e6a842dd-4e4a-4dce-9b9c-09f588052d64","resource":{"resourceType":"MeasureReport","id":"e6a842dd-4e4a-4dce-9b9c-09f588052d64","meta":{"profile":["http://hl7.org/fhir/us/cqfmeasures/StructureDefinition/test-case-cqfm"]},"contained":[{"resourceType":"Parameters","id":"a13acfd8-e6b3-4b1f-8544-66ea1108a445-parameters","parameter":[{"name":"subject","valueString":"998b7fee-53b4-4d2d-ba52-3819c9f9a7e5"}]}],"extension":[{"url":"http://hl7.org/fhir/us/cqfmeasures/StructureDefinition/cqfm-inputParameters","valueReference":{"reference":"#a13acfd8-e6b3-4b1f-8544-66ea1108a445-parameters"}},{"url":"http://hl7.org/fhir/us/cqfmeasures/StructureDefinition/cqfm-testCaseDescription","valueMarkdown":"Patient has a valid CT Scan but it occurs outside the Measurement Period"}],"modifierExtension":[{"url":"http://hl7.org/fhir/us/cqfmeasures/StructureDefinition/cqfm-isTestCase","valueBoolean":true}],"status":"complete","type":"individual","measure":"https://madie.cms.gov/Measure/ALARACTOQRFHIR","period":{"start":"2026-01-01","end":"2026-12-31"},"group":[{"population":[{"code":{"coding":[{"system":"http://terminology.hl7.org/CodeSystem/measure-population","code":"initial-population","display":"Initial Population"}]},"count":0},{"code":{"coding":[{"system":"http://terminology.hl7.org/CodeSystem/measure-population","code":"denominator","display":"Denominator"}]},"count":0},{"code":{"coding":[{"system":"http://terminology.hl7.org/CodeSystem/measure-population","code":"denominator-exclusion","display":"Denominator Exclusion"}]},"count":0},{"code":{"coding":[{"system":"http://terminology.hl7.org/CodeSystem/measure-population","code":"numerator","display":"Numerator"}]},"count":0}]}]},"request":{"method":"PUT","url":"MeasureReport/e6a842dd-4e4a-4dce-9b9c-09f588052d64"}}]}