{"resourceType":"Bundle","id":"tests-848277a1-a657-4474-a474-733a962f44a5-bundle","type":"transaction","entry":[{"fullUrl":"https://madie.cms.gov/Patient/848277a1-a657-4474-a474-733a962f44a5","resource":{"resourceType":"Patient","id":"848277a1-a657-4474-a474-733a962f44a5","meta":{"profile":["http://hl7.org/fhir/us/qicore/StructureDefinition/qicore-patient"]},"text":{"status":"generated","div":"<div xmlns=\"http://www.w3.org/1999/xhtml\"><div class=\"hapiHeaderText\">EncDxAfib_MA_OralXa_MedAdmRvltDT <b>NUMERPASS </b></div><table class=\"hapiPropertyTable\"><tbody><tr><td>Identifier</td><td>dc257e8594370e421c6581222a79e666</td></tr><tr><td>Date of birth</td><td><span>02 January 1974</span></td></tr></tbody></table></div>"},"extension":[{"url":"http://hl7.org/fhir/us/core/StructureDefinition/us-core-race","extension":[{"url":"ombCategory","valueCoding":{"system":"urn:oid:2.16.840.1.113883.6.238","code":"1002-5","display":"American Indian or Alaska Native","userSelected":true}},{"url":"text","valueString":"American Indian or Alaska Native"}]},{"url":"http://hl7.org/fhir/us/core/StructureDefinition/us-core-ethnicity","extension":[{"url":"ombCategory","valueCoding":{"system":"urn:oid:2.16.840.1.113883.6.238","code":"2135-2","display":"Hispanic or Latino","userSelected":true}},{"url":"text","valueString":"Hispanic or Latino"}]}],"identifier":[{"type":{"coding":[{"system":"http://terminology.hl7.org/CodeSystem/v2-0203","code":"MR"}]},"system":"https://bonnie-fhir.healthit.gov/","value":"612e6b3102c62a011f2ecd58"}],"active":true,"name":[{"use":"usual","family":"NUMERPass","given":["EncDxAfib_MA_OralXa_MedAdmRvltDT"]}],"gender":"male","birthDate":"1974-01-02"},"request":{"method":"PUT","url":"Patient/848277a1-a657-4474-a474-733a962f44a5"}},{"fullUrl":"https://madie.cms.gov/Encounter/5ca6295db8484628b8de1d45","resource":{"resourceType":"Encounter","id":"c71458cf-82cd-4ef5-9439-9bfd8e1ea71f","meta":{"profile":["http://hl7.org/fhir/us/qicore/StructureDefinition/qicore-encounter"]},"status":"finished","class":{"system":"http://terminology.hl7.org/CodeSystem/v3-ActCode","code":"IMP","display":"inpatient encounter"},"type":[{"coding":[{"system":"http://snomed.info/sct","code":"8715000"}]}],"subject":{"reference":"Patient/848277a1-a657-4474-a474-733a962f44a5"},"period":{"start":"2025-11-01T08:00:00+00:00","end":"2025-11-26T08:15:00+00:00"},"length":{"value":25.0,"unit":"days"},"diagnosis":[{"condition":{"reference":"Condition/atrial-fibrillation-flutter-f80a"}}]},"request":{"method":"PUT","url":"Encounter/c71458cf-82cd-4ef5-9439-9bfd8e1ea71f"}},{"fullUrl":"https://madie.cms.gov/Coverage/5fa0414a1c76ba66d995917b","resource":{"resourceType":"Coverage","id":"5ef279fb-ab66-4ce4-800c-7a23d31c3538","status":"active","beneficiary":{"reference":"Patient/848277a1-a657-4474-a474-733a962f44a5"},"period":{"start":"1974-01-02T08:00:00+00:00"},"payor":[{"reference":"Organization/9e9b3f13-a353-4173-b29b-947d6f1f2031"}]},"request":{"method":"PUT","url":"Coverage/5ef279fb-ab66-4ce4-800c-7a23d31c3538"}},{"fullUrl":"https://madie.cms.gov/MedicationAdministration/5ca6295db8484628b8de1d46","resource":{"resourceType":"MedicationAdministration","id":"b5b74997-7920-4cbd-a622-03ca46e66ed6","meta":{"profile":["http://hl7.org/fhir/us/qicore/StructureDefinition/qicore-medicationadministration"]},"status":"completed","medicationCodeableConcept":{"coding":[{"system":"http://www.nlm.nih.gov/research/umls/rxnorm","code":"1599555"}]},"subject":{"reference":"Patient/848277a1-a657-4474-a474-733a962f44a5"},"effectivePeriod":{"start":"2025-11-01T08:00:00.000+00:00","end":"2025-11-01T08:15:00.000+00:00"}},"request":{"method":"PUT","url":"MedicationAdministration/b5b74997-7920-4cbd-a622-03ca46e66ed6"}},{"fullUrl":"https://madie.cms.gov/Condition/atrial-fibrillation-flutter-f80a","resource":{"resourceType":"Condition","id":"590f3710-fe6e-4d1a-ae08-ca01c3433bb9","meta":{"profile":["http://hl7.org/fhir/us/qicore/StructureDefinition/qicore-condition"]},"category":[{"coding":[{"system":"http://terminology.hl7.org/CodeSystem/condition-category","code":"encounter-diagnosis","display":"Encounter Diagnosis"}]}],"code":{"coding":[{"system":"http://snomed.info/sct","version":"2025-03","code":"120041000119109","display":"Atrial fibrillation with rapid ventricular response (disorder)","userSelected":true}]},"subject":{"reference":"Patient/848277a1-a657-4474-a474-733a962f44a5"},"recordedDate":"2025-07-14T08:00:00.000+00:00"},"request":{"method":"PUT","url":"Condition/590f3710-fe6e-4d1a-ae08-ca01c3433bb9"}},{"fullUrl":"https://madie.cms.gov/Organization/123456","resource":{"resourceType":"Organization","id":"9e9b3f13-a353-4173-b29b-947d6f1f2031","meta":{"profile":["http://hl7.org/fhir/us/qicore/StructureDefinition/qicore-organization"]},"identifier":[{"use":"temp","system":"urn:oid:2.16.840.1.113883.4.4","value":"21-3259825"}],"active":true,"type":[{"coding":[{"system":"http://terminology.hl7.org/CodeSystem/organization-type","code":"pay","display":"Payer"}]}],"name":"Blue Cross Blue Shield of Texas","telecom":[{"system":"phone","value":"(+1) 972-766-6900"}],"address":[{"use":"billing","type":"postal","line":["P.O. Box 660044"],"city":"Dallas","state":"TX","postalCode":"75266-0044","country":"USA"}]},"request":{"method":"PUT","url":"Organization/9e9b3f13-a353-4173-b29b-947d6f1f2031"}},{"fullUrl":"https://madie.cms.gov/Practitioner/practitioner-123456","resource":{"resourceType":"Practitioner","id":"5d103ee5-5406-496b-b47e-c9272f84aa52","identifier":[{"system":"http://hl7.org/fhir/sid/us-npi","value":"123456"}],"name":[{"family":"Evil","prefix":["Dr"]}]},"request":{"method":"PUT","url":"Practitioner/5d103ee5-5406-496b-b47e-c9272f84aa52"}},{"fullUrl":"https://madie.cms.gov/MeasureReport/fd18267a-6202-445b-9f02-0af728dfe538","resource":{"resourceType":"MeasureReport","id":"fd18267a-6202-445b-9f02-0af728dfe538","meta":{"profile":["http://hl7.org/fhir/us/cqfmeasures/StructureDefinition/test-case-cqfm"]},"contained":[{"resourceType":"Parameters","id":"177d5fcd-6e7d-4c5f-94fa-99e184b17aac-parameters","parameter":[{"name":"subject","valueString":"848277a1-a657-4474-a474-733a962f44a5"}]}],"extension":[{"url":"http://hl7.org/fhir/us/cqfmeasures/StructureDefinition/cqfm-inputParameters","valueReference":{"reference":"#177d5fcd-6e7d-4c5f-94fa-99e184b17aac-parameters"}},{"url":"http://hl7.org/fhir/us/cqfmeasures/StructureDefinition/cqfm-testCaseDescription","valueMarkdown":"patient receives oral factor Xa as relevant datetime <= 1 day after start of IP encounter and has afib diagnosis as attribute of encounter\n"}],"modifierExtension":[{"url":"http://hl7.org/fhir/us/cqfmeasures/StructureDefinition/cqfm-isTestCase","valueBoolean":true}],"status":"complete","type":"individual","measure":"https://madie.cms.gov/Measure/VenousThromboembolismProphylaxisFHIR","period":{"start":"2025-01-01","end":"2025-12-31"},"group":[{"population":[{"code":{"coding":[{"system":"http://terminology.hl7.org/CodeSystem/measure-population","code":"initial-population","display":"Initial Population"}]},"count":1},{"code":{"coding":[{"system":"http://terminology.hl7.org/CodeSystem/measure-population","code":"denominator","display":"Denominator"}]},"count":1},{"code":{"coding":[{"system":"http://terminology.hl7.org/CodeSystem/measure-population","code":"denominator-exclusion","display":"Denominator Exclusion"}]},"count":0},{"code":{"coding":[{"system":"http://terminology.hl7.org/CodeSystem/measure-population","code":"numerator","display":"Numerator"}]},"count":1}]}]},"request":{"method":"PUT","url":"MeasureReport/fd18267a-6202-445b-9f02-0af728dfe538"}}]}