{"resourceType":"Bundle","id":"tests-d04c2856-3708-4809-b4e3-4d1746ff274b-bundle","type":"transaction","entry":[{"fullUrl":"https://madie.cms.gov/Patient/d04c2856-3708-4809-b4e3-4d1746ff274b","resource":{"resourceType":"Patient","id":"d04c2856-3708-4809-b4e3-4d1746ff274b","meta":{"profile":["http://hl7.org/fhir/us/qicore/StructureDefinition/qicore-patient"]},"text":{"status":"generated","div":"<div xmlns=\"http://www.w3.org/1999/xhtml\"><div class=\"hapiHeaderText\">PtRefusal_EDGT1HrAdm_1DayBFAdm <b>NUMERFAIL </b></div><table class=\"hapiPropertyTable\"><tbody><tr><td>Identifier</td><td>6d2c319cdc22db5701bad5a897102b581ef8b66eb0c722b7fcb9c543ba1be0e3</td></tr><tr><td>Date of birth</td><td><span>02 January 1974</span></td></tr></tbody></table></div>"},"extension":[{"url":"http://hl7.org/fhir/us/core/StructureDefinition/us-core-race","extension":[{"url":"ombCategory","valueCoding":{"system":"urn:oid:2.16.840.1.113883.6.238","code":"1002-5","display":"American Indian or Alaska Native","userSelected":true}},{"url":"text","valueString":"American Indian or Alaska Native"}]},{"url":"http://hl7.org/fhir/us/core/StructureDefinition/us-core-ethnicity","extension":[{"url":"ombCategory","valueCoding":{"system":"urn:oid:2.16.840.1.113883.6.238","code":"2135-2","display":"Hispanic or Latino","userSelected":true}},{"url":"text","valueString":"Hispanic or Latino"}]}],"identifier":[{"type":{"coding":[{"system":"http://terminology.hl7.org/CodeSystem/v2-0203","code":"MR"}]},"system":"https://bonnie-fhir.healthit.gov/","value":"612e6ae402c62a011f2eba14"}],"active":true,"name":[{"use":"usual","family":"NUMERFail","given":["PtRefusal_EDGT1HrAdm_1DayBFAdm"]}],"gender":"male","birthDate":"1974-01-02"},"request":{"method":"PUT","url":"Patient/d04c2856-3708-4809-b4e3-4d1746ff274b"}},{"fullUrl":"https://madie.cms.gov/Encounter/5ca62965b8484628b8de1fc4","resource":{"resourceType":"Encounter","id":"bd82bb72-c5ce-4000-bc82-f99c476a4572","meta":{"profile":["http://hl7.org/fhir/us/qicore/StructureDefinition/qicore-encounter"]},"status":"finished","class":{"system":"http://terminology.hl7.org/CodeSystem/v3-ActCode","code":"EMER","display":"emergency"},"type":[{"coding":[{"system":"http://snomed.info/sct","code":"4525004"}]}],"subject":{"reference":"Patient/d04c2856-3708-4809-b4e3-4d1746ff274b"},"period":{"start":"2025-10-31T05:00:00+00:00","end":"2025-11-01T07:15:00+00:00"},"length":{"value":1,"unit":"days"}},"request":{"method":"PUT","url":"Encounter/bd82bb72-c5ce-4000-bc82-f99c476a4572"}},{"fullUrl":"https://madie.cms.gov/Encounter/5ca62965b8484628b8de1fc5","resource":{"resourceType":"Encounter","id":"ffa1bc41-ef29-4626-bb5b-e491314d130b","meta":{"profile":["http://hl7.org/fhir/us/qicore/StructureDefinition/qicore-encounter"]},"status":"finished","class":{"system":"http://terminology.hl7.org/CodeSystem/v3-ActCode","code":"IMP","display":"inpatient encounter"},"type":[{"coding":[{"system":"http://snomed.info/sct","code":"8715000"}]}],"subject":{"reference":"Patient/d04c2856-3708-4809-b4e3-4d1746ff274b"},"period":{"start":"2025-11-01T10:00:00+00:00","end":"2025-11-03T08:15:00+00:00"},"length":{"value":2,"unit":"days"}},"request":{"method":"PUT","url":"Encounter/ffa1bc41-ef29-4626-bb5b-e491314d130b"}},{"fullUrl":"https://madie.cms.gov/Coverage/5fa041621c76ba66d995932b","resource":{"resourceType":"Coverage","id":"21981583-b5e7-4c50-86b0-be360dc150e2","status":"active","beneficiary":{"reference":"Patient/d04c2856-3708-4809-b4e3-4d1746ff274b"},"period":{"start":"1974-01-02T08:00:00+00:00"},"payor":[{"reference":"Organization/84b56847-ad40-4bf6-b612-9e42ad2a84e5"}]},"request":{"method":"PUT","url":"Coverage/21981583-b5e7-4c50-86b0-be360dc150e2"}},{"fullUrl":"https://madie.cms.gov/MedicationAdministration/5ca62965b8484628b8de1fc9","resource":{"resourceType":"MedicationAdministration","id":"9f0c6e45-e457-42dc-8675-18d296e0f4f7","meta":{"profile":["http://hl7.org/fhir/us/qicore/StructureDefinition/qicore-medicationadministration"]},"extension":[{"url":"http://hl7.org/fhir/us/qicore/StructureDefinition/qicore-recorded","valueDateTime":"2025-10-31T07:00:00+00:00"}],"status":"completed","statusReason":[{"coding":[{"system":"http://snomed.info/sct","code":"443390004","display":"Refusal of treatment by patient (situation)"}]}],"medicationCodeableConcept":{"coding":[{"system":"http://www.nlm.nih.gov/research/umls/rxnorm","code":"1361607"}]},"subject":{"reference":"Patient/d04c2856-3708-4809-b4e3-4d1746ff274b"},"effectivePeriod":{"start":"2025-10-31T07:00:00+00:00"},"reasonCode":[{"coding":[{"system":"http://snomed.info/sct","code":"105480006","display":"Refusal of treatment by patient (situation)","userSelected":true}]}]},"request":{"method":"PUT","url":"MedicationAdministration/9f0c6e45-e457-42dc-8675-18d296e0f4f7"}},{"fullUrl":"https://madie.cms.gov/MedicationRequest/5ca62965b8484628b8de1fca","resource":{"resourceType":"MedicationRequest","id":"cb4faea2-acf4-45aa-89d5-fd507d1ed86d","meta":{"profile":["http://hl7.org/fhir/us/qicore/StructureDefinition/qicore-mednotrequested"]},"status":"completed","intent":"order","doNotPerform":true,"medicationCodeableConcept":{"coding":[{"system":"http://www.nlm.nih.gov/research/umls/rxnorm","code":"854228"}]},"subject":{"reference":"Patient/d04c2856-3708-4809-b4e3-4d1746ff274b"},"authoredOn":"2025-10-31T07:00:00+00:00","requester":{"reference":"Practitioner/123456"},"reasonCode":[{"coding":[{"system":"http://snomed.info/sct","code":"183932001","display":"Procedure contraindicated (situation)","userSelected":true}]}],"dosageInstruction":[{"timing":{"repeat":{"boundsPeriod":{"start":"2025-10-31T07:00:00+00:00"}}}}]},"request":{"method":"PUT","url":"MedicationRequest/cb4faea2-acf4-45aa-89d5-fd507d1ed86d"}},{"fullUrl":"https://madie.cms.gov/MedicationRequest/5ca62965b8484628b8de1fcb","resource":{"resourceType":"MedicationRequest","id":"a57f0938-b7f0-417d-a0ea-0bd4f72fd9f3","status":"active","intent":"order","medicationCodeableConcept":{"coding":[{"system":"http://www.nlm.nih.gov/research/umls/rxnorm","code":"861356"}]},"subject":{"reference":"Patient/d04c2856-3708-4809-b4e3-4d1746ff274b"},"authoredOn":"2025-10-31T07:00:00+00:00","requester":{"reference":"Practitioner/123456"},"dosageInstruction":[{"timing":{"repeat":{"boundsPeriod":{"start":"2025-10-31T07:00:00+00:00"}}}}]},"request":{"method":"PUT","url":"MedicationRequest/a57f0938-b7f0-417d-a0ea-0bd4f72fd9f3"}},{"fullUrl":"https://madie.cms.gov/MedicationRequest/5ca62965b8484628b8de1fcc","resource":{"resourceType":"MedicationRequest","id":"4cd1ea7e-bed9-4575-9573-d56533ea310c","status":"active","intent":"order","medicationCodeableConcept":{"coding":[{"system":"http://www.nlm.nih.gov/research/umls/rxnorm","code":"855288"}]},"subject":{"reference":"Patient/d04c2856-3708-4809-b4e3-4d1746ff274b"},"authoredOn":"2025-10-31T07:00:00+00:00","requester":{"reference":"Practitioner/123456"},"dosageInstruction":[{"timing":{"repeat":{"boundsPeriod":{"start":"2025-10-31T07:00:00+00:00"}}}}]},"request":{"method":"PUT","url":"MedicationRequest/4cd1ea7e-bed9-4575-9573-d56533ea310c"}},{"fullUrl":"https://madie.cms.gov/Organization/123456","resource":{"resourceType":"Organization","id":"84b56847-ad40-4bf6-b612-9e42ad2a84e5","meta":{"profile":["http://hl7.org/fhir/us/qicore/StructureDefinition/qicore-organization"]},"identifier":[{"use":"temp","system":"urn:oid:2.16.840.1.113883.4.4","value":"21-3259825"}],"active":true,"type":[{"coding":[{"system":"http://terminology.hl7.org/CodeSystem/organization-type","code":"pay","display":"Payer"}]}],"name":"Blue Cross Blue Shield of Texas","telecom":[{"system":"phone","value":"(+1) 972-766-6900"}],"address":[{"use":"billing","type":"postal","line":["P.O. Box 660044"],"city":"Dallas","state":"TX","postalCode":"75266-0044","country":"USA"}]},"request":{"method":"PUT","url":"Organization/84b56847-ad40-4bf6-b612-9e42ad2a84e5"}},{"fullUrl":"https://madie.cms.gov/Practitioner/practitioner-123456","resource":{"resourceType":"Practitioner","id":"28a1fca1-f545-458c-9007-4f42954c5ec8","identifier":[{"system":"http://hl7.org/fhir/sid/us-npi","value":"123456"}],"name":[{"family":"Evil","prefix":["Dr"]}]},"request":{"method":"PUT","url":"Practitioner/28a1fca1-f545-458c-9007-4f42954c5ec8"}},{"fullUrl":"https://madie.cms.gov/MeasureReport/de2c8eb5-f93b-4b10-b864-9e3e3296b667","resource":{"resourceType":"MeasureReport","id":"de2c8eb5-f93b-4b10-b864-9e3e3296b667","meta":{"profile":["http://hl7.org/fhir/us/cqfmeasures/StructureDefinition/test-case-cqfm"]},"contained":[{"resourceType":"Parameters","id":"f32d0a13-89ce-455b-8549-b80fca544063-parameters","parameter":[{"name":"subject","valueString":"d04c2856-3708-4809-b4e3-4d1746ff274b"}]}],"extension":[{"url":"http://hl7.org/fhir/us/cqfmeasures/StructureDefinition/cqfm-inputParameters","valueReference":{"reference":"#f32d0a13-89ce-455b-8549-b80fca544063-parameters"}},{"url":"http://hl7.org/fhir/us/cqfmeasures/StructureDefinition/cqfm-testCaseDescription","valueMarkdown":"patient refused GCS, unfractionated heparin, lmwh, vfp, warfarin, factor Xa, IPC in ED but ED is .1 hour before Adm AND Refusal 1 day before Adm\n"}],"modifierExtension":[{"url":"http://hl7.org/fhir/us/cqfmeasures/StructureDefinition/cqfm-isTestCase","valueBoolean":true}],"status":"complete","type":"individual","measure":"https://madie.cms.gov/Measure/VenousThromboembolismProphylaxisFHIR","period":{"start":"2025-01-01","end":"2025-12-31"},"group":[{"population":[{"code":{"coding":[{"system":"http://terminology.hl7.org/CodeSystem/measure-population","code":"initial-population","display":"Initial Population"}]},"count":1},{"code":{"coding":[{"system":"http://terminology.hl7.org/CodeSystem/measure-population","code":"denominator","display":"Denominator"}]},"count":1},{"code":{"coding":[{"system":"http://terminology.hl7.org/CodeSystem/measure-population","code":"denominator-exclusion","display":"Denominator Exclusion"}]},"count":0},{"code":{"coding":[{"system":"http://terminology.hl7.org/CodeSystem/measure-population","code":"numerator","display":"Numerator"}]},"count":0}]}]},"request":{"method":"PUT","url":"MeasureReport/de2c8eb5-f93b-4b10-b864-9e3e3296b667"}}]}