{"resourceType":"Bundle","id":"tests-4fda37ce-d4ce-487f-84dd-6274e7c0114a-bundle","type":"transaction","entry":[{"fullUrl":"https://madie.cms.gov/Patient/4fda37ce-d4ce-487f-84dd-6274e7c0114a","resource":{"resourceType":"Patient","id":"4fda37ce-d4ce-487f-84dd-6274e7c0114a","meta":{"profile":["http://hl7.org/fhir/us/qicore/StructureDefinition/qicore-patient"]},"text":{"status":"generated","div":"<div xmlns=\"http://www.w3.org/1999/xhtml\"><div class=\"hapiHeaderText\">INR3_0_DayOfAnesthesia <b>NUMERFAIL </b></div><table class=\"hapiPropertyTable\"><tbody><tr><td>Identifier</td><td>65ef0b32f324a9b2366603f2ef83d149</td></tr><tr><td>Date of birth</td><td><span>02 January 1974</span></td></tr></tbody></table></div>"},"extension":[{"url":"http://hl7.org/fhir/us/core/StructureDefinition/us-core-race","extension":[{"url":"ombCategory","valueCoding":{"system":"urn:oid:2.16.840.1.113883.6.238","code":"1002-5","display":"American Indian or Alaska Native","userSelected":true}},{"url":"text","valueString":"American Indian or Alaska Native"}]},{"url":"http://hl7.org/fhir/us/core/StructureDefinition/us-core-ethnicity","extension":[{"url":"ombCategory","valueCoding":{"system":"urn:oid:2.16.840.1.113883.6.238","code":"2135-2","display":"Hispanic or Latino","userSelected":true}},{"url":"text","valueString":"Hispanic or Latino"}]}],"identifier":[{"type":{"coding":[{"system":"http://terminology.hl7.org/CodeSystem/v2-0203","code":"MR"}]},"system":"https://bonnie-fhir.healthit.gov/","value":"612e6b4e02c62a011f2ed3d2"}],"active":true,"name":[{"use":"usual","family":"NUMERFail","given":["INR3_0_DayOfAnesthesia"]}],"gender":"male","birthDate":"1974-01-02"},"request":{"method":"PUT","url":"Patient/4fda37ce-d4ce-487f-84dd-6274e7c0114a"}},{"fullUrl":"https://madie.cms.gov/Encounter/5ca62960b8484628b8de1e78","resource":{"resourceType":"Encounter","id":"893e9243-1717-4ce9-9608-e251042be5d0","meta":{"profile":["http://hl7.org/fhir/us/qicore/StructureDefinition/qicore-encounter"]},"status":"finished","class":{"system":"http://terminology.hl7.org/CodeSystem/v3-ActCode","code":"IMP","display":"inpatient encounter"},"type":[{"coding":[{"system":"http://snomed.info/sct","code":"8715000"}]}],"subject":{"reference":"Patient/4fda37ce-d4ce-487f-84dd-6274e7c0114a"},"period":{"start":"2025-11-01T08:00:00+00:00","end":"2025-11-26T08:15:00+00:00"},"length":{"value":25.0,"unit":"days"}},"request":{"method":"PUT","url":"Encounter/893e9243-1717-4ce9-9608-e251042be5d0"}},{"fullUrl":"https://madie.cms.gov/Coverage/5fa041591c76ba66d9959289","resource":{"resourceType":"Coverage","id":"32de6be5-8ade-4f7d-b764-d3e584fc08c9","status":"active","beneficiary":{"reference":"Patient/4fda37ce-d4ce-487f-84dd-6274e7c0114a"},"period":{"start":"1974-01-02T08:00:00+00:00"},"payor":[{"reference":"Organization/f7da4368-fb6d-4d73-a75b-f78024cbb18d"}]},"request":{"method":"PUT","url":"Coverage/32de6be5-8ade-4f7d-b764-d3e584fc08c9"}},{"fullUrl":"https://madie.cms.gov/Observation/5ca62960b8484628b8de1e7a","resource":{"resourceType":"Observation","id":"ec006910-10a4-4de1-9d68-b732f9453396","meta":{"profile":["http://hl7.org/fhir/us/core/StructureDefinition/us-core-observation-lab"]},"status":"final","category":[{"coding":[{"system":"http://terminology.hl7.org/CodeSystem/observation-category","code":"laboratory","display":"Laboratory"}]}],"code":{"coding":[{"system":"http://loinc.org","code":"34714-6"}]},"subject":{"reference":"Patient/4fda37ce-d4ce-487f-84dd-6274e7c0114a"},"issued":"2025-11-01T11:00:00.000+00:00","valueQuantity":{"value":3.0,"unit":"{INR}"}},"request":{"method":"PUT","url":"Observation/ec006910-10a4-4de1-9d68-b732f9453396"}},{"fullUrl":"https://madie.cms.gov/Procedure/5ca62960b8484628b8de1e79","resource":{"resourceType":"Procedure","id":"ded85c00-2e1c-4179-a4db-df2c3fbc8020","meta":{"profile":["http://hl7.org/fhir/us/qicore/StructureDefinition/qicore-procedure"]},"extension":[{"url":"http://hl7.org/fhir/us/qicore/StructureDefinition/qicore-recorded","valueDateTime":"2012-12-04T09:35:00-04:00"}],"status":"completed","code":{"coding":[{"system":"http://www.icd10data.com/icd10pcs","code":"3E030FZ"},{"system":"http://snomed.info/sct","code":"18946005"}]},"subject":{"reference":"Patient/4fda37ce-d4ce-487f-84dd-6274e7c0114a"},"performedPeriod":{"start":"2025-11-01T09:00:00+00:00","end":"2025-11-01T09:15:00+00:00"}},"request":{"method":"PUT","url":"Procedure/ded85c00-2e1c-4179-a4db-df2c3fbc8020"}},{"fullUrl":"https://madie.cms.gov/Organization/123456","resource":{"resourceType":"Organization","id":"f7da4368-fb6d-4d73-a75b-f78024cbb18d","meta":{"profile":["http://hl7.org/fhir/us/qicore/StructureDefinition/qicore-organization"]},"identifier":[{"use":"temp","system":"urn:oid:2.16.840.1.113883.4.4","value":"21-3259825"}],"active":true,"type":[{"coding":[{"system":"http://terminology.hl7.org/CodeSystem/organization-type","code":"pay","display":"Payer"}]}],"name":"Blue Cross Blue Shield of Texas","telecom":[{"system":"phone","value":"(+1) 972-766-6900"}],"address":[{"use":"billing","type":"postal","line":["P.O. Box 660044"],"city":"Dallas","state":"TX","postalCode":"75266-0044","country":"USA"}]},"request":{"method":"PUT","url":"Organization/f7da4368-fb6d-4d73-a75b-f78024cbb18d"}},{"fullUrl":"https://madie.cms.gov/Practitioner/practitioner-123456","resource":{"resourceType":"Practitioner","id":"2ad32fbc-b7d3-40e4-a2ac-9c36b9971a11","identifier":[{"system":"http://hl7.org/fhir/sid/us-npi","value":"123456"}],"name":[{"family":"Evil","prefix":["Dr"]}]},"request":{"method":"PUT","url":"Practitioner/2ad32fbc-b7d3-40e4-a2ac-9c36b9971a11"}},{"fullUrl":"https://madie.cms.gov/MeasureReport/c743b9a8-059e-4359-9797-1d7d91012936","resource":{"resourceType":"MeasureReport","id":"c743b9a8-059e-4359-9797-1d7d91012936","meta":{"profile":["http://hl7.org/fhir/us/cqfmeasures/StructureDefinition/test-case-cqfm"]},"contained":[{"resourceType":"Parameters","id":"49479b07-2abb-4740-b6aa-aca4ada9c700-parameters","parameter":[{"name":"subject","valueString":"4fda37ce-d4ce-487f-84dd-6274e7c0114a"}]}],"extension":[{"url":"http://hl7.org/fhir/us/cqfmeasures/StructureDefinition/cqfm-inputParameters","valueReference":{"reference":"#49479b07-2abb-4740-b6aa-aca4ada9c700-parameters"}},{"url":"http://hl7.org/fhir/us/cqfmeasures/StructureDefinition/cqfm-testCaseDescription","valueMarkdown":">18, dx VTE, LOS<120 day,   LabResult INR=3.0,  day of anesthesia\n"}],"modifierExtension":[{"url":"http://hl7.org/fhir/us/cqfmeasures/StructureDefinition/cqfm-isTestCase","valueBoolean":true}],"status":"complete","type":"individual","measure":"https://madie.cms.gov/Measure/VenousThromboembolismProphylaxisFHIR","period":{"start":"2025-01-01","end":"2025-12-31"},"group":[{"population":[{"code":{"coding":[{"system":"http://terminology.hl7.org/CodeSystem/measure-population","code":"initial-population","display":"Initial Population"}]},"count":1},{"code":{"coding":[{"system":"http://terminology.hl7.org/CodeSystem/measure-population","code":"denominator","display":"Denominator"}]},"count":1},{"code":{"coding":[{"system":"http://terminology.hl7.org/CodeSystem/measure-population","code":"denominator-exclusion","display":"Denominator Exclusion"}]},"count":0},{"code":{"coding":[{"system":"http://terminology.hl7.org/CodeSystem/measure-population","code":"numerator","display":"Numerator"}]},"count":0}]}]},"request":{"method":"PUT","url":"MeasureReport/c743b9a8-059e-4359-9797-1d7d91012936"}}]}