{"resourceType":"Bundle","id":"tests-4b739978-837b-4de8-a137-6388cfce6a5f-bundle","type":"transaction","entry":[{"fullUrl":"https://madie.cms.gov/Patient/4b739978-837b-4de8-a137-6388cfce6a5f","resource":{"resourceType":"Patient","id":"4b739978-837b-4de8-a137-6388cfce6a5f","meta":{"profile":["http://hl7.org/fhir/us/qicore/StructureDefinition/qicore-patient"]},"text":{"status":"generated","div":"<div xmlns=\"http://www.w3.org/1999/xhtml\"><div class=\"hapiHeaderText\">RixDuringED_EDGT1hr1minAdm <b>NUMERFAIL </b></div><table class=\"hapiPropertyTable\"><tbody><tr><td>Identifier</td><td>9ac41bff10ef3353d0742df1f73dc984</td></tr><tr><td>Date of birth</td><td><span>02 January 1974</span></td></tr></tbody></table></div>"},"extension":[{"url":"http://hl7.org/fhir/us/core/StructureDefinition/us-core-race","extension":[{"url":"ombCategory","valueCoding":{"system":"urn:oid:2.16.840.1.113883.6.238","code":"1002-5","display":"American Indian or Alaska Native","userSelected":true}},{"url":"text","valueString":"American Indian or Alaska Native"}]},{"url":"http://hl7.org/fhir/us/core/StructureDefinition/us-core-ethnicity","extension":[{"url":"ombCategory","valueCoding":{"system":"urn:oid:2.16.840.1.113883.6.238","code":"2135-2","display":"Hispanic or Latino","userSelected":true}},{"url":"text","valueString":"Hispanic or Latino"}]}],"identifier":[{"type":{"coding":[{"system":"http://terminology.hl7.org/CodeSystem/v2-0203","code":"MR"}]},"system":"https://bonnie-fhir.healthit.gov/","value":"612e6b1102c62a011f2ec4c4"}],"active":true,"name":[{"use":"usual","family":"NUMERFail","given":["RixDuringED_EDGT1hr1minAdm"]}],"gender":"male","birthDate":"1974-01-02"},"request":{"method":"PUT","url":"Patient/4b739978-837b-4de8-a137-6388cfce6a5f"}},{"fullUrl":"https://madie.cms.gov/Encounter/5ca6295db8484628b8de1d66","resource":{"resourceType":"Encounter","id":"d64c6684-da8d-43da-bad4-b750b32cbf86","meta":{"profile":["http://hl7.org/fhir/us/qicore/StructureDefinition/qicore-encounter"]},"status":"finished","class":{"system":"http://terminology.hl7.org/CodeSystem/v3-ActCode","code":"IMP","display":"inpatient encounter"},"type":[{"coding":[{"system":"http://snomed.info/sct","code":"8715000"}]}],"subject":{"reference":"Patient/4b739978-837b-4de8-a137-6388cfce6a5f"},"period":{"start":"2025-11-01T08:00:00+00:00","end":"2025-11-26T08:15:00+00:00"},"length":{"value":25.0,"unit":"days"}},"request":{"method":"PUT","url":"Encounter/d64c6684-da8d-43da-bad4-b750b32cbf86"}},{"fullUrl":"https://madie.cms.gov/Encounter/5e21d43bf9757500009eda17","resource":{"resourceType":"Encounter","id":"911acc78-a2a4-43aa-ac86-130b85a371c2","meta":{"profile":["http://hl7.org/fhir/us/qicore/StructureDefinition/qicore-encounter"]},"status":"finished","class":{"system":"http://terminology.hl7.org/CodeSystem/v3-ActCode","code":"EMER","display":"emergency"},"type":[{"coding":[{"system":"http://snomed.info/sct","code":"4525004"}]}],"subject":{"reference":"Patient/4b739978-837b-4de8-a137-6388cfce6a5f"},"period":{"start":"2025-10-31T20:00:00+00:00","end":"2025-11-01T06:59:00+00:00"}},"request":{"method":"PUT","url":"Encounter/911acc78-a2a4-43aa-ac86-130b85a371c2"}},{"fullUrl":"https://madie.cms.gov/Coverage/5fa041681c76ba66d9959394","resource":{"resourceType":"Coverage","id":"f4638ed9-6bd8-4fec-90b5-c94c7451d78d","status":"active","beneficiary":{"reference":"Patient/4b739978-837b-4de8-a137-6388cfce6a5f"},"period":{"start":"1974-01-02T08:00:00+00:00"},"payor":[{"reference":"Organization/aeb2c6be-6577-4bba-a6b6-6eab95111f1b"}]},"request":{"method":"PUT","url":"Coverage/f4638ed9-6bd8-4fec-90b5-c94c7451d78d"}},{"fullUrl":"https://madie.cms.gov/MedicationAdministration/5fb47ca72569bf0000ce4608","resource":{"resourceType":"MedicationAdministration","id":"27423d52-7ca3-45ee-a769-8e5e49c1b173","status":"completed","medicationCodeableConcept":{"coding":[{"system":"http://www.nlm.nih.gov/research/umls/rxnorm","code":"1114198"}]},"subject":{"reference":"Patient/4b739978-837b-4de8-a137-6388cfce6a5f"},"effectivePeriod":{"start":"2025-10-31T09:00:00+00:00","end":"2025-10-31T09:15:00+00:00"}},"request":{"method":"PUT","url":"MedicationAdministration/27423d52-7ca3-45ee-a769-8e5e49c1b173"}},{"fullUrl":"https://madie.cms.gov/Organization/123456","resource":{"resourceType":"Organization","id":"aeb2c6be-6577-4bba-a6b6-6eab95111f1b","meta":{"profile":["http://hl7.org/fhir/us/qicore/StructureDefinition/qicore-organization"]},"identifier":[{"use":"temp","system":"urn:oid:2.16.840.1.113883.4.4","value":"21-3259825"}],"active":true,"type":[{"coding":[{"system":"http://terminology.hl7.org/CodeSystem/organization-type","code":"pay","display":"Payer"}]}],"name":"Blue Cross Blue Shield of Texas","telecom":[{"system":"phone","value":"(+1) 972-766-6900"}],"address":[{"use":"billing","type":"postal","line":["P.O. Box 660044"],"city":"Dallas","state":"TX","postalCode":"75266-0044","country":"USA"}]},"request":{"method":"PUT","url":"Organization/aeb2c6be-6577-4bba-a6b6-6eab95111f1b"}},{"fullUrl":"https://madie.cms.gov/Practitioner/practitioner-123456","resource":{"resourceType":"Practitioner","id":"b6ed4d49-1752-4815-b99d-eafd3631311f","identifier":[{"system":"http://hl7.org/fhir/sid/us-npi","value":"123456"}],"name":[{"family":"Evil","prefix":["Dr"]}]},"request":{"method":"PUT","url":"Practitioner/b6ed4d49-1752-4815-b99d-eafd3631311f"}},{"fullUrl":"https://madie.cms.gov/MeasureReport/b7c36525-e7b0-40f5-91b8-d29fc3eaee13","resource":{"resourceType":"MeasureReport","id":"b7c36525-e7b0-40f5-91b8-d29fc3eaee13","meta":{"profile":["http://hl7.org/fhir/us/cqfmeasures/StructureDefinition/test-case-cqfm"]},"contained":[{"resourceType":"Parameters","id":"59db3cc6-4f86-4dcb-9408-05b6abb190a1-parameters","parameter":[{"name":"subject","valueString":"4b739978-837b-4de8-a137-6388cfce6a5f"}]}],"extension":[{"url":"http://hl7.org/fhir/us/cqfmeasures/StructureDefinition/cqfm-inputParameters","valueReference":{"reference":"#59db3cc6-4f86-4dcb-9408-05b6abb190a1-parameters"}},{"url":"http://hl7.org/fhir/us/cqfmeasures/StructureDefinition/cqfm-testCaseDescription","valueMarkdown":"Rivaroxaban  for VTE Prophylaxis Med Administered during ED which ED >1 hr ends Adm\n"}],"modifierExtension":[{"url":"http://hl7.org/fhir/us/cqfmeasures/StructureDefinition/cqfm-isTestCase","valueBoolean":true}],"status":"complete","type":"individual","measure":"https://madie.cms.gov/Measure/VenousThromboembolismProphylaxisFHIR","period":{"start":"2025-01-01","end":"2025-12-31"},"group":[{"population":[{"code":{"coding":[{"system":"http://terminology.hl7.org/CodeSystem/measure-population","code":"initial-population","display":"Initial Population"}]},"count":1},{"code":{"coding":[{"system":"http://terminology.hl7.org/CodeSystem/measure-population","code":"denominator","display":"Denominator"}]},"count":1},{"code":{"coding":[{"system":"http://terminology.hl7.org/CodeSystem/measure-population","code":"denominator-exclusion","display":"Denominator Exclusion"}]},"count":0},{"code":{"coding":[{"system":"http://terminology.hl7.org/CodeSystem/measure-population","code":"numerator","display":"Numerator"}]},"count":0}]}]},"request":{"method":"PUT","url":"MeasureReport/b7c36525-e7b0-40f5-91b8-d29fc3eaee13"}}]}