{"resourceType":"Bundle","id":"tests-a3e0cca4-bdb1-4972-b6ca-84841cb66859-bundle","type":"transaction","entry":[{"fullUrl":"https://madie.cms.gov/Patient/a3e0cca4-bdb1-4972-b6ca-84841cb66859","resource":{"resourceType":"Patient","id":"a3e0cca4-bdb1-4972-b6ca-84841cb66859","meta":{"profile":["http://hl7.org/fhir/us/qicore/StructureDefinition/qicore-patient"]},"text":{"status":"generated","div":"<div xmlns=\"http://www.w3.org/1999/xhtml\"><div class=\"hapiHeaderText\">VTE_RiskAssess_DayAfAnes_ProcRvltDT <b>NUMERPASS </b></div><table class=\"hapiPropertyTable\"><tbody><tr><td>Identifier</td><td>c54dbc364ce913dfe300bd0f00b65409</td></tr><tr><td>Date of birth</td><td><span>02 January 1974</span></td></tr></tbody></table></div>"},"extension":[{"url":"http://hl7.org/fhir/us/core/StructureDefinition/us-core-race","extension":[{"url":"ombCategory","valueCoding":{"system":"urn:oid:2.16.840.1.113883.6.238","code":"1002-5","display":"American Indian or Alaska Native","userSelected":true}},{"url":"text","valueString":"American Indian or Alaska Native"}]},{"url":"http://hl7.org/fhir/us/core/StructureDefinition/us-core-ethnicity","extension":[{"url":"ombCategory","valueCoding":{"system":"urn:oid:2.16.840.1.113883.6.238","code":"2135-2","display":"Hispanic or Latino","userSelected":true}},{"url":"text","valueString":"Hispanic or Latino"}]}],"identifier":[{"type":{"coding":[{"system":"http://terminology.hl7.org/CodeSystem/v2-0203","code":"MR"}]},"system":"https://bonnie-fhir.healthit.gov/","value":"612e6b2c02c62a011f2ecb94"}],"active":true,"name":[{"use":"usual","family":"NUMERPass","given":["VTE_RiskAssess_DayAfAnes_ProcRvltDT"]}],"gender":"male","birthDate":"1974-01-02"},"request":{"method":"PUT","url":"Patient/a3e0cca4-bdb1-4972-b6ca-84841cb66859"}},{"fullUrl":"https://madie.cms.gov/Encounter/5ca62963b8484628b8de1f0b","resource":{"resourceType":"Encounter","id":"6b4e027c-80be-45f5-8d0c-4845d3c6487e","meta":{"profile":["http://hl7.org/fhir/us/qicore/StructureDefinition/qicore-encounter"]},"status":"finished","class":{"system":"http://terminology.hl7.org/CodeSystem/v3-ActCode","code":"IMP","display":"inpatient encounter"},"type":[{"coding":[{"system":"http://snomed.info/sct","code":"8715000"}]}],"subject":{"reference":"Patient/a3e0cca4-bdb1-4972-b6ca-84841cb66859"},"period":{"start":"2025-11-01T08:00:00+00:00","end":"2025-11-26T08:15:00+00:00"},"length":{"value":25.0,"unit":"days"}},"request":{"method":"PUT","url":"Encounter/6b4e027c-80be-45f5-8d0c-4845d3c6487e"}},{"fullUrl":"https://madie.cms.gov/Observation/5ca62963b8484628b8de1f0d","resource":{"resourceType":"Observation","id":"abcce80e-32c9-469d-ab1a-1308664a0aa9","meta":{"profile":["http://hl7.org/fhir/us/qicore/StructureDefinition/qicore-observation"]},"status":"amended","category":[{"coding":[{"system":"http://terminology.hl7.org/CodeSystem/observation-category","code":"exam","display":"exam"}]}],"code":{"coding":[{"system":"http://loinc.org","code":"72136-5"}]},"subject":{"reference":"Patient/a3e0cca4-bdb1-4972-b6ca-84841cb66859"},"effectiveDateTime":"2025-11-03T11:00:00+00:00","valueCodeableConcept":{"coding":[{"system":"http://snomed.info/sct","code":"260362008","display":"Low Risk"}]}},"request":{"method":"PUT","url":"Observation/abcce80e-32c9-469d-ab1a-1308664a0aa9"}},{"fullUrl":"https://madie.cms.gov/Coverage/5fa041491c76ba66d9959172","resource":{"resourceType":"Coverage","id":"eb4cfebd-6934-45ad-b16c-e44d2a7e0609","status":"active","beneficiary":{"reference":"Patient/a3e0cca4-bdb1-4972-b6ca-84841cb66859"},"period":{"start":"1974-01-02T08:00:00+00:00"},"payor":[{"reference":"Organization/4d7da20f-8773-4347-8f6b-80adcdcee1f4"}]},"request":{"method":"PUT","url":"Coverage/eb4cfebd-6934-45ad-b16c-e44d2a7e0609"}},{"fullUrl":"https://madie.cms.gov/Procedure/5ca62963b8484628b8de1f0c","resource":{"resourceType":"Procedure","id":"06439a85-ad8f-4665-b6d2-9138b9b7520d","meta":{"profile":["http://hl7.org/fhir/us/qicore/StructureDefinition/qicore-procedure"]},"extension":[{"url":"http://hl7.org/fhir/us/qicore/StructureDefinition/qicore-recorded","valueDateTime":"2025-11-03T09:35:00-04:00"}],"status":"completed","code":{"coding":[{"system":"http://snomed.info/sct","code":"18946005"}]},"subject":{"reference":"Patient/a3e0cca4-bdb1-4972-b6ca-84841cb66859"},"performedPeriod":{"end":"2025-11-02T09:15:00+00:00"}},"request":{"method":"PUT","url":"Procedure/06439a85-ad8f-4665-b6d2-9138b9b7520d"}},{"fullUrl":"https://madie.cms.gov/Organization/123456","resource":{"resourceType":"Organization","id":"4d7da20f-8773-4347-8f6b-80adcdcee1f4","meta":{"profile":["http://hl7.org/fhir/us/qicore/StructureDefinition/qicore-organization"]},"identifier":[{"use":"temp","system":"urn:oid:2.16.840.1.113883.4.4","value":"21-3259825"}],"active":true,"type":[{"coding":[{"system":"http://terminology.hl7.org/CodeSystem/organization-type","code":"pay","display":"Payer"}]}],"name":"Blue Cross Blue Shield of Texas","telecom":[{"system":"phone","value":"(+1) 972-766-6900"}],"address":[{"use":"billing","type":"postal","line":["P.O. Box 660044"],"city":"Dallas","state":"TX","postalCode":"75266-0044","country":"USA"}]},"request":{"method":"PUT","url":"Organization/4d7da20f-8773-4347-8f6b-80adcdcee1f4"}},{"fullUrl":"https://madie.cms.gov/Practitioner/practitioner-123456","resource":{"resourceType":"Practitioner","id":"3f4980f5-d948-422d-99d6-fd149cdac89c","identifier":[{"system":"http://hl7.org/fhir/sid/us-npi","value":"123456"}],"name":[{"family":"Evil","prefix":["Dr"]}]},"request":{"method":"PUT","url":"Practitioner/3f4980f5-d948-422d-99d6-fd149cdac89c"}},{"fullUrl":"https://madie.cms.gov/MeasureReport/d132dab8-422d-48e7-b0aa-b7350acef7d3","resource":{"resourceType":"MeasureReport","id":"d132dab8-422d-48e7-b0aa-b7350acef7d3","meta":{"profile":["http://hl7.org/fhir/us/cqfmeasures/StructureDefinition/test-case-cqfm"]},"contained":[{"resourceType":"Parameters","id":"27da131d-f768-4c72-b16b-85741adf5905-parameters","parameter":[{"name":"subject","valueString":"a3e0cca4-bdb1-4972-b6ca-84841cb66859"}]}],"extension":[{"url":"http://hl7.org/fhir/us/cqfmeasures/StructureDefinition/cqfm-inputParameters","valueReference":{"reference":"#27da131d-f768-4c72-b16b-85741adf5905-parameters"}},{"url":"http://hl7.org/fhir/us/cqfmeasures/StructureDefinition/cqfm-testCaseDescription","valueMarkdown":"risk assessment done  1 day after the end of anesthesia as RevelantDateime, result is low risk\n"}],"modifierExtension":[{"url":"http://hl7.org/fhir/us/cqfmeasures/StructureDefinition/cqfm-isTestCase","valueBoolean":true}],"status":"complete","type":"individual","measure":"https://madie.cms.gov/Measure/VenousThromboembolismProphylaxisFHIR","period":{"start":"2025-01-01","end":"2025-12-31"},"group":[{"population":[{"code":{"coding":[{"system":"http://terminology.hl7.org/CodeSystem/measure-population","code":"initial-population","display":"Initial Population"}]},"count":1},{"code":{"coding":[{"system":"http://terminology.hl7.org/CodeSystem/measure-population","code":"denominator","display":"Denominator"}]},"count":1},{"code":{"coding":[{"system":"http://terminology.hl7.org/CodeSystem/measure-population","code":"denominator-exclusion","display":"Denominator Exclusion"}]},"count":0},{"code":{"coding":[{"system":"http://terminology.hl7.org/CodeSystem/measure-population","code":"numerator","display":"Numerator"}]},"count":1}]}]},"request":{"method":"PUT","url":"MeasureReport/d132dab8-422d-48e7-b0aa-b7350acef7d3"}}]}