{"resourceType":"Bundle","id":"tests-5741c41a-04ec-4967-83b2-b0d746bd0ed5-bundle","type":"transaction","entry":[{"fullUrl":"https://madie.cms.gov/Patient/5741c41a-04ec-4967-83b2-b0d746bd0ed5","resource":{"resourceType":"Patient","id":"5741c41a-04ec-4967-83b2-b0d746bd0ed5","meta":{"profile":["http://hl7.org/fhir/us/qicore/StructureDefinition/qicore-patient"]},"text":{"status":"generated","div":"<div xmlns=\"http://www.w3.org/1999/xhtml\"><div class=\"hapiHeaderText\">INRGT3_1DayAFEnc <b>NUMERPASS </b></div><table class=\"hapiPropertyTable\"><tbody><tr><td>Identifier</td><td>349f9a26f7e54660aa55a3feeea5c73c</td></tr><tr><td>Date of birth</td><td><span>02 January 1974</span></td></tr></tbody></table></div>"},"extension":[{"url":"http://hl7.org/fhir/us/core/StructureDefinition/us-core-race","extension":[{"url":"ombCategory","valueCoding":{"system":"urn:oid:2.16.840.1.113883.6.238","code":"1002-5","display":"American Indian or Alaska Native","userSelected":true}},{"url":"text","valueString":"American Indian or Alaska Native"}]},{"url":"http://hl7.org/fhir/us/core/StructureDefinition/us-core-ethnicity","extension":[{"url":"ombCategory","valueCoding":{"system":"urn:oid:2.16.840.1.113883.6.238","code":"2135-2","display":"Hispanic or Latino","userSelected":true}},{"url":"text","valueString":"Hispanic or Latino"}]}],"identifier":[{"type":{"coding":[{"system":"http://terminology.hl7.org/CodeSystem/v2-0203","code":"MR"}]},"system":"https://bonnie-fhir.healthit.gov/","value":"612e6a6602c62a011f2e9f67"}],"active":true,"name":[{"use":"usual","family":"NUMERPass","given":["INRGT3_1DayAFEnc"]}],"gender":"male","birthDate":"1974-01-02"},"request":{"method":"PUT","url":"Patient/5741c41a-04ec-4967-83b2-b0d746bd0ed5"}},{"fullUrl":"https://madie.cms.gov/Encounter/5ca6295eb8484628b8de1d71","resource":{"resourceType":"Encounter","id":"96a79f5f-764b-4ab7-a170-898acd9750b4","meta":{"profile":["http://hl7.org/fhir/us/qicore/StructureDefinition/qicore-encounter"]},"status":"finished","class":{"system":"http://terminology.hl7.org/CodeSystem/v3-ActCode","code":"IMP","display":"inpatient encounter"},"type":[{"coding":[{"system":"http://snomed.info/sct","code":"8715000"}]}],"subject":{"reference":"Patient/5741c41a-04ec-4967-83b2-b0d746bd0ed5"},"period":{"start":"2025-11-01T08:00:00+00:00","end":"2025-11-26T08:15:00+00:00"},"length":{"value":25.0,"unit":"days"}},"request":{"method":"PUT","url":"Encounter/96a79f5f-764b-4ab7-a170-898acd9750b4"}},{"fullUrl":"https://madie.cms.gov/Coverage/5fa0414c1c76ba66d99591a5","resource":{"resourceType":"Coverage","id":"cf86f646-dcef-4b1e-b7bf-c9999f26a0f3","status":"active","beneficiary":{"reference":"Patient/5741c41a-04ec-4967-83b2-b0d746bd0ed5"},"period":{"start":"1974-01-02T08:00:00+00:00"},"payor":[{"reference":"Organization/a6c3e6fa-301e-4714-9d04-3dde9a7e7c49"}]},"request":{"method":"PUT","url":"Coverage/cf86f646-dcef-4b1e-b7bf-c9999f26a0f3"}},{"fullUrl":"https://madie.cms.gov/Observation/5ca6295eb8484628b8de1d72","resource":{"resourceType":"Observation","id":"d9f744ba-944d-44e6-90de-2a50c814b5ab","meta":{"profile":["http://hl7.org/fhir/us/core/StructureDefinition/us-core-observation-lab"]},"status":"amended","category":[{"coding":[{"system":"http://terminology.hl7.org/CodeSystem/observation-category","code":"laboratory","display":"Laboratory"}]}],"code":{"coding":[{"system":"http://loinc.org","code":"34714-6"}]},"subject":{"reference":"Patient/5741c41a-04ec-4967-83b2-b0d746bd0ed5"},"issued":"2025-11-01T09:00:00.000+00:00","valueQuantity":{"value":3.5,"unit":"{INR}"}},"request":{"method":"PUT","url":"Observation/d9f744ba-944d-44e6-90de-2a50c814b5ab"}},{"fullUrl":"https://madie.cms.gov/Organization/123456","resource":{"resourceType":"Organization","id":"a6c3e6fa-301e-4714-9d04-3dde9a7e7c49","meta":{"profile":["http://hl7.org/fhir/us/qicore/StructureDefinition/qicore-organization"]},"identifier":[{"use":"temp","system":"urn:oid:2.16.840.1.113883.4.4","value":"21-3259825"}],"active":true,"type":[{"coding":[{"system":"http://terminology.hl7.org/CodeSystem/organization-type","code":"pay","display":"Payer"}]}],"name":"Blue Cross Blue Shield of Texas","telecom":[{"system":"phone","value":"(+1) 972-766-6900"}],"address":[{"use":"billing","type":"postal","line":["P.O. Box 660044"],"city":"Dallas","state":"TX","postalCode":"75266-0044","country":"USA"}]},"request":{"method":"PUT","url":"Organization/a6c3e6fa-301e-4714-9d04-3dde9a7e7c49"}},{"fullUrl":"https://madie.cms.gov/Practitioner/practitioner-123456","resource":{"resourceType":"Practitioner","id":"b52964d8-eaee-4afa-8448-2becd95fc5b9","identifier":[{"system":"http://hl7.org/fhir/sid/us-npi","value":"123456"}],"name":[{"family":"Evil","prefix":["Dr"]}]},"request":{"method":"PUT","url":"Practitioner/b52964d8-eaee-4afa-8448-2becd95fc5b9"}},{"fullUrl":"https://madie.cms.gov/MeasureReport/a6444f77-c4e2-4cb1-b9ad-8b9c2886afec","resource":{"resourceType":"MeasureReport","id":"a6444f77-c4e2-4cb1-b9ad-8b9c2886afec","meta":{"profile":["http://hl7.org/fhir/us/cqfmeasures/StructureDefinition/test-case-cqfm"]},"contained":[{"resourceType":"Parameters","id":"34ed0512-9f27-4eae-a668-4b2c9b160e84-parameters","parameter":[{"name":"subject","valueString":"5741c41a-04ec-4967-83b2-b0d746bd0ed5"}]}],"extension":[{"url":"http://hl7.org/fhir/us/cqfmeasures/StructureDefinition/cqfm-inputParameters","valueReference":{"reference":"#34ed0512-9f27-4eae-a668-4b2c9b160e84-parameters"}},{"url":"http://hl7.org/fhir/us/cqfmeasures/StructureDefinition/cqfm-testCaseDescription","valueMarkdown":"INR > 3 = 1 day after start of IP encounter\n"}],"modifierExtension":[{"url":"http://hl7.org/fhir/us/cqfmeasures/StructureDefinition/cqfm-isTestCase","valueBoolean":true}],"status":"complete","type":"individual","measure":"https://madie.cms.gov/Measure/VenousThromboembolismProphylaxisFHIR","period":{"start":"2025-01-01","end":"2025-12-31"},"group":[{"population":[{"code":{"coding":[{"system":"http://terminology.hl7.org/CodeSystem/measure-population","code":"initial-population","display":"Initial Population"}]},"count":1},{"code":{"coding":[{"system":"http://terminology.hl7.org/CodeSystem/measure-population","code":"denominator","display":"Denominator"}]},"count":1},{"code":{"coding":[{"system":"http://terminology.hl7.org/CodeSystem/measure-population","code":"denominator-exclusion","display":"Denominator Exclusion"}]},"count":0},{"code":{"coding":[{"system":"http://terminology.hl7.org/CodeSystem/measure-population","code":"numerator","display":"Numerator"}]},"count":1}]}]},"request":{"method":"PUT","url":"MeasureReport/a6444f77-c4e2-4cb1-b9ad-8b9c2886afec"}}]}