{"resourceType":"Bundle","id":"tests-1cc5371c-a4d4-4912-a9be-76d2b31e1edd-bundle","type":"transaction","entry":[{"fullUrl":"https://madie.cms.gov/Patient/1cc5371c-a4d4-4912-a9be-76d2b31e1edd","resource":{"resourceType":"Patient","id":"1cc5371c-a4d4-4912-a9be-76d2b31e1edd","meta":{"profile":["http://hl7.org/fhir/us/qicore/StructureDefinition/qicore-patient"]},"text":{"status":"generated","div":"<div xmlns=\"http://www.w3.org/1999/xhtml\"><div class=\"hapiHeaderText\">VTE_RiskAssess_ED <b>NUMERPASS </b></div><table class=\"hapiPropertyTable\"><tbody><tr><td>Identifier</td><td>a29965ceec8340c6fb3a5567ca0595ba</td></tr><tr><td>Date of birth</td><td><span>02 January 1974</span></td></tr></tbody></table></div>"},"extension":[{"url":"http://hl7.org/fhir/us/core/StructureDefinition/us-core-race","extension":[{"url":"ombCategory","valueCoding":{"system":"urn:oid:2.16.840.1.113883.6.238","code":"1002-5","display":"American Indian or Alaska Native","userSelected":true}},{"url":"text","valueString":"American Indian or Alaska Native"}]},{"url":"http://hl7.org/fhir/us/core/StructureDefinition/us-core-ethnicity","extension":[{"url":"ombCategory","valueCoding":{"system":"urn:oid:2.16.840.1.113883.6.238","code":"2135-2","display":"Hispanic or Latino","userSelected":true}},{"url":"text","valueString":"Hispanic or Latino"}]}],"identifier":[{"type":{"coding":[{"system":"http://terminology.hl7.org/CodeSystem/v2-0203","code":"MR"}]},"system":"https://bonnie-fhir.healthit.gov/","value":"612e6b5a02c62a011f2ed71d"}],"active":true,"name":[{"use":"usual","family":"NUMERPass","given":["VTE_RiskAssess_ED"]}],"gender":"male","birthDate":"1974-01-02"},"request":{"method":"PUT","url":"Patient/1cc5371c-a4d4-4912-a9be-76d2b31e1edd"}},{"fullUrl":"https://madie.cms.gov/Encounter/5ca62964b8484628b8de1f40","resource":{"resourceType":"Encounter","id":"8d9b5dc7-4ce8-4a46-996f-a5b69a497e58","meta":{"profile":["http://hl7.org/fhir/us/qicore/StructureDefinition/qicore-encounter"]},"status":"finished","class":{"system":"http://terminology.hl7.org/CodeSystem/v3-ActCode","code":"EMER","display":"emergency"},"type":[{"coding":[{"system":"http://snomed.info/sct","code":"4525004"}]}],"subject":{"reference":"Patient/1cc5371c-a4d4-4912-a9be-76d2b31e1edd"},"period":{"start":"2025-10-31T23:00:00+00:00","end":"2025-11-01T07:15:00+00:00"},"length":{"value":1.0,"unit":"days"}},"request":{"method":"PUT","url":"Encounter/8d9b5dc7-4ce8-4a46-996f-a5b69a497e58"}},{"fullUrl":"https://madie.cms.gov/Encounter/5ca62964b8484628b8de1f41","resource":{"resourceType":"Encounter","id":"0a1dcc52-dedc-4b66-86e5-8fd15f526405","meta":{"profile":["http://hl7.org/fhir/us/qicore/StructureDefinition/qicore-encounter"]},"status":"finished","class":{"system":"http://terminology.hl7.org/CodeSystem/v3-ActCode","code":"IMP","display":"inpatient encounter"},"type":[{"coding":[{"system":"http://snomed.info/sct","code":"8715000"}]}],"subject":{"reference":"Patient/1cc5371c-a4d4-4912-a9be-76d2b31e1edd"},"period":{"start":"2025-11-01T08:00:00+00:00","end":"2025-11-26T08:15:00+00:00"},"length":{"value":25.0,"unit":"days"}},"request":{"method":"PUT","url":"Encounter/0a1dcc52-dedc-4b66-86e5-8fd15f526405"}},{"fullUrl":"https://madie.cms.gov/Observation/5ca62964b8484628b8de1f42","resource":{"resourceType":"Observation","id":"b1e6ed14-9d4e-4b6e-b71b-3b53dfa3c8e2","meta":{"profile":["http://hl7.org/fhir/us/qicore/StructureDefinition/qicore-observation"]},"status":"corrected","category":[{"coding":[{"system":"http://terminology.hl7.org/CodeSystem/observation-category","code":"exam","display":"exam"}]}],"code":{"coding":[{"system":"http://loinc.org","code":"72136-5"}]},"subject":{"reference":"Patient/1cc5371c-a4d4-4912-a9be-76d2b31e1edd"},"effectiveDateTime":"2025-11-01T06:00:00+00:00","valueCodeableConcept":{"coding":[{"system":"http://snomed.info/sct","code":"260362008","display":"Low Risk"}]}},"request":{"method":"PUT","url":"Observation/b1e6ed14-9d4e-4b6e-b71b-3b53dfa3c8e2"}},{"fullUrl":"https://madie.cms.gov/Coverage/5fa0415a1c76ba66d99592a1","resource":{"resourceType":"Coverage","id":"d30f711f-3853-4dfb-ab97-2463da5ba5af","status":"active","beneficiary":{"reference":"Patient/1cc5371c-a4d4-4912-a9be-76d2b31e1edd"},"period":{"start":"1974-01-02T08:00:00+00:00"},"payor":[{"reference":"Organization/80e3e0d1-b2aa-43a6-b1d2-00bfa3164a0f"}]},"request":{"method":"PUT","url":"Coverage/d30f711f-3853-4dfb-ab97-2463da5ba5af"}},{"fullUrl":"https://madie.cms.gov/Organization/123456","resource":{"resourceType":"Organization","id":"80e3e0d1-b2aa-43a6-b1d2-00bfa3164a0f","meta":{"profile":["http://hl7.org/fhir/us/qicore/StructureDefinition/qicore-organization"]},"identifier":[{"use":"temp","system":"urn:oid:2.16.840.1.113883.4.4","value":"21-3259825"}],"active":true,"type":[{"coding":[{"system":"http://terminology.hl7.org/CodeSystem/organization-type","code":"pay","display":"Payer"}]}],"name":"Blue Cross Blue Shield of Texas","telecom":[{"system":"phone","value":"(+1) 972-766-6900"}],"address":[{"use":"billing","type":"postal","line":["P.O. Box 660044"],"city":"Dallas","state":"TX","postalCode":"75266-0044","country":"USA"}]},"request":{"method":"PUT","url":"Organization/80e3e0d1-b2aa-43a6-b1d2-00bfa3164a0f"}},{"fullUrl":"https://madie.cms.gov/Practitioner/practitioner-123456","resource":{"resourceType":"Practitioner","id":"d4e7a157-2cae-40c5-8a73-2bfaa10181d3","identifier":[{"system":"http://hl7.org/fhir/sid/us-npi","value":"123456"}],"name":[{"family":"Evil","prefix":["Dr"]}]},"request":{"method":"PUT","url":"Practitioner/d4e7a157-2cae-40c5-8a73-2bfaa10181d3"}},{"fullUrl":"https://madie.cms.gov/MeasureReport/dc3af0ee-81dd-489e-8ec5-71015b29a4d5","resource":{"resourceType":"MeasureReport","id":"dc3af0ee-81dd-489e-8ec5-71015b29a4d5","meta":{"profile":["http://hl7.org/fhir/us/cqfmeasures/StructureDefinition/test-case-cqfm"]},"contained":[{"resourceType":"Parameters","id":"b640aa55-ccda-4e05-9a6f-abca0393da98-parameters","parameter":[{"name":"subject","valueString":"1cc5371c-a4d4-4912-a9be-76d2b31e1edd"}]}],"extension":[{"url":"http://hl7.org/fhir/us/cqfmeasures/StructureDefinition/cqfm-inputParameters","valueReference":{"reference":"#b640aa55-ccda-4e05-9a6f-abca0393da98-parameters"}},{"url":"http://hl7.org/fhir/us/cqfmeasures/StructureDefinition/cqfm-testCaseDescription","valueMarkdown":">18, LOS<120 day, VTE Risk Assess during ED\n"}],"modifierExtension":[{"url":"http://hl7.org/fhir/us/cqfmeasures/StructureDefinition/cqfm-isTestCase","valueBoolean":true}],"status":"complete","type":"individual","measure":"https://madie.cms.gov/Measure/VenousThromboembolismProphylaxisFHIR","period":{"start":"2025-01-01","end":"2025-12-31"},"group":[{"population":[{"code":{"coding":[{"system":"http://terminology.hl7.org/CodeSystem/measure-population","code":"initial-population","display":"Initial Population"}]},"count":1},{"code":{"coding":[{"system":"http://terminology.hl7.org/CodeSystem/measure-population","code":"denominator","display":"Denominator"}]},"count":1},{"code":{"coding":[{"system":"http://terminology.hl7.org/CodeSystem/measure-population","code":"denominator-exclusion","display":"Denominator Exclusion"}]},"count":0},{"code":{"coding":[{"system":"http://terminology.hl7.org/CodeSystem/measure-population","code":"numerator","display":"Numerator"}]},"count":1}]}]},"request":{"method":"PUT","url":"MeasureReport/dc3af0ee-81dd-489e-8ec5-71015b29a4d5"}}]}