{"resourceType":"Bundle","id":"tests-4367cc89-c597-45b8-99b9-ccf6c84f2929-bundle","type":"transaction","entry":[{"fullUrl":"https://madie.cms.gov/Patient/4367cc89-c597-45b8-99b9-ccf6c84f2929","resource":{"resourceType":"Patient","id":"4367cc89-c597-45b8-99b9-ccf6c84f2929","meta":{"profile":["http://hl7.org/fhir/us/qicore/StructureDefinition/qicore-patient"]},"text":{"status":"generated","div":"<div xmlns=\"http://www.w3.org/1999/xhtml\"><div class=\"hapiHeaderText\">MA_Warfarin_DayOfAnes <b>NUMERPASS </b></div><table class=\"hapiPropertyTable\"><tbody><tr><td>Identifier</td><td>8a73949853d1489520b4f85cece6c975</td></tr><tr><td>Date of birth</td><td><span>02 January 1974</span></td></tr></tbody></table></div>"},"extension":[{"url":"http://hl7.org/fhir/us/core/StructureDefinition/us-core-race","extension":[{"url":"ombCategory","valueCoding":{"system":"urn:oid:2.16.840.1.113883.6.238","code":"1002-5","display":"American Indian or Alaska Native","userSelected":true}},{"url":"text","valueString":"American Indian or Alaska Native"}]},{"url":"http://hl7.org/fhir/us/core/StructureDefinition/us-core-ethnicity","extension":[{"url":"ombCategory","valueCoding":{"system":"urn:oid:2.16.840.1.113883.6.238","code":"2135-2","display":"Hispanic or Latino","userSelected":true}},{"url":"text","valueString":"Hispanic or Latino"}]}],"identifier":[{"type":{"coding":[{"system":"http://terminology.hl7.org/CodeSystem/v2-0203","code":"MR"}]},"system":"https://bonnie-fhir.healthit.gov/","value":"612e6a5e02c62a011f2e9d40"}],"active":true,"name":[{"use":"usual","family":"NUMERPass","given":["MA_Warfarin_DayOfAnes"]}],"gender":"male","birthDate":"1974-01-02"},"request":{"method":"PUT","url":"Patient/4367cc89-c597-45b8-99b9-ccf6c84f2929"}},{"fullUrl":"https://madie.cms.gov/Encounter/5ca6295cb8484628b8de1d36","resource":{"resourceType":"Encounter","id":"34102a29-586b-47e7-8d6b-4a24bf7752be","meta":{"profile":["http://hl7.org/fhir/us/qicore/StructureDefinition/qicore-encounter"]},"status":"finished","class":{"system":"http://terminology.hl7.org/CodeSystem/v3-ActCode","code":"IMP","display":"inpatient encounter"},"type":[{"coding":[{"system":"http://snomed.info/sct","code":"8715000"}]}],"subject":{"reference":"Patient/4367cc89-c597-45b8-99b9-ccf6c84f2929"},"period":{"start":"2025-11-01T08:00:00+00:00","end":"2025-11-26T08:15:00+00:00"},"length":{"value":25.0,"unit":"days"}},"request":{"method":"PUT","url":"Encounter/34102a29-586b-47e7-8d6b-4a24bf7752be"}},{"fullUrl":"https://madie.cms.gov/Coverage/5fa041491c76ba66d995916f","resource":{"resourceType":"Coverage","id":"171fd6bc-ae80-4c56-9d9a-6753f349df30","status":"active","beneficiary":{"reference":"Patient/4367cc89-c597-45b8-99b9-ccf6c84f2929"},"period":{"start":"1974-01-02T08:00:00+00:00"},"payor":[{"reference":"Organization/41c75c00-82d9-4ab2-98f6-cfaf7fc3381d"}]},"request":{"method":"PUT","url":"Coverage/171fd6bc-ae80-4c56-9d9a-6753f349df30"}},{"fullUrl":"https://madie.cms.gov/MedicationAdministration/5ca6295cb8484628b8de1d37","resource":{"resourceType":"MedicationAdministration","id":"aff1e21d-b82d-4a05-9983-6451fa05dcdb","meta":{"profile":["http://hl7.org/fhir/us/qicore/StructureDefinition/qicore-medicationadministration"]},"status":"completed","medicationCodeableConcept":{"coding":[{"system":"http://www.nlm.nih.gov/research/umls/rxnorm","code":"855288"}]},"subject":{"reference":"Patient/4367cc89-c597-45b8-99b9-ccf6c84f2929"},"effectivePeriod":{"start":"2025-11-01T10:00:00+00:00","end":"2025-12-02T08:15:00+00:00"}},"request":{"method":"PUT","url":"MedicationAdministration/aff1e21d-b82d-4a05-9983-6451fa05dcdb"}},{"fullUrl":"https://madie.cms.gov/Procedure/5ca6295cb8484628b8de1d38","resource":{"resourceType":"Procedure","id":"87353069-a1a9-4063-8861-c91683bcef01","meta":{"profile":["http://hl7.org/fhir/us/qicore/StructureDefinition/qicore-procedure"]},"extension":[{"url":"http://hl7.org/fhir/us/qicore/StructureDefinition/qicore-recorded","valueDateTime":"2012-11-01T09:35:00-04:00"}],"status":"completed","code":{"coding":[{"system":"http://www.icd10data.com/icd10pcs","code":"3E030FZ"},{"system":"http://snomed.info/sct","code":"18946005"}]},"subject":{"reference":"Patient/4367cc89-c597-45b8-99b9-ccf6c84f2929"},"performedPeriod":{"start":"2025-11-01T09:00:00+00:00","end":"2025-11-01T09:15:00+00:00"}},"request":{"method":"PUT","url":"Procedure/87353069-a1a9-4063-8861-c91683bcef01"}},{"fullUrl":"https://madie.cms.gov/Organization/123456","resource":{"resourceType":"Organization","id":"41c75c00-82d9-4ab2-98f6-cfaf7fc3381d","meta":{"profile":["http://hl7.org/fhir/us/qicore/StructureDefinition/qicore-organization"]},"identifier":[{"use":"temp","system":"urn:oid:2.16.840.1.113883.4.4","value":"21-3259825"}],"active":true,"type":[{"coding":[{"system":"http://terminology.hl7.org/CodeSystem/organization-type","code":"pay","display":"Payer"}]}],"name":"Blue Cross Blue Shield of Texas","telecom":[{"system":"phone","value":"(+1) 972-766-6900"}],"address":[{"use":"billing","type":"postal","line":["P.O. Box 660044"],"city":"Dallas","state":"TX","postalCode":"75266-0044","country":"USA"}]},"request":{"method":"PUT","url":"Organization/41c75c00-82d9-4ab2-98f6-cfaf7fc3381d"}},{"fullUrl":"https://madie.cms.gov/Practitioner/practitioner-123456","resource":{"resourceType":"Practitioner","id":"dc221037-ddb2-491e-b7cd-bc432dddc95a","identifier":[{"system":"http://hl7.org/fhir/sid/us-npi","value":"123456"}],"name":[{"family":"Evil","prefix":["Dr"]}]},"request":{"method":"PUT","url":"Practitioner/dc221037-ddb2-491e-b7cd-bc432dddc95a"}},{"fullUrl":"https://madie.cms.gov/MeasureReport/372eca0b-9c7c-4f7f-88de-15eadb134bc7","resource":{"resourceType":"MeasureReport","id":"372eca0b-9c7c-4f7f-88de-15eadb134bc7","meta":{"profile":["http://hl7.org/fhir/us/cqfmeasures/StructureDefinition/test-case-cqfm"]},"contained":[{"resourceType":"Parameters","id":"94d58a7f-24b5-40fc-ae3b-a8a7f5944f15-parameters","parameter":[{"name":"subject","valueString":"4367cc89-c597-45b8-99b9-ccf6c84f2929"}]}],"extension":[{"url":"http://hl7.org/fhir/us/cqfmeasures/StructureDefinition/cqfm-inputParameters","valueReference":{"reference":"#94d58a7f-24b5-40fc-ae3b-a8a7f5944f15-parameters"}},{"url":"http://hl7.org/fhir/us/cqfmeasures/StructureDefinition/cqfm-testCaseDescription","valueMarkdown":"warfarin given = 0 day after end of anesthesia\n"}],"modifierExtension":[{"url":"http://hl7.org/fhir/us/cqfmeasures/StructureDefinition/cqfm-isTestCase","valueBoolean":true}],"status":"complete","type":"individual","measure":"https://madie.cms.gov/Measure/VenousThromboembolismProphylaxisFHIR","period":{"start":"2025-01-01","end":"2025-12-31"},"group":[{"population":[{"code":{"coding":[{"system":"http://terminology.hl7.org/CodeSystem/measure-population","code":"initial-population","display":"Initial Population"}]},"count":1},{"code":{"coding":[{"system":"http://terminology.hl7.org/CodeSystem/measure-population","code":"denominator","display":"Denominator"}]},"count":1},{"code":{"coding":[{"system":"http://terminology.hl7.org/CodeSystem/measure-population","code":"denominator-exclusion","display":"Denominator Exclusion"}]},"count":0},{"code":{"coding":[{"system":"http://terminology.hl7.org/CodeSystem/measure-population","code":"numerator","display":"Numerator"}]},"count":1}]}]},"request":{"method":"PUT","url":"MeasureReport/372eca0b-9c7c-4f7f-88de-15eadb134bc7"}}]}