{"resourceType":"Bundle","id":"tests-9696b1d1-693b-42f8-96a2-95f379e245a4-bundle","type":"transaction","entry":[{"fullUrl":"https://madie.cms.gov/Patient/9696b1d1-693b-42f8-96a2-95f379e245a4","resource":{"resourceType":"Patient","id":"9696b1d1-693b-42f8-96a2-95f379e245a4","meta":{"profile":["http://hl7.org/fhir/us/qicore/StructureDefinition/qicore-patient"]},"text":{"status":"generated","div":"<div xmlns=\"http://www.w3.org/1999/xhtml\"><div class=\"hapiHeaderText\">MA_RixDuringED <b>NUMERPASS </b></div><table class=\"hapiPropertyTable\"><tbody><tr><td>Identifier</td><td>9ac41bff10ef3353d0742df1f73dc984</td></tr><tr><td>Date of birth</td><td><span>02 January 1974</span></td></tr></tbody></table></div>"},"extension":[{"url":"http://hl7.org/fhir/us/core/StructureDefinition/us-core-race","extension":[{"url":"ombCategory","valueCoding":{"system":"urn:oid:2.16.840.1.113883.6.238","code":"1002-5","display":"American Indian or Alaska Native","userSelected":true}},{"url":"text","valueString":"American Indian or Alaska Native"}]},{"url":"http://hl7.org/fhir/us/core/StructureDefinition/us-core-ethnicity","extension":[{"url":"ombCategory","valueCoding":{"system":"urn:oid:2.16.840.1.113883.6.238","code":"2135-2","display":"Hispanic or Latino","userSelected":true}},{"url":"text","valueString":"Hispanic or Latino"}]}],"identifier":[{"type":{"coding":[{"system":"http://terminology.hl7.org/CodeSystem/v2-0203","code":"MR"}]},"system":"https://bonnie-fhir.healthit.gov/","value":"612e6b0e02c62a011f2ec40a"}],"active":true,"name":[{"use":"usual","family":"NUMERPass","given":["MA_RixDuringED"]}],"gender":"male","birthDate":"1974-01-02"},"request":{"method":"PUT","url":"Patient/9696b1d1-693b-42f8-96a2-95f379e245a4"}},{"fullUrl":"https://madie.cms.gov/Encounter/5ca6295db8484628b8de1d66","resource":{"resourceType":"Encounter","id":"e391bc3d-6d5a-4c74-9781-347d3966c926","meta":{"profile":["http://hl7.org/fhir/us/qicore/StructureDefinition/qicore-encounter"]},"status":"finished","class":{"system":"http://terminology.hl7.org/CodeSystem/v3-ActCode","code":"IMP","display":"inpatient encounter"},"type":[{"coding":[{"system":"http://snomed.info/sct","code":"8715000"}]}],"subject":{"reference":"Patient/9696b1d1-693b-42f8-96a2-95f379e245a4"},"period":{"start":"2025-11-01T08:00:00+00:00","end":"2025-11-26T08:15:00+00:00"},"length":{"value":25.0,"unit":"days"}},"request":{"method":"PUT","url":"Encounter/e391bc3d-6d5a-4c74-9781-347d3966c926"}},{"fullUrl":"https://madie.cms.gov/Encounter/5e21d43bf9757500009eda17","resource":{"resourceType":"Encounter","id":"69761e52-3bd6-4ab2-b38e-6b32ef8a18db","meta":{"profile":["http://hl7.org/fhir/us/qicore/StructureDefinition/qicore-encounter"]},"status":"finished","class":{"system":"http://terminology.hl7.org/CodeSystem/v3-ActCode","code":"EMER","display":"emergency"},"type":[{"coding":[{"system":"http://snomed.info/sct","code":"4525004"}]}],"subject":{"reference":"Patient/9696b1d1-693b-42f8-96a2-95f379e245a4"},"period":{"start":"2025-10-31T20:00:00+00:00","end":"2025-11-01T07:00:00+00:00"}},"request":{"method":"PUT","url":"Encounter/69761e52-3bd6-4ab2-b38e-6b32ef8a18db"}},{"fullUrl":"https://madie.cms.gov/Coverage/5fa041681c76ba66d995938e","resource":{"resourceType":"Coverage","id":"b2ce5547-3f2c-45f7-bb63-2ca781203fcd","status":"active","beneficiary":{"reference":"Patient/9696b1d1-693b-42f8-96a2-95f379e245a4"},"period":{"start":"1974-01-02T08:00:00+00:00"},"payor":[{"reference":"Organization/80573fa1-cf83-4e9a-8f21-86a018689678"}]},"request":{"method":"PUT","url":"Coverage/b2ce5547-3f2c-45f7-bb63-2ca781203fcd"}},{"fullUrl":"https://madie.cms.gov/MedicationAdministration/5fb481e52569bf0000ce4acf","resource":{"resourceType":"MedicationAdministration","id":"9306b74f-d8ef-4b1c-87e4-43f3552df9b0","meta":{"profile":["http://hl7.org/fhir/us/qicore/StructureDefinition/qicore-medicationadministration"]},"status":"completed","medicationCodeableConcept":{"coding":[{"system":"http://www.nlm.nih.gov/research/umls/rxnorm","code":"1114198"}]},"subject":{"reference":"Patient/9696b1d1-693b-42f8-96a2-95f379e245a4"},"effectivePeriod":{"start":"2025-10-31T09:00:00+00:00","end":"2025-10-31T09:15:00+00:00"}},"request":{"method":"PUT","url":"MedicationAdministration/9306b74f-d8ef-4b1c-87e4-43f3552df9b0"}},{"fullUrl":"https://madie.cms.gov/Organization/123456","resource":{"resourceType":"Organization","id":"80573fa1-cf83-4e9a-8f21-86a018689678","meta":{"profile":["http://hl7.org/fhir/us/qicore/StructureDefinition/qicore-organization"]},"identifier":[{"use":"temp","system":"urn:oid:2.16.840.1.113883.4.4","value":"21-3259825"}],"active":true,"type":[{"coding":[{"system":"http://terminology.hl7.org/CodeSystem/organization-type","code":"pay","display":"Payer"}]}],"name":"Blue Cross Blue Shield of Texas","telecom":[{"system":"phone","value":"(+1) 972-766-6900"}],"address":[{"use":"billing","type":"postal","line":["P.O. Box 660044"],"city":"Dallas","state":"TX","postalCode":"75266-0044","country":"USA"}]},"request":{"method":"PUT","url":"Organization/80573fa1-cf83-4e9a-8f21-86a018689678"}},{"fullUrl":"https://madie.cms.gov/MeasureReport/d003d70a-e4d9-445a-99a6-08d44df7b06c","resource":{"resourceType":"MeasureReport","id":"d003d70a-e4d9-445a-99a6-08d44df7b06c","meta":{"profile":["http://hl7.org/fhir/us/cqfmeasures/StructureDefinition/test-case-cqfm"]},"contained":[{"resourceType":"Parameters","id":"df7e7e4b-20eb-4966-896e-f18263361961-parameters","parameter":[{"name":"subject","valueString":"9696b1d1-693b-42f8-96a2-95f379e245a4"}]}],"extension":[{"url":"http://hl7.org/fhir/us/cqfmeasures/StructureDefinition/cqfm-inputParameters","valueReference":{"reference":"#df7e7e4b-20eb-4966-896e-f18263361961-parameters"}},{"url":"http://hl7.org/fhir/us/cqfmeasures/StructureDefinition/cqfm-testCaseDescription","valueMarkdown":"Rivaroxaban for VTE Prophylaxis Med Administered during ED which ED = 1 hr ends Adm\n"}],"modifierExtension":[{"url":"http://hl7.org/fhir/us/cqfmeasures/StructureDefinition/cqfm-isTestCase","valueBoolean":true}],"status":"complete","type":"individual","measure":"https://madie.cms.gov/Measure/VenousThromboembolismProphylaxisFHIR","period":{"start":"2025-01-01","end":"2025-12-31"},"group":[{"population":[{"code":{"coding":[{"system":"http://terminology.hl7.org/CodeSystem/measure-population","code":"initial-population","display":"Initial Population"}]},"count":1},{"code":{"coding":[{"system":"http://terminology.hl7.org/CodeSystem/measure-population","code":"denominator","display":"Denominator"}]},"count":1},{"code":{"coding":[{"system":"http://terminology.hl7.org/CodeSystem/measure-population","code":"denominator-exclusion","display":"Denominator Exclusion"}]},"count":0},{"code":{"coding":[{"system":"http://terminology.hl7.org/CodeSystem/measure-population","code":"numerator","display":"Numerator"}]},"count":1}]}]},"request":{"method":"PUT","url":"MeasureReport/d003d70a-e4d9-445a-99a6-08d44df7b06c"}}]}