{"resourceType":"Bundle","id":"tests-eda87b8e-5b2a-46f5-af96-a7c0b75131ec-bundle","type":"transaction","entry":[{"fullUrl":"https://madie.cms.gov/Patient/eda87b8e-5b2a-46f5-af96-a7c0b75131ec","resource":{"resourceType":"Patient","id":"eda87b8e-5b2a-46f5-af96-a7c0b75131ec","meta":{"profile":["http://hl7.org/fhir/us/qicore/StructureDefinition/qicore-patient"]},"text":{"status":"generated","div":"<div xmlns=\"http://www.w3.org/1999/xhtml\"><div class=\"hapiHeaderText\">ICUStartOnEncStartTime <b>DENEXPASS </b></div><table class=\"hapiPropertyTable\"><tbody><tr><td>Identifier</td><td>11bb5362fa7c7b63061d0c716b7b8ddb</td></tr><tr><td>Date of birth</td><td><span>02 January 1974</span></td></tr></tbody></table></div>"},"extension":[{"url":"http://hl7.org/fhir/us/core/StructureDefinition/us-core-race","extension":[{"url":"ombCategory","valueCoding":{"system":"urn:oid:2.16.840.1.113883.6.238","code":"1002-5","display":"American Indian or Alaska Native","userSelected":true}},{"url":"text","valueString":"American Indian or Alaska Native"}]},{"url":"http://hl7.org/fhir/us/core/StructureDefinition/us-core-ethnicity","extension":[{"url":"ombCategory","valueCoding":{"system":"urn:oid:2.16.840.1.113883.6.238","code":"2135-2","display":"Hispanic or Latino","userSelected":true}},{"url":"text","valueString":"Hispanic or Latino"}]}],"identifier":[{"type":{"coding":[{"system":"http://terminology.hl7.org/CodeSystem/v2-0203","code":"MR"}]},"system":"https://bonnie-fhir.healthit.gov/","value":"612e6b3a02c62a011f2ecf6d"}],"active":true,"name":[{"use":"usual","family":"DENEXPass","given":["ICUStartOnEncStartTime"]}],"gender":"male","birthDate":"1974-01-02"},"request":{"method":"PUT","url":"Patient/eda87b8e-5b2a-46f5-af96-a7c0b75131ec"}},{"fullUrl":"https://madie.cms.gov/Encounter/5ca62964b8484628b8de1f39","resource":{"resourceType":"Encounter","id":"39219fb5-973b-44df-bc89-b6d4a2799639","meta":{"profile":["http://hl7.org/fhir/us/qicore/StructureDefinition/qicore-encounter"]},"status":"finished","class":{"system":"http://terminology.hl7.org/CodeSystem/v3-ActCode","code":"IMP","display":"inpatient encounter"},"type":[{"coding":[{"system":"http://snomed.info/sct","code":"8715000"}]}],"subject":{"reference":"Patient/eda87b8e-5b2a-46f5-af96-a7c0b75131ec"},"period":{"start":"2025-11-01T08:00:00+00:00","end":"2025-11-26T08:15:00+00:00"},"length":{"value":25.0,"unit":"days"},"location":[{"location":{"reference":"Location/intensive-care-unit-1c39"},"period":{"start":"2025-11-01T08:00:00+00:00","end":"2025-11-03T18:15:00+00:00"}}]},"request":{"method":"PUT","url":"Encounter/39219fb5-973b-44df-bc89-b6d4a2799639"}},{"fullUrl":"https://madie.cms.gov/Coverage/5fa0414a1c76ba66d9959184","resource":{"resourceType":"Coverage","id":"f8e2b9fa-4c12-41f5-b2fe-e2a5be41772f","status":"active","beneficiary":{"reference":"Patient/eda87b8e-5b2a-46f5-af96-a7c0b75131ec"},"period":{"start":"1974-01-02T08:00:00+00:00"},"payor":[{"reference":"Organization/f4907415-83c5-4eae-ab0b-cb63a840880d"}]},"request":{"method":"PUT","url":"Coverage/f8e2b9fa-4c12-41f5-b2fe-e2a5be41772f"}},{"fullUrl":"https://madie.cms.gov/Location/intensive-care-unit-1c39","resource":{"resourceType":"Location","id":"0b7d6546-7e60-416a-9c03-dd4a5e8752b0","meta":{"profile":["http://hl7.org/fhir/us/qicore/StructureDefinition/qicore-location"]},"identifier":[{"use":"usual","system":"http://exampleoflocation.com","value":"B1-S.F2"}],"name":"Medical Surgical East, first floor","type":[{"coding":[{"system":"https://www.cdc.gov/nhsn/cdaportal/terminology/codesystem/hsloc.html","version":"2020","code":"1025-6","display":"Trauma Critical Care","userSelected":true}]}]},"request":{"method":"PUT","url":"Location/0b7d6546-7e60-416a-9c03-dd4a5e8752b0"}},{"fullUrl":"https://madie.cms.gov/Organization/123456","resource":{"resourceType":"Organization","id":"f4907415-83c5-4eae-ab0b-cb63a840880d","meta":{"profile":["http://hl7.org/fhir/us/qicore/StructureDefinition/qicore-organization"]},"identifier":[{"use":"temp","system":"urn:oid:2.16.840.1.113883.4.4","value":"21-3259825"}],"active":true,"type":[{"coding":[{"system":"http://terminology.hl7.org/CodeSystem/organization-type","code":"pay","display":"Payer"}]}],"name":"Blue Cross Blue Shield of Texas","telecom":[{"system":"phone","value":"(+1) 972-766-6900"}],"address":[{"use":"billing","type":"postal","line":["P.O. Box 660044"],"city":"Dallas","state":"TX","postalCode":"75266-0044","country":"USA"}]},"request":{"method":"PUT","url":"Organization/f4907415-83c5-4eae-ab0b-cb63a840880d"}},{"fullUrl":"https://madie.cms.gov/Practitioner/practitioner-123456","resource":{"resourceType":"Practitioner","id":"53eb2ec3-a46f-4f02-b721-28d7f1e5ef63","identifier":[{"system":"http://hl7.org/fhir/sid/us-npi","value":"123456"}],"name":[{"family":"Evil","prefix":["Dr"]}]},"request":{"method":"PUT","url":"Practitioner/53eb2ec3-a46f-4f02-b721-28d7f1e5ef63"}},{"fullUrl":"https://madie.cms.gov/MeasureReport/a8b43688-87dd-47ef-a720-e1b26778c7a5","resource":{"resourceType":"MeasureReport","id":"a8b43688-87dd-47ef-a720-e1b26778c7a5","meta":{"profile":["http://hl7.org/fhir/us/cqfmeasures/StructureDefinition/test-case-cqfm"]},"contained":[{"resourceType":"Parameters","id":"96b04436-07f9-42ca-b742-e9c6aa9f5b4a-parameters","parameter":[{"name":"subject","valueString":"eda87b8e-5b2a-46f5-af96-a7c0b75131ec"}]}],"extension":[{"url":"http://hl7.org/fhir/us/cqfmeasures/StructureDefinition/cqfm-inputParameters","valueReference":{"reference":"#96b04436-07f9-42ca-b742-e9c6aa9f5b4a-parameters"}},{"url":"http://hl7.org/fhir/us/cqfmeasures/StructureDefinition/cqfm-testCaseDescription","valueMarkdown":"ICU admission starts concurrent with start of EncInp\n"}],"modifierExtension":[{"url":"http://hl7.org/fhir/us/cqfmeasures/StructureDefinition/cqfm-isTestCase","valueBoolean":true}],"status":"complete","type":"individual","measure":"https://madie.cms.gov/Measure/VenousThromboembolismProphylaxisFHIR","period":{"start":"2025-01-01","end":"2025-12-31"},"group":[{"population":[{"code":{"coding":[{"system":"http://terminology.hl7.org/CodeSystem/measure-population","code":"initial-population","display":"Initial Population"}]},"count":1},{"code":{"coding":[{"system":"http://terminology.hl7.org/CodeSystem/measure-population","code":"denominator","display":"Denominator"}]},"count":1},{"code":{"coding":[{"system":"http://terminology.hl7.org/CodeSystem/measure-population","code":"denominator-exclusion","display":"Denominator Exclusion"}]},"count":1},{"code":{"coding":[{"system":"http://terminology.hl7.org/CodeSystem/measure-population","code":"numerator","display":"Numerator"}]},"count":0}]}]},"request":{"method":"PUT","url":"MeasureReport/a8b43688-87dd-47ef-a720-e1b26778c7a5"}}]}