{"resourceType":"Bundle","id":"tests-4c649ec3-846e-46e2-bee4-6ace6da48f68-bundle","type":"transaction","entry":[{"fullUrl":"https://madie.cms.gov/Patient/4c649ec3-846e-46e2-bee4-6ace6da48f68","resource":{"resourceType":"Patient","id":"4c649ec3-846e-46e2-bee4-6ace6da48f68","meta":{"profile":["http://hl7.org/fhir/us/qicore/StructureDefinition/qicore-patient"]},"text":{"status":"generated","div":"<div xmlns=\"http://www.w3.org/1999/xhtml\"><div class=\"hapiHeaderText\">INR3_WOdecimal <b>NUMERFAIL </b></div><table class=\"hapiPropertyTable\"><tbody><tr><td>Identifier</td><td>362034975be33d3d89eb2fe4e76abe5d</td></tr><tr><td>Date of birth</td><td><span>02 January 1974</span></td></tr></tbody></table></div>"},"extension":[{"url":"http://hl7.org/fhir/us/core/StructureDefinition/us-core-race","extension":[{"url":"ombCategory","valueCoding":{"system":"urn:oid:2.16.840.1.113883.6.238","code":"1002-5","display":"American Indian or Alaska Native","userSelected":true}},{"url":"text","valueString":"American Indian or Alaska Native"}]},{"url":"http://hl7.org/fhir/us/core/StructureDefinition/us-core-ethnicity","extension":[{"url":"ombCategory","valueCoding":{"system":"urn:oid:2.16.840.1.113883.6.238","code":"2135-2","display":"Hispanic or Latino","userSelected":true}},{"url":"text","valueString":"Hispanic or Latino"}]}],"identifier":[{"type":{"coding":[{"system":"http://terminology.hl7.org/CodeSystem/v2-0203","code":"MR"}]},"system":"https://bonnie-fhir.healthit.gov/","value":"612e6b4b02c62a011f2ed336"}],"active":true,"name":[{"use":"usual","family":"NUMERFail","given":["INR3WOdecimal"]}],"gender":"male","birthDate":"1974-01-02"},"request":{"method":"PUT","url":"Patient/4c649ec3-846e-46e2-bee4-6ace6da48f68"}},{"fullUrl":"https://madie.cms.gov/Encounter/5ca62960b8484628b8de1e6d","resource":{"resourceType":"Encounter","id":"66a2c67b-9e66-46fb-a7d8-9eb296f5df4f","meta":{"profile":["http://hl7.org/fhir/us/qicore/StructureDefinition/qicore-encounter"]},"status":"finished","class":{"system":"http://terminology.hl7.org/CodeSystem/v3-ActCode","code":"IMP","display":"inpatient encounter"},"type":[{"coding":[{"system":"http://snomed.info/sct","code":"8715000"}]}],"subject":{"reference":"Patient/4c649ec3-846e-46e2-bee4-6ace6da48f68"},"period":{"start":"2025-11-01T08:00:00+00:00","end":"2025-11-26T08:15:00+00:00"},"length":{"value":25.0,"unit":"days"}},"request":{"method":"PUT","url":"Encounter/66a2c67b-9e66-46fb-a7d8-9eb296f5df4f"}},{"fullUrl":"https://madie.cms.gov/Coverage/5fa041591c76ba66d9959283","resource":{"resourceType":"Coverage","id":"91b61919-449f-4ae2-980d-accdc5a446cf","status":"active","beneficiary":{"reference":"Patient/4c649ec3-846e-46e2-bee4-6ace6da48f68"},"period":{"start":"1974-01-02T08:00:00+00:00"},"payor":[{"reference":"Organization/3778262e-e084-4bb5-9a47-1a144735f786"}]},"request":{"method":"PUT","url":"Coverage/91b61919-449f-4ae2-980d-accdc5a446cf"}},{"fullUrl":"https://madie.cms.gov/Observation/5ca62960b8484628b8de1e6e","resource":{"resourceType":"Observation","id":"213d2e53-4a18-4edf-9567-eca0166b4209","meta":{"profile":["http://hl7.org/fhir/us/core/StructureDefinition/us-core-observation-lab"]},"status":"final","category":[{"coding":[{"system":"http://terminology.hl7.org/CodeSystem/observation-category","code":"laboratory","display":"Laboratory"}]}],"code":{"coding":[{"system":"http://loinc.org","code":"34714-6"}]},"subject":{"reference":"Patient/4c649ec3-846e-46e2-bee4-6ace6da48f68"},"issued":"2025-11-01T09:00:00.000+00:00","valueQuantity":{"value":3.0,"unit":"{INR}"}},"request":{"method":"PUT","url":"Observation/213d2e53-4a18-4edf-9567-eca0166b4209"}},{"fullUrl":"https://madie.cms.gov/Organization/123456","resource":{"resourceType":"Organization","id":"3778262e-e084-4bb5-9a47-1a144735f786","meta":{"profile":["http://hl7.org/fhir/us/qicore/StructureDefinition/qicore-organization"]},"identifier":[{"use":"temp","system":"urn:oid:2.16.840.1.113883.4.4","value":"21-3259825"}],"active":true,"type":[{"coding":[{"system":"http://terminology.hl7.org/CodeSystem/organization-type","code":"pay","display":"Payer"}]}],"name":"Blue Cross Blue Shield of Texas","telecom":[{"system":"phone","value":"(+1) 972-766-6900"}],"address":[{"use":"billing","type":"postal","line":["P.O. Box 660044"],"city":"Dallas","state":"TX","postalCode":"75266-0044","country":"USA"}]},"request":{"method":"PUT","url":"Organization/3778262e-e084-4bb5-9a47-1a144735f786"}},{"fullUrl":"https://madie.cms.gov/Practitioner/practitioner-123456","resource":{"resourceType":"Practitioner","id":"28a92f36-4218-47a5-8309-d6764d812d43","identifier":[{"system":"http://hl7.org/fhir/sid/us-npi","value":"123456"}],"name":[{"family":"Evil","prefix":["Dr"]}]},"request":{"method":"PUT","url":"Practitioner/28a92f36-4218-47a5-8309-d6764d812d43"}},{"fullUrl":"https://madie.cms.gov/MeasureReport/f755b8fb-2dac-4ed8-b0ef-9b170fc6c2d7","resource":{"resourceType":"MeasureReport","id":"f755b8fb-2dac-4ed8-b0ef-9b170fc6c2d7","meta":{"profile":["http://hl7.org/fhir/us/cqfmeasures/StructureDefinition/test-case-cqfm"]},"contained":[{"resourceType":"Parameters","id":"c48c8785-9afb-4b45-8317-36eac69c8ea8-parameters","parameter":[{"name":"subject","valueString":"4c649ec3-846e-46e2-bee4-6ace6da48f68"}]}],"extension":[{"url":"http://hl7.org/fhir/us/cqfmeasures/StructureDefinition/cqfm-inputParameters","valueReference":{"reference":"#c48c8785-9afb-4b45-8317-36eac69c8ea8-parameters"}},{"url":"http://hl7.org/fhir/us/cqfmeasures/StructureDefinition/cqfm-testCaseDescription","valueMarkdown":">18, LOS<120 day.Lab INR=3\n"}],"modifierExtension":[{"url":"http://hl7.org/fhir/us/cqfmeasures/StructureDefinition/cqfm-isTestCase","valueBoolean":true}],"status":"complete","type":"individual","measure":"https://madie.cms.gov/Measure/VenousThromboembolismProphylaxisFHIR","period":{"start":"2025-01-01","end":"2025-12-31"},"group":[{"population":[{"code":{"coding":[{"system":"http://terminology.hl7.org/CodeSystem/measure-population","code":"initial-population","display":"Initial Population"}]},"count":1},{"code":{"coding":[{"system":"http://terminology.hl7.org/CodeSystem/measure-population","code":"denominator","display":"Denominator"}]},"count":1},{"code":{"coding":[{"system":"http://terminology.hl7.org/CodeSystem/measure-population","code":"denominator-exclusion","display":"Denominator Exclusion"}]},"count":0},{"code":{"coding":[{"system":"http://terminology.hl7.org/CodeSystem/measure-population","code":"numerator","display":"Numerator"}]},"count":0}]}]},"request":{"method":"PUT","url":"MeasureReport/f755b8fb-2dac-4ed8-b0ef-9b170fc6c2d7"}}]}