{"resourceType":"Bundle","id":"tests-8961c16d-d6a2-4da2-bbe0-d66f7ed6d85a-bundle","type":"transaction","entry":[{"fullUrl":"https://madie.cms.gov/Patient/8961c16d-d6a2-4da2-bbe0-d66f7ed6d85a","resource":{"resourceType":"Patient","id":"8961c16d-d6a2-4da2-bbe0-d66f7ed6d85a","meta":{"profile":["http://hl7.org/fhir/us/qicore/StructureDefinition/qicore-patient"]},"text":{"status":"generated","div":"<div xmlns=\"http://www.w3.org/1999/xhtml\"><div class=\"hapiHeaderText\">CMPerfGT1DayAfterIPEnc <b>DENEXFAIL </b></div><table class=\"hapiPropertyTable\"><tbody><tr><td>Identifier</td><td>dcec2fd8df342b0e963fde01bb96af93</td></tr><tr><td>Date of birth</td><td><span>02 January 1974</span></td></tr></tbody></table></div>"},"extension":[{"url":"http://hl7.org/fhir/us/core/StructureDefinition/us-core-race","extension":[{"url":"ombCategory","valueCoding":{"system":"urn:oid:2.16.840.1.113883.6.238","code":"1002-5","display":"American Indian or Alaska Native","userSelected":true}},{"url":"text","valueString":"American Indian or Alaska Native"}]},{"url":"http://hl7.org/fhir/us/core/StructureDefinition/us-core-ethnicity","extension":[{"url":"ombCategory","valueCoding":{"system":"urn:oid:2.16.840.1.113883.6.238","code":"2135-2","display":"Hispanic or Latino","userSelected":true}},{"url":"text","valueString":"Hispanic or Latino"}]}],"identifier":[{"type":{"coding":[{"system":"http://terminology.hl7.org/CodeSystem/v2-0203","code":"MR"}]},"system":"https://bonnie-fhir.healthit.gov/","value":"612e6b4402c62a011f2ed1e1"}],"active":true,"name":[{"use":"usual","family":"DENEXFail","given":["CMPerfGT1DayAfterIPEnc"]}],"gender":"male","birthDate":"1974-01-02"},"request":{"method":"PUT","url":"Patient/8961c16d-d6a2-4da2-bbe0-d66f7ed6d85a"}},{"fullUrl":"https://madie.cms.gov/Encounter/5ca6295db8484628b8de1d63","resource":{"resourceType":"Encounter","id":"c82f85ee-3a76-49c4-8fb5-336a0baac505","meta":{"profile":["http://hl7.org/fhir/us/qicore/StructureDefinition/qicore-encounter"]},"status":"finished","class":{"system":"http://terminology.hl7.org/CodeSystem/v3-ActCode","code":"IMP","display":"inpatient encounter"},"type":[{"coding":[{"system":"http://snomed.info/sct","code":"8715000"}]}],"subject":{"reference":"Patient/8961c16d-d6a2-4da2-bbe0-d66f7ed6d85a"},"period":{"start":"2025-11-01T08:00:00+00:00","end":"2025-11-26T08:15:00+00:00"},"length":{"value":25.0,"unit":"days"}},"request":{"method":"PUT","url":"Encounter/c82f85ee-3a76-49c4-8fb5-336a0baac505"}},{"fullUrl":"https://madie.cms.gov/Procedure/5ca6295db8484628b8de1d65","resource":{"resourceType":"Procedure","id":"a42b2963-55e6-4747-9ee9-f6c12beb334b","meta":{"profile":["http://hl7.org/fhir/us/qicore/StructureDefinition/qicore-procedure"]},"extension":[{"url":"http://hl7.org/fhir/us/qicore/StructureDefinition/qicore-recorded","valueDateTime":"2012-12-04T09:35:00-04:00"}],"status":"completed","code":{"coding":[{"system":"http://snomed.info/sct","code":"133918004"}]},"subject":{"reference":"Patient/8961c16d-d6a2-4da2-bbe0-d66f7ed6d85a"},"performedPeriod":{"start":"2025-11-05T11:00:00+00:00"}},"request":{"method":"PUT","url":"Procedure/a42b2963-55e6-4747-9ee9-f6c12beb334b"}},{"fullUrl":"https://madie.cms.gov/Coverage/5fa0414b1c76ba66d9959199","resource":{"resourceType":"Coverage","id":"6e11c6ee-5f31-431e-9bb3-7176208b4f05","status":"active","beneficiary":{"reference":"Patient/8961c16d-d6a2-4da2-bbe0-d66f7ed6d85a"},"period":{"start":"1974-01-02T08:00:00+00:00"},"payor":[{"reference":"Organization/aeb2c6be-6577-4bba-a6b6-6eab95111f1b"}]},"request":{"method":"PUT","url":"Coverage/6e11c6ee-5f31-431e-9bb3-7176208b4f05"}},{"fullUrl":"https://madie.cms.gov/Procedure/5ca6295db8484628b8de1d64","resource":{"resourceType":"Procedure","id":"fff04337-b69a-496d-a55b-2ee334e32c29","meta":{"profile":["http://hl7.org/fhir/us/qicore/StructureDefinition/qicore-procedure"]},"extension":[{"url":"http://hl7.org/fhir/us/qicore/StructureDefinition/qicore-recorded","valueDateTime":"2012-12-04T09:35:00-04:00"}],"status":"completed","code":{"coding":[{"system":"http://www.icd10data.com/icd10pcs","code":"3E030FZ"},{"system":"http://snomed.info/sct","code":"18946005"}]},"subject":{"reference":"Patient/8961c16d-d6a2-4da2-bbe0-d66f7ed6d85a"},"performedPeriod":{"start":"2025-11-01T09:00:00+00:00","end":"2025-12-02T09:15:00+00:00"}},"request":{"method":"PUT","url":"Procedure/fff04337-b69a-496d-a55b-2ee334e32c29"}},{"fullUrl":"https://madie.cms.gov/Organization/123456","resource":{"resourceType":"Organization","id":"aeb2c6be-6577-4bba-a6b6-6eab95111f1b","meta":{"profile":["http://hl7.org/fhir/us/qicore/StructureDefinition/qicore-organization"]},"identifier":[{"use":"temp","system":"urn:oid:2.16.840.1.113883.4.4","value":"21-3259825"}],"active":true,"type":[{"coding":[{"system":"http://terminology.hl7.org/CodeSystem/organization-type","code":"pay","display":"Payer"}]}],"name":"Blue Cross Blue Shield of Texas","telecom":[{"system":"phone","value":"(+1) 972-766-6900"}],"address":[{"use":"billing","type":"postal","line":["P.O. Box 660044"],"city":"Dallas","state":"TX","postalCode":"75266-0044","country":"USA"}]},"request":{"method":"PUT","url":"Organization/aeb2c6be-6577-4bba-a6b6-6eab95111f1b"}},{"fullUrl":"https://madie.cms.gov/Practitioner/practitioner-123456","resource":{"resourceType":"Practitioner","id":"eb2bb95f-033d-49c3-9780-dcb59c08252c","identifier":[{"system":"http://hl7.org/fhir/sid/us-npi","value":"123456"}],"name":[{"family":"Evil","prefix":["Dr"]}]},"request":{"method":"PUT","url":"Practitioner/eb2bb95f-033d-49c3-9780-dcb59c08252c"}},{"fullUrl":"https://madie.cms.gov/MeasureReport/b28a30eb-5f1c-48a8-a89d-53e371111997","resource":{"resourceType":"MeasureReport","id":"b28a30eb-5f1c-48a8-a89d-53e371111997","meta":{"profile":["http://hl7.org/fhir/us/cqfmeasures/StructureDefinition/test-case-cqfm"]},"contained":[{"resourceType":"Parameters","id":"da967dd6-0e9e-43e8-8047-58237879af26-parameters","parameter":[{"name":"subject","valueString":"8961c16d-d6a2-4da2-bbe0-d66f7ed6d85a"}]}],"extension":[{"url":"http://hl7.org/fhir/us/cqfmeasures/StructureDefinition/cqfm-inputParameters","valueReference":{"reference":"#da967dd6-0e9e-43e8-8047-58237879af26-parameters"}},{"url":"http://hl7.org/fhir/us/cqfmeasures/StructureDefinition/cqfm-testCaseDescription","valueMarkdown":"comfort measures > 1 day after IP encounter starts\n"}],"modifierExtension":[{"url":"http://hl7.org/fhir/us/cqfmeasures/StructureDefinition/cqfm-isTestCase","valueBoolean":true}],"status":"complete","type":"individual","measure":"https://madie.cms.gov/Measure/VenousThromboembolismProphylaxisFHIR","period":{"start":"2025-01-01","end":"2025-12-31"},"group":[{"population":[{"code":{"coding":[{"system":"http://terminology.hl7.org/CodeSystem/measure-population","code":"initial-population","display":"Initial Population"}]},"count":1},{"code":{"coding":[{"system":"http://terminology.hl7.org/CodeSystem/measure-population","code":"denominator","display":"Denominator"}]},"count":1},{"code":{"coding":[{"system":"http://terminology.hl7.org/CodeSystem/measure-population","code":"denominator-exclusion","display":"Denominator Exclusion"}]},"count":0},{"code":{"coding":[{"system":"http://terminology.hl7.org/CodeSystem/measure-population","code":"numerator","display":"Numerator"}]},"count":0}]}]},"request":{"method":"PUT","url":"MeasureReport/b28a30eb-5f1c-48a8-a89d-53e371111997"}}]}