{"resourceType":"Bundle","id":"tests-ce7eb418-e867-4474-af7b-b185145e6abe-bundle","type":"transaction","entry":[{"fullUrl":"https://madie.cms.gov/Patient/ce7eb418-e867-4474-af7b-b185145e6abe","resource":{"resourceType":"Patient","id":"ce7eb418-e867-4474-af7b-b185145e6abe","meta":{"profile":["http://hl7.org/fhir/us/qicore/StructureDefinition/qicore-patient"]},"text":{"status":"generated","div":"<div xmlns=\"http://www.w3.org/1999/xhtml\"><div class=\"hapiHeaderText\">MA_ThrombDT23HrAfterAnes <b>NUMERPASS </b></div><table class=\"hapiPropertyTable\"><tbody><tr><td>Identifier</td><td>949829b80a2718d749070ce8b95b6a8d</td></tr><tr><td>Date of birth</td><td><span>02 January 1974</span></td></tr></tbody></table></div>"},"extension":[{"url":"http://hl7.org/fhir/us/core/StructureDefinition/us-core-race","extension":[{"url":"ombCategory","valueCoding":{"system":"urn:oid:2.16.840.1.113883.6.238","code":"1002-5","display":"American Indian or Alaska Native","userSelected":true}},{"url":"text","valueString":"American Indian or Alaska Native"}]},{"url":"http://hl7.org/fhir/us/core/StructureDefinition/us-core-ethnicity","extension":[{"url":"ombCategory","valueCoding":{"system":"urn:oid:2.16.840.1.113883.6.238","code":"2135-2","display":"Hispanic or Latino","userSelected":true}},{"url":"text","valueString":"Hispanic or Latino"}]}],"identifier":[{"type":{"coding":[{"system":"http://terminology.hl7.org/CodeSystem/v2-0203","code":"MR"}]},"system":"https://bonnie-fhir.healthit.gov/","value":"612e6a9b02c62a011f2ea8e2"}],"active":true,"name":[{"use":"usual","family":"NUMERPass","given":["MA_ThrombDT23HrAfterAnes"]}],"gender":"male","birthDate":"1974-01-02"},"request":{"method":"PUT","url":"Patient/ce7eb418-e867-4474-af7b-b185145e6abe"}},{"fullUrl":"https://madie.cms.gov/Encounter/5ca6295fb8484628b8de1ddd","resource":{"resourceType":"Encounter","id":"31c13352-7ea2-4795-a91b-58e8193219dc","meta":{"profile":["http://hl7.org/fhir/us/qicore/StructureDefinition/qicore-encounter"]},"status":"finished","class":{"system":"http://terminology.hl7.org/CodeSystem/v3-ActCode","code":"IMP","display":"inpatient encounter"},"type":[{"coding":[{"system":"http://snomed.info/sct","code":"8715000"}]}],"subject":{"reference":"Patient/ce7eb418-e867-4474-af7b-b185145e6abe"},"period":{"start":"2025-11-01T08:00:00+00:00","end":"2025-11-26T08:15:00+00:00"},"length":{"value":25.0,"unit":"days"}},"request":{"method":"PUT","url":"Encounter/31c13352-7ea2-4795-a91b-58e8193219dc"}},{"fullUrl":"https://madie.cms.gov/Coverage/5fa041511c76ba66d9959205","resource":{"resourceType":"Coverage","id":"93f87372-c7ef-4eae-a4bc-8e8c107b0183","status":"active","beneficiary":{"reference":"Patient/ce7eb418-e867-4474-af7b-b185145e6abe"},"period":{"start":"1974-01-02T08:00:00+00:00"},"payor":[{"reference":"Organization/33ead57e-5e04-40e4-95ea-bc3cdbd58917"}]},"request":{"method":"PUT","url":"Coverage/93f87372-c7ef-4eae-a4bc-8e8c107b0183"}},{"fullUrl":"https://madie.cms.gov/MedicationAdministration/5ca6295fb8484628b8de1dde","resource":{"resourceType":"MedicationAdministration","id":"5eb9b8b5-576d-416e-95a6-e1f372b5cdc2","meta":{"profile":["http://hl7.org/fhir/us/qicore/StructureDefinition/qicore-medicationadministration"]},"status":"completed","medicationCodeableConcept":{"coding":[{"system":"http://www.nlm.nih.gov/research/umls/rxnorm","code":"308351"}]},"subject":{"reference":"Patient/ce7eb418-e867-4474-af7b-b185145e6abe"},"effectiveDateTime":"2025-11-03T09:00:00+00:00"},"request":{"method":"PUT","url":"MedicationAdministration/5eb9b8b5-576d-416e-95a6-e1f372b5cdc2"}},{"fullUrl":"https://madie.cms.gov/Procedure/5ca6295fb8484628b8de1ddf","resource":{"resourceType":"Procedure","id":"3872f3af-0fbe-47e4-aa01-305d679807fb","meta":{"profile":["http://hl7.org/fhir/us/qicore/StructureDefinition/qicore-procedure"]},"extension":[{"url":"http://hl7.org/fhir/us/qicore/StructureDefinition/qicore-recorded","valueDateTime":"2012-11-03T09:35:00-04:00"}],"status":"completed","code":{"coding":[{"system":"http://snomed.info/sct","code":"18946005"}]},"subject":{"reference":"Patient/ce7eb418-e867-4474-af7b-b185145e6abe"},"performedPeriod":{"start":"2025-11-02T09:00:00+00:00","end":"2025-11-02T10:15:00+00:00"}},"request":{"method":"PUT","url":"Procedure/3872f3af-0fbe-47e4-aa01-305d679807fb"}},{"fullUrl":"https://madie.cms.gov/Organization/123456","resource":{"resourceType":"Organization","id":"33ead57e-5e04-40e4-95ea-bc3cdbd58917","meta":{"profile":["http://hl7.org/fhir/us/qicore/StructureDefinition/qicore-organization"]},"identifier":[{"use":"temp","system":"urn:oid:2.16.840.1.113883.4.4","value":"21-3259825"}],"active":true,"type":[{"coding":[{"system":"http://terminology.hl7.org/CodeSystem/organization-type","code":"pay","display":"Payer"}]}],"name":"Blue Cross Blue Shield of Texas","telecom":[{"system":"phone","value":"(+1) 972-766-6900"}],"address":[{"use":"billing","type":"postal","line":["P.O. Box 660044"],"city":"Dallas","state":"TX","postalCode":"75266-0044","country":"USA"}]},"request":{"method":"PUT","url":"Organization/33ead57e-5e04-40e4-95ea-bc3cdbd58917"}},{"fullUrl":"https://madie.cms.gov/Practitioner/practitioner-123456","resource":{"resourceType":"Practitioner","id":"397af3b2-099a-4ab1-a518-3e97264a44bc","identifier":[{"system":"http://hl7.org/fhir/sid/us-npi","value":"123456"}],"name":[{"family":"Evil","prefix":["Dr"]}]},"request":{"method":"PUT","url":"Practitioner/397af3b2-099a-4ab1-a518-3e97264a44bc"}},{"fullUrl":"https://madie.cms.gov/MeasureReport/6bd59179-79d1-47d5-b866-683dfa616419","resource":{"resourceType":"MeasureReport","id":"6bd59179-79d1-47d5-b866-683dfa616419","meta":{"profile":["http://hl7.org/fhir/us/cqfmeasures/StructureDefinition/test-case-cqfm"]},"contained":[{"resourceType":"Parameters","id":"6eb5109c-948c-467f-b61c-6d8ed5730c81-parameters","parameter":[{"name":"subject","valueString":"ce7eb418-e867-4474-af7b-b185145e6abe"}]}],"extension":[{"url":"http://hl7.org/fhir/us/cqfmeasures/StructureDefinition/cqfm-inputParameters","valueReference":{"reference":"#6eb5109c-948c-467f-b61c-6d8ed5730c81-parameters"}},{"url":"http://hl7.org/fhir/us/cqfmeasures/StructureDefinition/cqfm-testCaseDescription","valueMarkdown":"direct thrombin inhibitor administered = 1 day after end of anesthesia\n"}],"modifierExtension":[{"url":"http://hl7.org/fhir/us/cqfmeasures/StructureDefinition/cqfm-isTestCase","valueBoolean":true}],"status":"complete","type":"individual","measure":"https://madie.cms.gov/Measure/VenousThromboembolismProphylaxisFHIR","period":{"start":"2025-01-01","end":"2025-12-31"},"group":[{"population":[{"code":{"coding":[{"system":"http://terminology.hl7.org/CodeSystem/measure-population","code":"initial-population","display":"Initial Population"}]},"count":1},{"code":{"coding":[{"system":"http://terminology.hl7.org/CodeSystem/measure-population","code":"denominator","display":"Denominator"}]},"count":1},{"code":{"coding":[{"system":"http://terminology.hl7.org/CodeSystem/measure-population","code":"denominator-exclusion","display":"Denominator Exclusion"}]},"count":0},{"code":{"coding":[{"system":"http://terminology.hl7.org/CodeSystem/measure-population","code":"numerator","display":"Numerator"}]},"count":1}]}]},"request":{"method":"PUT","url":"MeasureReport/6bd59179-79d1-47d5-b866-683dfa616419"}}]}