{"resourceType":"Bundle","id":"tests-0ddb05b5-03af-4d2a-9d9c-0be8034d1ff4-bundle","type":"transaction","entry":[{"fullUrl":"https://madie.cms.gov/Patient/0ddb05b5-03af-4d2a-9d9c-0be8034d1ff4","resource":{"resourceType":"Patient","id":"0ddb05b5-03af-4d2a-9d9c-0be8034d1ff4","meta":{"profile":["http://hl7.org/fhir/us/qicore/StructureDefinition/qicore-patient"]},"text":{"status":"generated","div":"<div xmlns=\"http://www.w3.org/1999/xhtml\"><div class=\"hapiHeaderText\">CMPerf_DuringObs_ObsLT1HrBFAdm <b>DENEXPASS </b></div><table class=\"hapiPropertyTable\"><tbody><tr><td>Identifier</td><td>32a3c1b5766063c719384b1023bfc3dfc1d8c92f7b9304cae9d3eaf406b0a696</td></tr><tr><td>Date of birth</td><td><span>02 January 1974</span></td></tr></tbody></table></div>"},"extension":[{"url":"http://hl7.org/fhir/us/core/StructureDefinition/us-core-race","extension":[{"url":"ombCategory","valueCoding":{"system":"urn:oid:2.16.840.1.113883.6.238","code":"1002-5","display":"American Indian or Alaska Native","userSelected":true}},{"url":"text","valueString":"American Indian or Alaska Native"}]},{"url":"http://hl7.org/fhir/us/core/StructureDefinition/us-core-ethnicity","extension":[{"url":"ombCategory","valueCoding":{"system":"urn:oid:2.16.840.1.113883.6.238","code":"2135-2","display":"Hispanic or Latino","userSelected":true}},{"url":"text","valueString":"Hispanic or Latino"}]}],"identifier":[{"type":{"coding":[{"system":"http://terminology.hl7.org/CodeSystem/v2-0203","code":"MR"}]},"system":"https://bonnie-fhir.healthit.gov/","value":"612e6ae502c62a011f2eba79"}],"active":true,"name":[{"use":"usual","family":"DENEXPass","given":["CMPerf_DuringObs_ObsLT1HrBFAdm"]}],"gender":"male","birthDate":"1974-01-02"},"request":{"method":"PUT","url":"Patient/0ddb05b5-03af-4d2a-9d9c-0be8034d1ff4"}},{"fullUrl":"https://madie.cms.gov/Encounter/5ca62965b8484628b8de1fa0","resource":{"resourceType":"Encounter","id":"ce63ecfa-a145-464d-bd17-e06af2754ce2","meta":{"profile":["http://hl7.org/fhir/us/qicore/StructureDefinition/qicore-encounter"]},"status":"finished","class":{"system":"http://terminology.hl7.org/CodeSystem/v3-ActCode","code":"EMER","display":"emergency"},"type":[{"coding":[{"system":"http://snomed.info/sct","code":"4525004"}]}],"subject":{"reference":"Patient/0ddb05b5-03af-4d2a-9d9c-0be8034d1ff4"},"period":{"start":"2025-10-31T04:00:00+00:00","end":"2025-11-01T05:15:00+00:00"},"length":{"value":1.0,"unit":"days"}},"request":{"method":"PUT","url":"Encounter/ce63ecfa-a145-464d-bd17-e06af2754ce2"}},{"fullUrl":"https://madie.cms.gov/Encounter/5ca62965b8484628b8de1fa2","resource":{"resourceType":"Encounter","id":"91aa1482-68bf-4a82-8ec6-4031f1fc1663","meta":{"profile":["http://hl7.org/fhir/us/qicore/StructureDefinition/qicore-encounter"]},"status":"finished","class":{"system":"http://terminology.hl7.org/CodeSystem/v3-ActCode","code":"IMP","display":"inpatient encounter"},"type":[{"coding":[{"system":"http://snomed.info/sct","code":"8715000"}]}],"subject":{"reference":"Patient/0ddb05b5-03af-4d2a-9d9c-0be8034d1ff4"},"period":{"start":"2025-11-01T08:00:00+00:00","end":"2025-11-26T08:15:00+00:00"},"length":{"value":25.0,"unit":"days"}},"request":{"method":"PUT","url":"Encounter/91aa1482-68bf-4a82-8ec6-4031f1fc1663"}},{"fullUrl":"https://madie.cms.gov/Encounter/5e71222e102f8600006b521e","resource":{"resourceType":"Encounter","id":"68aa1c6c-e893-4b30-a8dd-aa8f62ec3e30","meta":{"profile":["http://hl7.org/fhir/us/qicore/StructureDefinition/qicore-encounter"]},"status":"finished","class":{"system":"http://terminology.hl7.org/CodeSystem/v3-ActCode","code":"OBSENC","display":"observation encounter"},"type":[{"coding":[{"system":"http://snomed.info/sct","code":"448951000124107"}]}],"subject":{"reference":"Patient/0ddb05b5-03af-4d2a-9d9c-0be8034d1ff4"},"period":{"start":"2025-11-01T05:20:00+00:00","end":"2025-11-01T07:30:00+00:00"}},"request":{"method":"PUT","url":"Encounter/68aa1c6c-e893-4b30-a8dd-aa8f62ec3e30"}},{"fullUrl":"https://madie.cms.gov/Procedure/5ca62965b8484628b8de1fa3","resource":{"resourceType":"Procedure","id":"8cc90b5d-850e-4943-81d5-72f87e400ebf","meta":{"profile":["http://hl7.org/fhir/us/qicore/StructureDefinition/qicore-procedure"]},"extension":[{"url":"http://hl7.org/fhir/us/qicore/StructureDefinition/qicore-recorded","valueDateTime":"2012-11-01T09:35:00-04:00"}],"status":"completed","code":{"coding":[{"system":"http://snomed.info/sct","code":"133918004"}]},"subject":{"reference":"Patient/0ddb05b5-03af-4d2a-9d9c-0be8034d1ff4"},"performedPeriod":{"start":"2025-10-31T07:00:00+00:00"}},"request":{"method":"PUT","url":"Procedure/8cc90b5d-850e-4943-81d5-72f87e400ebf"}},{"fullUrl":"https://madie.cms.gov/Coverage/5fa041621c76ba66d995932e","resource":{"resourceType":"Coverage","id":"c00c8387-33c4-4111-ab99-a95b14e418e4","status":"active","beneficiary":{"reference":"Patient/0ddb05b5-03af-4d2a-9d9c-0be8034d1ff4"},"period":{"start":"1974-01-02T08:00:00+00:00"},"payor":[{"reference":"Organization/41c75c00-82d9-4ab2-98f6-cfaf7fc3381d"}]},"request":{"method":"PUT","url":"Coverage/c00c8387-33c4-4111-ab99-a95b14e418e4"}},{"fullUrl":"https://madie.cms.gov/Organization/123456","resource":{"resourceType":"Organization","id":"41c75c00-82d9-4ab2-98f6-cfaf7fc3381d","meta":{"profile":["http://hl7.org/fhir/us/qicore/StructureDefinition/qicore-organization"]},"identifier":[{"use":"temp","system":"urn:oid:2.16.840.1.113883.4.4","value":"21-3259825"}],"active":true,"type":[{"coding":[{"system":"http://terminology.hl7.org/CodeSystem/organization-type","code":"pay","display":"Payer"}]}],"name":"Blue Cross Blue Shield of Texas","telecom":[{"system":"phone","value":"(+1) 972-766-6900"}],"address":[{"use":"billing","type":"postal","line":["P.O. Box 660044"],"city":"Dallas","state":"TX","postalCode":"75266-0044","country":"USA"}]},"request":{"method":"PUT","url":"Organization/41c75c00-82d9-4ab2-98f6-cfaf7fc3381d"}},{"fullUrl":"https://madie.cms.gov/Practitioner/practitioner-123456","resource":{"resourceType":"Practitioner","id":"ae62c413-f3d6-4140-af20-fdb5ed4a9c35","identifier":[{"system":"http://hl7.org/fhir/sid/us-npi","value":"123456"}],"name":[{"family":"Evil","prefix":["Dr"]}]},"request":{"method":"PUT","url":"Practitioner/ae62c413-f3d6-4140-af20-fdb5ed4a9c35"}},{"fullUrl":"https://madie.cms.gov/MeasureReport/fa7b327d-6c8e-4fc7-b92d-191b64ca0d28","resource":{"resourceType":"MeasureReport","id":"fa7b327d-6c8e-4fc7-b92d-191b64ca0d28","meta":{"profile":["http://hl7.org/fhir/us/cqfmeasures/StructureDefinition/test-case-cqfm"]},"contained":[{"resourceType":"Parameters","id":"924d6421-86b4-4d95-84bb-c8ace92e93bd-parameters","parameter":[{"name":"subject","valueString":"0ddb05b5-03af-4d2a-9d9c-0be8034d1ff4"}]}],"extension":[{"url":"http://hl7.org/fhir/us/cqfmeasures/StructureDefinition/cqfm-inputParameters","valueReference":{"reference":"#924d6421-86b4-4d95-84bb-c8ace92e93bd-parameters"}},{"url":"http://hl7.org/fhir/us/cqfmeasures/StructureDefinition/cqfm-testCaseDescription","valueMarkdown":"comfort measures performed in Observation, and Obs < 1hr prior to Adm \n"}],"modifierExtension":[{"url":"http://hl7.org/fhir/us/cqfmeasures/StructureDefinition/cqfm-isTestCase","valueBoolean":true}],"status":"complete","type":"individual","measure":"https://madie.cms.gov/Measure/VenousThromboembolismProphylaxisFHIR","period":{"start":"2025-01-01","end":"2025-12-31"},"group":[{"population":[{"code":{"coding":[{"system":"http://terminology.hl7.org/CodeSystem/measure-population","code":"initial-population","display":"Initial Population"}]},"count":1},{"code":{"coding":[{"system":"http://terminology.hl7.org/CodeSystem/measure-population","code":"denominator","display":"Denominator"}]},"count":1},{"code":{"coding":[{"system":"http://terminology.hl7.org/CodeSystem/measure-population","code":"denominator-exclusion","display":"Denominator Exclusion"}]},"count":1},{"code":{"coding":[{"system":"http://terminology.hl7.org/CodeSystem/measure-population","code":"numerator","display":"Numerator"}]},"count":0}]}]},"request":{"method":"PUT","url":"MeasureReport/fa7b327d-6c8e-4fc7-b92d-191b64ca0d28"}}]}