{"resourceType":"Bundle","id":"tests-fa6ecbf0-8dd9-4c03-a8ed-2bd82cb8206f-bundle","type":"transaction","entry":[{"fullUrl":"https://madie.cms.gov/Patient/fa6ecbf0-8dd9-4c03-a8ed-2bd82cb8206f","resource":{"resourceType":"Patient","id":"fa6ecbf0-8dd9-4c03-a8ed-2bd82cb8206f","meta":{"profile":["http://hl7.org/fhir/us/qicore/StructureDefinition/qicore-patient"]},"text":{"status":"generated","div":"<div xmlns=\"http://www.w3.org/1999/xhtml\"><div class=\"hapiHeaderText\">ProphylaxisDuringSameDayOf2ndObs <b>NUMERPASS </b></div><table class=\"hapiPropertyTable\"><tbody><tr><td>Identifier</td><td>4a3cf6afd879a8f9468f9b4b43b7b032</td></tr><tr><td>Date of birth</td><td><span>02 September 2003</span></td></tr></tbody></table></div>"},"extension":[{"url":"http://hl7.org/fhir/us/core/StructureDefinition/us-core-race","extension":[{"url":"ombCategory","valueCoding":{"system":"urn:oid:2.16.840.1.113883.6.238","code":"1002-5","display":"American Indian or Alaska Native","userSelected":true}},{"url":"text","valueString":"American Indian or Alaska Native"}]},{"url":"http://hl7.org/fhir/us/core/StructureDefinition/us-core-ethnicity","extension":[{"url":"ombCategory","valueCoding":{"system":"urn:oid:2.16.840.1.113883.6.238","code":"2135-2","display":"Hispanic or Latino","userSelected":true}},{"url":"text","valueString":"Hispanic or Latino"}]}],"identifier":[{"type":{"coding":[{"system":"http://terminology.hl7.org/CodeSystem/v2-0203","code":"MR"}]},"system":"https://bonnie-fhir.healthit.gov/","value":"612e6b1b02c62a011f2ec7e4"}],"active":true,"name":[{"use":"usual","family":"NUMERPass","given":["ProphylaxisDuringSameDayOf2ndObs"]}],"gender":"male","birthDate":"2003-09-02"},"request":{"method":"PUT","url":"Patient/fa6ecbf0-8dd9-4c03-a8ed-2bd82cb8206f"}},{"fullUrl":"https://madie.cms.gov/Encounter/5ca62962b8484628b8de1eb6","resource":{"resourceType":"Encounter","id":"a24dd144-8987-460b-b865-84c6c0d98f56","meta":{"profile":["http://hl7.org/fhir/us/qicore/StructureDefinition/qicore-encounter"]},"status":"finished","class":{"system":"http://terminology.hl7.org/CodeSystem/v3-ActCode","code":"IMP","display":"inpatient encounter"},"type":[{"coding":[{"system":"http://snomed.info/sct","code":"183452005"}]}],"subject":{"reference":"Patient/fa6ecbf0-8dd9-4c03-a8ed-2bd82cb8206f"},"period":{"start":"2025-09-03T15:15:00+00:00","end":"2025-10-01T12:59:00+00:00"}},"request":{"method":"PUT","url":"Encounter/a24dd144-8987-460b-b865-84c6c0d98f56"}},{"fullUrl":"https://madie.cms.gov/Encounter/5e28afcb9261550000089da6","resource":{"resourceType":"Encounter","id":"71915e75-c770-4d89-9d35-9bcb99dd73be","meta":{"profile":["http://hl7.org/fhir/us/qicore/StructureDefinition/qicore-encounter"]},"status":"finished","class":{"system":"http://terminology.hl7.org/CodeSystem/v3-ActCode","code":"EMER","display":"emergency"},"type":[{"coding":[{"system":"http://snomed.info/sct","code":"4525004"}]}],"subject":{"reference":"Patient/fa6ecbf0-8dd9-4c03-a8ed-2bd82cb8206f"},"period":{"start":"2025-09-02T14:30:00+00:00","end":"2025-09-02T15:00:00+00:00"}},"request":{"method":"PUT","url":"Encounter/71915e75-c770-4d89-9d35-9bcb99dd73be"}},{"fullUrl":"https://madie.cms.gov/Encounter/5e442a92dbe233000050ad2c","resource":{"resourceType":"Encounter","id":"e880988f-5a0b-465a-9079-8015404deb20","meta":{"profile":["http://hl7.org/fhir/us/qicore/StructureDefinition/qicore-encounter"]},"status":"finished","class":{"system":"http://terminology.hl7.org/CodeSystem/v3-ActCode","code":"EMER","display":"emergency"},"type":[{"coding":[{"system":"http://snomed.info/sct","code":"4525004"}]}],"subject":{"reference":"Patient/fa6ecbf0-8dd9-4c03-a8ed-2bd82cb8206f"},"period":{"start":"2025-09-02T08:00:00+00:00","end":"2025-09-02T13:00:00+00:00"}},"request":{"method":"PUT","url":"Encounter/e880988f-5a0b-465a-9079-8015404deb20"}},{"fullUrl":"https://madie.cms.gov/Encounter/5e71230f102f8600006b5316","resource":{"resourceType":"Encounter","id":"681552ea-5d7d-4a49-968f-a1d1da6ea986","meta":{"profile":["http://hl7.org/fhir/us/qicore/StructureDefinition/qicore-encounter"]},"status":"finished","class":{"system":"http://terminology.hl7.org/CodeSystem/v3-ActCode","code":"OBSENC","display":"observation encounter"},"type":[{"coding":[{"system":"http://snomed.info/sct","code":"448951000124107"}]}],"subject":{"reference":"Patient/fa6ecbf0-8dd9-4c03-a8ed-2bd82cb8206f"},"period":{"start":"2025-09-02T15:30:00+00:00","end":"2025-09-03T15:00:00+00:00"}},"request":{"method":"PUT","url":"Encounter/681552ea-5d7d-4a49-968f-a1d1da6ea986"}},{"fullUrl":"https://madie.cms.gov/Encounter/5e71232c102f8600006b5327","resource":{"resourceType":"Encounter","id":"32073c69-c0ac-4445-9512-26f9f4398dbe","meta":{"profile":["http://hl7.org/fhir/us/qicore/StructureDefinition/qicore-encounter"]},"status":"finished","class":{"system":"http://terminology.hl7.org/CodeSystem/v3-ActCode","code":"OBSENC","display":"observation encounter"},"type":[{"coding":[{"system":"http://snomed.info/sct","code":"448951000124107"}]}],"subject":{"reference":"Patient/fa6ecbf0-8dd9-4c03-a8ed-2bd82cb8206f"},"period":{"start":"2025-09-02T13:30:00+00:00","end":"2025-09-02T14:00:00+00:00"}},"request":{"method":"PUT","url":"Encounter/32073c69-c0ac-4445-9512-26f9f4398dbe"}},{"fullUrl":"https://madie.cms.gov/Coverage/5fa041691c76ba66d99593ac","resource":{"resourceType":"Coverage","id":"40f1f414-d445-4a16-89c8-3455379b09e2","status":"active","beneficiary":{"reference":"Patient/fa6ecbf0-8dd9-4c03-a8ed-2bd82cb8206f"},"period":{"start":"2003-09-02T09:00:00+00:00"},"payor":[{"reference":"Organization/84b56847-ad40-4bf6-b612-9e42ad2a84e5"}]},"request":{"method":"PUT","url":"Coverage/40f1f414-d445-4a16-89c8-3455379b09e2"}},{"fullUrl":"https://madie.cms.gov/MedicationAdministration/5e28af669261550000089d50","resource":{"resourceType":"MedicationAdministration","id":"e7782ea3-3036-4d70-adfc-8f41c533e40f","meta":{"profile":["http://hl7.org/fhir/us/qicore/StructureDefinition/qicore-medicationadministration"]},"status":"completed","medicationCodeableConcept":{"coding":[{"system":"http://www.nlm.nih.gov/research/umls/rxnorm","code":"861356"}]},"subject":{"reference":"Patient/fa6ecbf0-8dd9-4c03-a8ed-2bd82cb8206f"},"effectivePeriod":{"start":"2025-09-02T13:40:00+00:00","end":"2025-09-02T13:50:00+00:00"}},"request":{"method":"PUT","url":"MedicationAdministration/e7782ea3-3036-4d70-adfc-8f41c533e40f"}},{"fullUrl":"https://madie.cms.gov/Organization/123456","resource":{"resourceType":"Organization","id":"84b56847-ad40-4bf6-b612-9e42ad2a84e5","meta":{"profile":["http://hl7.org/fhir/us/qicore/StructureDefinition/qicore-organization"]},"identifier":[{"use":"temp","system":"urn:oid:2.16.840.1.113883.4.4","value":"21-3259825"}],"active":true,"type":[{"coding":[{"system":"http://terminology.hl7.org/CodeSystem/organization-type","code":"pay","display":"Payer"}]}],"name":"Blue Cross Blue Shield of Texas","telecom":[{"system":"phone","value":"(+1) 972-766-6900"}],"address":[{"use":"billing","type":"postal","line":["P.O. Box 660044"],"city":"Dallas","state":"TX","postalCode":"75266-0044","country":"USA"}]},"request":{"method":"PUT","url":"Organization/84b56847-ad40-4bf6-b612-9e42ad2a84e5"}},{"fullUrl":"https://madie.cms.gov/Practitioner/practitioner-123456","resource":{"resourceType":"Practitioner","id":"2cfa5993-1480-4acc-8945-d8af42daadd7","identifier":[{"system":"http://hl7.org/fhir/sid/us-npi","value":"123456"}],"name":[{"family":"Evil","prefix":["Dr"]}]},"request":{"method":"PUT","url":"Practitioner/2cfa5993-1480-4acc-8945-d8af42daadd7"}},{"fullUrl":"https://madie.cms.gov/MeasureReport/7ddff3da-a4f9-4dac-b38f-f78e4864b966","resource":{"resourceType":"MeasureReport","id":"7ddff3da-a4f9-4dac-b38f-f78e4864b966","meta":{"profile":["http://hl7.org/fhir/us/cqfmeasures/StructureDefinition/test-case-cqfm"]},"contained":[{"resourceType":"Parameters","id":"e1dca43e-2828-4ae8-bbc2-0436da5a0971-parameters","parameter":[{"name":"subject","valueString":"fa6ecbf0-8dd9-4c03-a8ed-2bd82cb8206f"}]}],"extension":[{"url":"http://hl7.org/fhir/us/cqfmeasures/StructureDefinition/cqfm-inputParameters","valueReference":{"reference":"#e1dca43e-2828-4ae8-bbc2-0436da5a0971-parameters"}},{"url":"http://hl7.org/fhir/us/cqfmeasures/StructureDefinition/cqfm-testCaseDescription","valueMarkdown":"ED then admit to Observation, did not want to stay AWOL; symptoms worsened, back to ED and then observation, then inpt admit; VTE Prophylaxis during first observation cause test to pass. \n"}],"modifierExtension":[{"url":"http://hl7.org/fhir/us/cqfmeasures/StructureDefinition/cqfm-isTestCase","valueBoolean":true}],"status":"complete","type":"individual","measure":"https://madie.cms.gov/Measure/VenousThromboembolismProphylaxisFHIR","period":{"start":"2025-01-01","end":"2025-12-31"},"group":[{"population":[{"code":{"coding":[{"system":"http://terminology.hl7.org/CodeSystem/measure-population","code":"initial-population","display":"Initial Population"}]},"count":1},{"code":{"coding":[{"system":"http://terminology.hl7.org/CodeSystem/measure-population","code":"denominator","display":"Denominator"}]},"count":1},{"code":{"coding":[{"system":"http://terminology.hl7.org/CodeSystem/measure-population","code":"denominator-exclusion","display":"Denominator Exclusion"}]},"count":0},{"code":{"coding":[{"system":"http://terminology.hl7.org/CodeSystem/measure-population","code":"numerator","display":"Numerator"}]},"count":1}]}]},"request":{"method":"PUT","url":"MeasureReport/7ddff3da-a4f9-4dac-b38f-f78e4864b966"}}]}