{"resourceType":"Bundle","id":"tests-3d6571e7-25b8-4ec7-a4a7-0e41fafeadb5-bundle","type":"transaction","entry":[{"fullUrl":"https://madie.cms.gov/Patient/3d6571e7-25b8-4ec7-a4a7-0e41fafeadb5","resource":{"resourceType":"Patient","id":"3d6571e7-25b8-4ec7-a4a7-0e41fafeadb5","meta":{"profile":["http://hl7.org/fhir/us/qicore/StructureDefinition/qicore-patient"]},"text":{"status":"generated","div":"<div xmlns=\"http://www.w3.org/1999/xhtml\"><div class=\"hapiHeaderText\">MARixDrgOBSEDEQ1hr <b>NUMERPASS </b></div><table class=\"hapiPropertyTable\"><tbody><tr><td>Identifier</td><td>9ac41bff10ef3353d0742df1f73dc984</td></tr><tr><td>Date of birth</td><td><span>02 January 1974</span></td></tr></tbody></table></div>"},"extension":[{"url":"http://hl7.org/fhir/us/core/StructureDefinition/us-core-race","extension":[{"url":"ombCategory","valueCoding":{"system":"urn:oid:2.16.840.1.113883.6.238","code":"1002-5","display":"American Indian or Alaska Native","userSelected":true}},{"url":"text","valueString":"American Indian or Alaska Native"}]},{"url":"http://hl7.org/fhir/us/core/StructureDefinition/us-core-ethnicity","extension":[{"url":"ombCategory","valueCoding":{"system":"urn:oid:2.16.840.1.113883.6.238","code":"2135-2","display":"Hispanic or Latino","userSelected":true}},{"url":"text","valueString":"Hispanic or Latino"}]}],"identifier":[{"type":{"coding":[{"system":"http://terminology.hl7.org/CodeSystem/v2-0203","code":"MR"}]},"system":"https://bonnie-fhir.healthit.gov/","value":"612e6b1002c62a011f2ec46d"}],"active":true,"name":[{"use":"usual","family":"NUMERPass","given":["MARixDrgOBSEDEQ1hr"]}],"gender":"male","birthDate":"1974-01-02"},"request":{"method":"PUT","url":"Patient/3d6571e7-25b8-4ec7-a4a7-0e41fafeadb5"}},{"fullUrl":"https://madie.cms.gov/Encounter/5ca6295db8484628b8de1d66","resource":{"resourceType":"Encounter","id":"1f88eff0-65f0-409d-9dd0-e3a31296e191","meta":{"profile":["http://hl7.org/fhir/us/qicore/StructureDefinition/qicore-encounter"]},"status":"finished","class":{"system":"http://terminology.hl7.org/CodeSystem/v3-ActCode","code":"IMP","display":"inpatient encounter"},"type":[{"coding":[{"system":"http://snomed.info/sct","code":"8715000"}]}],"subject":{"reference":"Patient/3d6571e7-25b8-4ec7-a4a7-0e41fafeadb5"},"period":{"start":"2025-11-01T08:00:00+00:00","end":"2025-11-26T08:15:00+00:00"},"length":{"value":25.0,"unit":"days"}},"request":{"method":"PUT","url":"Encounter/1f88eff0-65f0-409d-9dd0-e3a31296e191"}},{"fullUrl":"https://madie.cms.gov/Encounter/5e21d43bf9757500009eda17","resource":{"resourceType":"Encounter","id":"ed4effe1-eb10-4fb1-bf9f-ef957a00ba3e","meta":{"profile":["http://hl7.org/fhir/us/qicore/StructureDefinition/qicore-encounter"]},"status":"finished","class":{"system":"http://terminology.hl7.org/CodeSystem/v3-ActCode","code":"EMER","display":"emergency"},"type":[{"coding":[{"system":"http://snomed.info/sct","code":"4525004"}]}],"subject":{"reference":"Patient/3d6571e7-25b8-4ec7-a4a7-0e41fafeadb5"},"period":{"start":"2025-10-31T10:00:00+00:00","end":"2025-10-31T19:00:00+00:00"}},"request":{"method":"PUT","url":"Encounter/ed4effe1-eb10-4fb1-bf9f-ef957a00ba3e"}},{"fullUrl":"https://madie.cms.gov/Encounter/5e7123e8102f8600006b5384","resource":{"resourceType":"Encounter","id":"8b89ed64-34cf-45d6-88d6-224c979faf16","meta":{"profile":["http://hl7.org/fhir/us/qicore/StructureDefinition/qicore-encounter"]},"status":"finished","class":{"system":"http://terminology.hl7.org/CodeSystem/v3-ActCode","code":"OBSENC","display":"observation encounter"},"type":[{"coding":[{"system":"http://snomed.info/sct","code":"448951000124107"}]}],"subject":{"reference":"Patient/3d6571e7-25b8-4ec7-a4a7-0e41fafeadb5"},"period":{"start":"2025-10-31T20:00:00+00:00","end":"2025-11-01T07:00:00+00:00"}},"request":{"method":"PUT","url":"Encounter/8b89ed64-34cf-45d6-88d6-224c979faf16"}},{"fullUrl":"https://madie.cms.gov/Coverage/5fa041681c76ba66d9959391","resource":{"resourceType":"Coverage","id":"62af75d6-c526-4519-81aa-9d9662fa7906","status":"active","beneficiary":{"reference":"Patient/3d6571e7-25b8-4ec7-a4a7-0e41fafeadb5"},"period":{"start":"1974-01-02T08:00:00+00:00"},"payor":[{"reference":"Organization/f4907415-83c5-4eae-ab0b-cb63a840880d"}]},"request":{"method":"PUT","url":"Coverage/62af75d6-c526-4519-81aa-9d9662fa7906"}},{"fullUrl":"https://madie.cms.gov/MedicationAdministration/5fb482332569bf0000ce4b23","resource":{"resourceType":"MedicationAdministration","id":"f5cbda08-15b4-41c5-842a-2fbdf4c2b96d","meta":{"profile":["http://hl7.org/fhir/us/qicore/StructureDefinition/qicore-medicationadministration"]},"status":"completed","medicationCodeableConcept":{"coding":[{"system":"http://www.nlm.nih.gov/research/umls/rxnorm","code":"1114198"}]},"subject":{"reference":"Patient/3d6571e7-25b8-4ec7-a4a7-0e41fafeadb5"},"effectivePeriod":{"start":"2025-10-31T09:00:00+00:00","end":"2025-10-31T09:15:00+00:00"}},"request":{"method":"PUT","url":"MedicationAdministration/f5cbda08-15b4-41c5-842a-2fbdf4c2b96d"}},{"fullUrl":"https://madie.cms.gov/Organization/123456","resource":{"resourceType":"Organization","id":"f4907415-83c5-4eae-ab0b-cb63a840880d","meta":{"profile":["http://hl7.org/fhir/us/qicore/StructureDefinition/qicore-organization"]},"identifier":[{"use":"temp","system":"urn:oid:2.16.840.1.113883.4.4","value":"21-3259825"}],"active":true,"type":[{"coding":[{"system":"http://terminology.hl7.org/CodeSystem/organization-type","code":"pay","display":"Payer"}]}],"name":"Blue Cross Blue Shield of Texas","telecom":[{"system":"phone","value":"(+1) 972-766-6900"}],"address":[{"use":"billing","type":"postal","line":["P.O. Box 660044"],"city":"Dallas","state":"TX","postalCode":"75266-0044","country":"USA"}]},"request":{"method":"PUT","url":"Organization/f4907415-83c5-4eae-ab0b-cb63a840880d"}},{"fullUrl":"https://madie.cms.gov/Practitioner/practitioner-123456","resource":{"resourceType":"Practitioner","id":"c1d1702c-8a73-4656-88d0-f6b313def863","identifier":[{"system":"http://hl7.org/fhir/sid/us-npi","value":"123456"}],"name":[{"family":"Evil","prefix":["Dr"]}]},"request":{"method":"PUT","url":"Practitioner/c1d1702c-8a73-4656-88d0-f6b313def863"}},{"fullUrl":"https://madie.cms.gov/MeasureReport/f21cc9e1-07b0-4f93-90fe-4914a1e9a783","resource":{"resourceType":"MeasureReport","id":"f21cc9e1-07b0-4f93-90fe-4914a1e9a783","meta":{"profile":["http://hl7.org/fhir/us/cqfmeasures/StructureDefinition/test-case-cqfm"]},"contained":[{"resourceType":"Parameters","id":"28011e33-8ee8-4070-b3cb-fbbab4a7f364-parameters","parameter":[{"name":"subject","valueString":"3d6571e7-25b8-4ec7-a4a7-0e41fafeadb5"}]}],"extension":[{"url":"http://hl7.org/fhir/us/cqfmeasures/StructureDefinition/cqfm-inputParameters","valueReference":{"reference":"#28011e33-8ee8-4070-b3cb-fbbab4a7f364-parameters"}},{"url":"http://hl7.org/fhir/us/cqfmeasures/StructureDefinition/cqfm-testCaseDescription","valueMarkdown":"Rivaroxaban  for VTE Prophylaxis Med Administered during OBS which ends 1 hr before adm and ED = 1 hr ends OBS\n"}],"modifierExtension":[{"url":"http://hl7.org/fhir/us/cqfmeasures/StructureDefinition/cqfm-isTestCase","valueBoolean":true}],"status":"complete","type":"individual","measure":"https://madie.cms.gov/Measure/VenousThromboembolismProphylaxisFHIR","period":{"start":"2025-01-01","end":"2025-12-31"},"group":[{"population":[{"code":{"coding":[{"system":"http://terminology.hl7.org/CodeSystem/measure-population","code":"initial-population","display":"Initial Population"}]},"count":1},{"code":{"coding":[{"system":"http://terminology.hl7.org/CodeSystem/measure-population","code":"denominator","display":"Denominator"}]},"count":1},{"code":{"coding":[{"system":"http://terminology.hl7.org/CodeSystem/measure-population","code":"denominator-exclusion","display":"Denominator Exclusion"}]},"count":0},{"code":{"coding":[{"system":"http://terminology.hl7.org/CodeSystem/measure-population","code":"numerator","display":"Numerator"}]},"count":1}]}]},"request":{"method":"PUT","url":"MeasureReport/f21cc9e1-07b0-4f93-90fe-4914a1e9a783"}}]}