{"resourceType":"Bundle","id":"tests-ce7eb418-e867-4474-af7b-b185145e6abe-bundle","type":"transaction","entry":[{"fullUrl":"https://madie.cms.gov/Patient/ce7eb418-e867-4474-af7b-b185145e6abe","resource":{"resourceType":"Patient","id":"ce7eb418-e867-4474-af7b-b185145e6abe","meta":{"profile":["http://hl7.org/fhir/us/qicore/StructureDefinition/qicore-patient"]},"text":{"status":"generated","div":"<div xmlns=\"http://www.w3.org/1999/xhtml\"><div class=\"hapiHeaderText\">MA_ThrombDT23HrAfterAnes <b>NUMERPASS </b></div><table class=\"hapiPropertyTable\"><tbody><tr><td>Identifier</td><td>949829b80a2718d749070ce8b95b6a8d</td></tr><tr><td>Date of birth</td><td><span>02 January 1974</span></td></tr></tbody></table></div>"},"extension":[{"url":"http://hl7.org/fhir/us/core/StructureDefinition/us-core-race","extension":[{"url":"ombCategory","valueCoding":{"system":"urn:oid:2.16.840.1.113883.6.238","code":"1002-5","display":"American Indian or Alaska Native","userSelected":true}},{"url":"text","valueString":"American Indian or Alaska Native"}]},{"url":"http://hl7.org/fhir/us/core/StructureDefinition/us-core-ethnicity","extension":[{"url":"ombCategory","valueCoding":{"system":"urn:oid:2.16.840.1.113883.6.238","code":"2135-2","display":"Hispanic or Latino","userSelected":true}},{"url":"text","valueString":"Hispanic or Latino"}]}],"identifier":[{"type":{"coding":[{"system":"http://terminology.hl7.org/CodeSystem/v2-0203","code":"MR"}]},"system":"https://bonnie-fhir.healthit.gov/","value":"612e6a9b02c62a011f2ea8e2"}],"active":true,"name":[{"use":"usual","family":"NUMERPass","given":["MA_ThrombDT23HrAfterAnes"]}],"gender":"male","birthDate":"1974-01-02"},"request":{"method":"PUT","url":"Patient/ce7eb418-e867-4474-af7b-b185145e6abe"}},{"fullUrl":"https://madie.cms.gov/Encounter/5ca6295fb8484628b8de1ddd","resource":{"resourceType":"Encounter","id":"9253bcea-fcd9-4409-b409-8e436f5a7051","meta":{"profile":["http://hl7.org/fhir/us/qicore/StructureDefinition/qicore-encounter"]},"status":"finished","class":{"system":"http://terminology.hl7.org/CodeSystem/v3-ActCode","code":"IMP","display":"inpatient encounter"},"type":[{"coding":[{"system":"http://snomed.info/sct","code":"8715000"}]}],"subject":{"reference":"Patient/ce7eb418-e867-4474-af7b-b185145e6abe"},"period":{"start":"2025-11-01T08:00:00+00:00","end":"2025-11-26T08:15:00+00:00"},"length":{"value":25.0,"unit":"days"}},"request":{"method":"PUT","url":"Encounter/9253bcea-fcd9-4409-b409-8e436f5a7051"}},{"fullUrl":"https://madie.cms.gov/Coverage/5fa041511c76ba66d9959205","resource":{"resourceType":"Coverage","id":"54615bb6-a2ca-4f69-be1a-391dbfbe48c7","status":"active","beneficiary":{"reference":"Patient/ce7eb418-e867-4474-af7b-b185145e6abe"},"period":{"start":"1974-01-02T08:00:00+00:00"},"payor":[{"reference":"Organization/41c75c00-82d9-4ab2-98f6-cfaf7fc3381d"}]},"request":{"method":"PUT","url":"Coverage/54615bb6-a2ca-4f69-be1a-391dbfbe48c7"}},{"fullUrl":"https://madie.cms.gov/MedicationAdministration/5ca6295fb8484628b8de1dde","resource":{"resourceType":"MedicationAdministration","id":"09f8f6f3-b981-4d90-a09b-eca4030ce20c","meta":{"profile":["http://hl7.org/fhir/us/qicore/StructureDefinition/qicore-medicationadministration"]},"status":"completed","medicationCodeableConcept":{"coding":[{"system":"http://www.nlm.nih.gov/research/umls/rxnorm","code":"308351"}]},"subject":{"reference":"Patient/ce7eb418-e867-4474-af7b-b185145e6abe"},"effectiveDateTime":"2025-11-03T09:00:00+00:00"},"request":{"method":"PUT","url":"MedicationAdministration/09f8f6f3-b981-4d90-a09b-eca4030ce20c"}},{"fullUrl":"https://madie.cms.gov/Procedure/5ca6295fb8484628b8de1ddf","resource":{"resourceType":"Procedure","id":"25190520-d06b-4516-b261-f82a094c2193","meta":{"profile":["http://hl7.org/fhir/us/qicore/StructureDefinition/qicore-procedure"]},"extension":[{"url":"http://hl7.org/fhir/us/qicore/StructureDefinition/qicore-recorded","valueDateTime":"2012-11-03T09:35:00-04:00"}],"status":"completed","code":{"coding":[{"system":"http://snomed.info/sct","code":"18946005"}]},"subject":{"reference":"Patient/ce7eb418-e867-4474-af7b-b185145e6abe"},"performedPeriod":{"start":"2025-11-02T09:00:00+00:00","end":"2025-11-02T10:15:00+00:00"}},"request":{"method":"PUT","url":"Procedure/25190520-d06b-4516-b261-f82a094c2193"}},{"fullUrl":"https://madie.cms.gov/Organization/123456","resource":{"resourceType":"Organization","id":"41c75c00-82d9-4ab2-98f6-cfaf7fc3381d","meta":{"profile":["http://hl7.org/fhir/us/qicore/StructureDefinition/qicore-organization"]},"identifier":[{"use":"temp","system":"urn:oid:2.16.840.1.113883.4.4","value":"21-3259825"}],"active":true,"type":[{"coding":[{"system":"http://terminology.hl7.org/CodeSystem/organization-type","code":"pay","display":"Payer"}]}],"name":"Blue Cross Blue Shield of Texas","telecom":[{"system":"phone","value":"(+1) 972-766-6900"}],"address":[{"use":"billing","type":"postal","line":["P.O. Box 660044"],"city":"Dallas","state":"TX","postalCode":"75266-0044","country":"USA"}]},"request":{"method":"PUT","url":"Organization/41c75c00-82d9-4ab2-98f6-cfaf7fc3381d"}},{"fullUrl":"https://madie.cms.gov/Practitioner/practitioner-123456","resource":{"resourceType":"Practitioner","id":"ba7c90ea-42ab-499e-a846-1fced5cdc9c8","identifier":[{"system":"http://hl7.org/fhir/sid/us-npi","value":"123456"}],"name":[{"family":"Evil","prefix":["Dr"]}]},"request":{"method":"PUT","url":"Practitioner/ba7c90ea-42ab-499e-a846-1fced5cdc9c8"}},{"fullUrl":"https://madie.cms.gov/MeasureReport/6bd59179-79d1-47d5-b866-683dfa616419","resource":{"resourceType":"MeasureReport","id":"6bd59179-79d1-47d5-b866-683dfa616419","meta":{"profile":["http://hl7.org/fhir/us/cqfmeasures/StructureDefinition/test-case-cqfm"]},"contained":[{"resourceType":"Parameters","id":"6eb5109c-948c-467f-b61c-6d8ed5730c81-parameters","parameter":[{"name":"subject","valueString":"ce7eb418-e867-4474-af7b-b185145e6abe"}]}],"extension":[{"url":"http://hl7.org/fhir/us/cqfmeasures/StructureDefinition/cqfm-inputParameters","valueReference":{"reference":"#6eb5109c-948c-467f-b61c-6d8ed5730c81-parameters"}},{"url":"http://hl7.org/fhir/us/cqfmeasures/StructureDefinition/cqfm-testCaseDescription","valueMarkdown":"direct thrombin inhibitor administered = 1 day after end of anesthesia\n"}],"modifierExtension":[{"url":"http://hl7.org/fhir/us/cqfmeasures/StructureDefinition/cqfm-isTestCase","valueBoolean":true}],"status":"complete","type":"individual","measure":"https://madie.cms.gov/Measure/VenousThromboembolismProphylaxisFHIR","period":{"start":"2025-01-01","end":"2025-12-31"},"group":[{"population":[{"code":{"coding":[{"system":"http://terminology.hl7.org/CodeSystem/measure-population","code":"initial-population","display":"Initial Population"}]},"count":1},{"code":{"coding":[{"system":"http://terminology.hl7.org/CodeSystem/measure-population","code":"denominator","display":"Denominator"}]},"count":1},{"code":{"coding":[{"system":"http://terminology.hl7.org/CodeSystem/measure-population","code":"denominator-exclusion","display":"Denominator Exclusion"}]},"count":0},{"code":{"coding":[{"system":"http://terminology.hl7.org/CodeSystem/measure-population","code":"numerator","display":"Numerator"}]},"count":1}]}]},"request":{"method":"PUT","url":"MeasureReport/6bd59179-79d1-47d5-b866-683dfa616419"}}]}