{"resourceType":"Bundle","id":"tests-ef0bebdc-61bf-4233-abd3-1f3c99a2cd8d-bundle","type":"transaction","entry":[{"fullUrl":"https://madie.cms.gov/Patient/ef0bebdc-61bf-4233-abd3-1f3c99a2cd8d","resource":{"resourceType":"Patient","id":"ef0bebdc-61bf-4233-abd3-1f3c99a2cd8d","meta":{"profile":["http://hl7.org/fhir/us/qicore/StructureDefinition/qicore-patient"]},"text":{"status":"generated","div":"<div xmlns=\"http://www.w3.org/1999/xhtml\"><div class=\"hapiHeaderText\">MAOralXaDayAFEncStartHipSurgDrgEnc <b>NUMERPASS </b></div><table class=\"hapiPropertyTable\"><tbody><tr><td>Date of birth</td><td><span>02 January 1974</span></td></tr></tbody></table></div>"},"extension":[{"url":"http://hl7.org/fhir/us/core/StructureDefinition/us-core-race","extension":[{"url":"ombCategory","valueCoding":{"system":"urn:oid:2.16.840.1.113883.6.238","code":"1002-5","display":"American Indian or Alaska Native","userSelected":true}},{"url":"text","valueString":"American Indian or Alaska Native"}]},{"url":"http://hl7.org/fhir/us/core/StructureDefinition/us-core-ethnicity","extension":[{"url":"ombCategory","valueCoding":{"system":"urn:oid:2.16.840.1.113883.6.238","code":"2135-2","display":"Hispanic or Latino","userSelected":true}},{"url":"text","valueString":"Hispanic or Latino"}]}],"identifier":[{"type":{"coding":[{"system":"http://terminology.hl7.org/CodeSystem/v2-0203","code":"MR"}]},"system":"https://bonnie-fhir.healthit.gov/","value":"612e6af202c62a011f2ebdd1"}],"active":true,"name":[{"use":"usual","family":"NUMERPass","given":["MAOralXaDayAFEncStartHipSurgDrgEnc"]}],"gender":"female","birthDate":"1974-01-02"},"request":{"method":"PUT","url":"Patient/ef0bebdc-61bf-4233-abd3-1f3c99a2cd8d"}},{"fullUrl":"https://madie.cms.gov/Encounter/5dbe0ec236c3c80000887248","resource":{"resourceType":"Encounter","id":"bcf0ef10-ac90-4190-8a29-28df6c4b15e5","meta":{"profile":["http://hl7.org/fhir/us/qicore/StructureDefinition/qicore-encounter"]},"status":"finished","class":{"system":"http://terminology.hl7.org/CodeSystem/v3-ActCode","code":"IMP","display":"inpatient encounter"},"type":[{"coding":[{"system":"http://snomed.info/sct","code":"183452005"}]}],"subject":{"reference":"Patient/ef0bebdc-61bf-4233-abd3-1f3c99a2cd8d"},"period":{"start":"2025-11-01T08:00:00+00:00","end":"2025-11-26T08:15:00+00:00"},"length":{"value":25.0,"unit":"day"}},"request":{"method":"PUT","url":"Encounter/bcf0ef10-ac90-4190-8a29-28df6c4b15e5"}},{"fullUrl":"https://madie.cms.gov/Coverage/5fa041641c76ba66d995934f","resource":{"resourceType":"Coverage","id":"a0f07b56-ac24-4391-8aeb-7dde29df115b","status":"active","beneficiary":{"reference":"Patient/ef0bebdc-61bf-4233-abd3-1f3c99a2cd8d"},"period":{"start":"1974-01-02T08:00:00+00:00"},"payor":[{"reference":"Organization/80573fa1-cf83-4e9a-8f21-86a018689678"}]},"request":{"method":"PUT","url":"Coverage/a0f07b56-ac24-4391-8aeb-7dde29df115b"}},{"fullUrl":"https://madie.cms.gov/MedicationAdministration/5dbe0f2536c3c80000887277","resource":{"resourceType":"MedicationAdministration","id":"6d2ec989-1985-440c-882f-e49ef8fc30cd","meta":{"profile":["http://hl7.org/fhir/us/qicore/StructureDefinition/qicore-medicationadministration"]},"status":"completed","medicationCodeableConcept":{"coding":[{"system":"http://www.nlm.nih.gov/research/umls/rxnorm","code":"1992427"}]},"subject":{"reference":"Patient/ef0bebdc-61bf-4233-abd3-1f3c99a2cd8d"},"effectivePeriod":{"start":"2025-11-02T23:59:00+00:00","end":"2025-11-02T23:59:00+00:00"}},"request":{"method":"PUT","url":"MedicationAdministration/6d2ec989-1985-440c-882f-e49ef8fc30cd"}},{"fullUrl":"https://madie.cms.gov/Procedure/5dbe0f5236c3c80000887297","resource":{"resourceType":"Procedure","id":"729065aa-9073-4f0f-b175-18a719dec97e","meta":{"profile":["http://hl7.org/fhir/us/qicore/StructureDefinition/qicore-procedure"]},"extension":[{"url":"http://hl7.org/fhir/us/qicore/StructureDefinition/qicore-recorded","valueDateTime":"2012-11-19T09:35:00-04:00"}],"status":"completed","code":{"coding":[{"system":"http://snomed.info/sct","code":"386649003"}]},"subject":{"reference":"Patient/ef0bebdc-61bf-4233-abd3-1f3c99a2cd8d"},"performedPeriod":{"start":"2025-11-01T09:00:00+00:00"}},"request":{"method":"PUT","url":"Procedure/729065aa-9073-4f0f-b175-18a719dec97e"}},{"fullUrl":"https://madie.cms.gov/Organization/123456","resource":{"resourceType":"Organization","id":"80573fa1-cf83-4e9a-8f21-86a018689678","meta":{"profile":["http://hl7.org/fhir/us/qicore/StructureDefinition/qicore-organization"]},"identifier":[{"use":"temp","system":"urn:oid:2.16.840.1.113883.4.4","value":"21-3259825"}],"active":true,"type":[{"coding":[{"system":"http://terminology.hl7.org/CodeSystem/organization-type","code":"pay","display":"Payer"}]}],"name":"Blue Cross Blue Shield of Texas","telecom":[{"system":"phone","value":"(+1) 972-766-6900"}],"address":[{"use":"billing","type":"postal","line":["P.O. Box 660044"],"city":"Dallas","state":"TX","postalCode":"75266-0044","country":"USA"}]},"request":{"method":"PUT","url":"Organization/80573fa1-cf83-4e9a-8f21-86a018689678"}},{"fullUrl":"https://madie.cms.gov/Practitioner/practitioner-123456","resource":{"resourceType":"Practitioner","id":"006b22a7-96f1-4f89-8a4a-1652cd5c7892","identifier":[{"system":"http://hl7.org/fhir/sid/us-npi","value":"123456"}],"name":[{"family":"Evil","prefix":["Dr"]}]},"request":{"method":"PUT","url":"Practitioner/006b22a7-96f1-4f89-8a4a-1652cd5c7892"}},{"fullUrl":"https://madie.cms.gov/MeasureReport/5b1f4b70-6857-4fc2-8a96-c5a1f556dece","resource":{"resourceType":"MeasureReport","id":"5b1f4b70-6857-4fc2-8a96-c5a1f556dece","meta":{"profile":["http://hl7.org/fhir/us/cqfmeasures/StructureDefinition/test-case-cqfm"]},"contained":[{"resourceType":"Parameters","id":"5783615d-395e-4d72-b035-f4438a646aae-parameters","parameter":[{"name":"subject","valueString":"ef0bebdc-61bf-4233-abd3-1f3c99a2cd8d"}]}],"extension":[{"url":"http://hl7.org/fhir/us/cqfmeasures/StructureDefinition/cqfm-inputParameters","valueReference":{"reference":"#5783615d-395e-4d72-b035-f4438a646aae-parameters"}},{"url":"http://hl7.org/fhir/us/cqfmeasures/StructureDefinition/cqfm-testCaseDescription","valueMarkdown":"\"Oral Xa 11:59PM day after Inp.start\nHip replacement history\"\n"}],"modifierExtension":[{"url":"http://hl7.org/fhir/us/cqfmeasures/StructureDefinition/cqfm-isTestCase","valueBoolean":true}],"status":"complete","type":"individual","measure":"https://madie.cms.gov/Measure/VenousThromboembolismProphylaxisFHIR","period":{"start":"2025-01-01","end":"2025-12-31"},"group":[{"population":[{"code":{"coding":[{"system":"http://terminology.hl7.org/CodeSystem/measure-population","code":"initial-population","display":"Initial Population"}]},"count":1},{"code":{"coding":[{"system":"http://terminology.hl7.org/CodeSystem/measure-population","code":"denominator","display":"Denominator"}]},"count":1},{"code":{"coding":[{"system":"http://terminology.hl7.org/CodeSystem/measure-population","code":"denominator-exclusion","display":"Denominator Exclusion"}]},"count":0},{"code":{"coding":[{"system":"http://terminology.hl7.org/CodeSystem/measure-population","code":"numerator","display":"Numerator"}]},"count":1}]}]},"request":{"method":"PUT","url":"MeasureReport/5b1f4b70-6857-4fc2-8a96-c5a1f556dece"}}]}