{"resourceType":"Bundle","id":"tests-eb754c68-82c7-48cd-a2f0-26ee1cd92544-bundle","type":"transaction","entry":[{"fullUrl":"https://madie.cms.gov/Patient/eb754c68-82c7-48cd-a2f0-26ee1cd92544","resource":{"resourceType":"Patient","id":"eb754c68-82c7-48cd-a2f0-26ee1cd92544","meta":{"profile":["http://hl7.org/fhir/us/qicore/StructureDefinition/qicore-patient"]},"text":{"status":"generated","div":"<div xmlns=\"http://www.w3.org/1999/xhtml\"><div class=\"hapiHeaderText\">SCIP_HipFxRank1_SMDCT <b>DENEXPASS </b></div><table class=\"hapiPropertyTable\"><tbody><tr><td>Identifier</td><td>66c70c125db369967b4b164e75338304</td></tr><tr><td>Date of birth</td><td><span>01 September 2000</span></td></tr></tbody></table></div>"},"extension":[{"url":"http://hl7.org/fhir/us/core/StructureDefinition/us-core-race","extension":[{"url":"ombCategory","valueCoding":{"system":"urn:oid:2.16.840.1.113883.6.238","code":"1002-5","display":"American Indian or Alaska Native","userSelected":true}},{"url":"text","valueString":"American Indian or Alaska Native"}]},{"url":"http://hl7.org/fhir/us/core/StructureDefinition/us-core-ethnicity","extension":[{"url":"ombCategory","valueCoding":{"system":"urn:oid:2.16.840.1.113883.6.238","code":"2135-2","display":"Hispanic or Latino","userSelected":true}},{"url":"text","valueString":"Hispanic or Latino"}]}],"identifier":[{"type":{"coding":[{"system":"http://terminology.hl7.org/CodeSystem/v2-0203","code":"MR"}]},"system":"https://bonnie-fhir.healthit.gov/","value":"612e6b0202c62a011f2ec156"}],"active":true,"name":[{"use":"usual","family":"DENEXPass ","given":["SCIP_HipFxRank1_SMDCT"]}],"gender":"male","birthDate":"2000-09-01"},"request":{"method":"PUT","url":"Patient/eb754c68-82c7-48cd-a2f0-26ee1cd92544"}},{"fullUrl":"https://madie.cms.gov/Encounter/5ca62965b8484628b8de1fae","resource":{"resourceType":"Encounter","id":"d44b13ec-5e20-4f6d-bc1c-234d96fdc0d7","meta":{"profile":["http://hl7.org/fhir/us/qicore/StructureDefinition/qicore-encounter"]},"extension":[{"url":"http://hl7.org/fhir/us/qicore/StructureDefinition/qicore-encounter-procedure","extension":[{"url":"type","valueCodeableConcept":{"coding":[{"system":"http://snomed.info/sct","code":"239500004"}]}},{"url":"rank","valuePositiveInt":1},{"url":"procedure","valueReference":{"reference":"Procedure/5e21c09af9757500009ed6e5"}}]}],"status":"finished","class":{"system":"http://terminology.hl7.org/CodeSystem/v3-ActCode","code":"IMP","display":"inpatient encounter"},"type":[{"coding":[{"system":"http://snomed.info/sct","code":"183452005"}]}],"subject":{"reference":"Patient/eb754c68-82c7-48cd-a2f0-26ee1cd92544"},"period":{"start":"2025-09-02T06:00:00+00:00","end":"2025-12-31T12:59:00+00:00"},"length":{"value":120.0,"unit":"days"}},"request":{"method":"PUT","url":"Encounter/d44b13ec-5e20-4f6d-bc1c-234d96fdc0d7"}},{"fullUrl":"https://madie.cms.gov/Coverage/5fa041661c76ba66d9959373","resource":{"resourceType":"Coverage","id":"90cd54a5-a4ee-4252-8deb-795cd03c9a12","status":"active","beneficiary":{"reference":"Patient/eb754c68-82c7-48cd-a2f0-26ee1cd92544"},"period":{"start":"2000-09-01T08:00:00+00:00"},"payor":[{"reference":"Organization/80573fa1-cf83-4e9a-8f21-86a018689678"}]},"request":{"method":"PUT","url":"Coverage/90cd54a5-a4ee-4252-8deb-795cd03c9a12"}},{"fullUrl":"https://madie.cms.gov/Procedure/5e21c09af9757500009ed6e5","resource":{"resourceType":"Procedure","id":"e9c20333-a964-422f-9ff1-728a82068020","meta":{"profile":["http://hl7.org/fhir/us/qicore/StructureDefinition/qicore-procedure"]},"extension":[{"url":"http://hl7.org/fhir/us/qicore/StructureDefinition/qicore-recorded","valueDateTime":"2012-09-02T09:35:00-04:00"}],"status":"completed","code":{"coding":[{"system":"http://snomed.info/sct","code":"239500004"}]},"subject":{"reference":"Patient/eb754c68-82c7-48cd-a2f0-26ee1cd92544"},"performedPeriod":{"start":"2025-09-02T09:00:00+00:00","end":"2025-09-02T12:59:00+00:00"}},"request":{"method":"PUT","url":"Procedure/e9c20333-a964-422f-9ff1-728a82068020"}},{"fullUrl":"https://madie.cms.gov/Organization/123456","resource":{"resourceType":"Organization","id":"80573fa1-cf83-4e9a-8f21-86a018689678","meta":{"profile":["http://hl7.org/fhir/us/qicore/StructureDefinition/qicore-organization"]},"identifier":[{"use":"temp","system":"urn:oid:2.16.840.1.113883.4.4","value":"21-3259825"}],"active":true,"type":[{"coding":[{"system":"http://terminology.hl7.org/CodeSystem/organization-type","code":"pay","display":"Payer"}]}],"name":"Blue Cross Blue Shield of Texas","telecom":[{"system":"phone","value":"(+1) 972-766-6900"}],"address":[{"use":"billing","type":"postal","line":["P.O. Box 660044"],"city":"Dallas","state":"TX","postalCode":"75266-0044","country":"USA"}]},"request":{"method":"PUT","url":"Organization/80573fa1-cf83-4e9a-8f21-86a018689678"}},{"fullUrl":"https://madie.cms.gov/Practitioner/practitioner-123456","resource":{"resourceType":"Practitioner","id":"3a0f0327-385b-4ea3-8f3e-7501a587cd9a","identifier":[{"system":"http://hl7.org/fhir/sid/us-npi","value":"123456"}],"name":[{"family":"Evil","prefix":["Dr"]}]},"request":{"method":"PUT","url":"Practitioner/3a0f0327-385b-4ea3-8f3e-7501a587cd9a"}},{"fullUrl":"https://madie.cms.gov/MeasureReport/0d99767b-e865-46ea-a87d-5c0d99b1816e","resource":{"resourceType":"MeasureReport","id":"0d99767b-e865-46ea-a87d-5c0d99b1816e","meta":{"profile":["http://hl7.org/fhir/us/cqfmeasures/StructureDefinition/test-case-cqfm"]},"contained":[{"resourceType":"Parameters","id":"00702594-178e-41c7-9428-7e12b0cc522e-parameters","parameter":[{"name":"subject","valueString":"eb754c68-82c7-48cd-a2f0-26ee1cd92544"}]}],"extension":[{"url":"http://hl7.org/fhir/us/cqfmeasures/StructureDefinition/cqfm-inputParameters","valueReference":{"reference":"#00702594-178e-41c7-9428-7e12b0cc522e-parameters"}},{"url":"http://hl7.org/fhir/us/cqfmeasures/StructureDefinition/cqfm-testCaseDescription","valueMarkdown":"Duplicate case by using SNOMDCT "}],"modifierExtension":[{"url":"http://hl7.org/fhir/us/cqfmeasures/StructureDefinition/cqfm-isTestCase","valueBoolean":true}],"status":"complete","type":"individual","measure":"https://madie.cms.gov/Measure/VenousThromboembolismProphylaxisFHIR","period":{"start":"2025-01-01","end":"2025-12-31"},"group":[{"population":[{"code":{"coding":[{"system":"http://terminology.hl7.org/CodeSystem/measure-population","code":"initial-population","display":"Initial Population"}]},"count":1},{"code":{"coding":[{"system":"http://terminology.hl7.org/CodeSystem/measure-population","code":"denominator","display":"Denominator"}]},"count":1},{"code":{"coding":[{"system":"http://terminology.hl7.org/CodeSystem/measure-population","code":"denominator-exclusion","display":"Denominator Exclusion"}]},"count":1},{"code":{"coding":[{"system":"http://terminology.hl7.org/CodeSystem/measure-population","code":"numerator","display":"Numerator"}]},"count":0}]}]},"request":{"method":"PUT","url":"MeasureReport/0d99767b-e865-46ea-a87d-5c0d99b1816e"}}]}