{"resourceType":"Bundle","id":"tests-0ddb05b5-03af-4d2a-9d9c-0be8034d1ff4-bundle","type":"transaction","entry":[{"fullUrl":"https://madie.cms.gov/Patient/0ddb05b5-03af-4d2a-9d9c-0be8034d1ff4","resource":{"resourceType":"Patient","id":"0ddb05b5-03af-4d2a-9d9c-0be8034d1ff4","meta":{"profile":["http://hl7.org/fhir/us/qicore/StructureDefinition/qicore-patient"]},"text":{"status":"generated","div":"<div xmlns=\"http://www.w3.org/1999/xhtml\"><div class=\"hapiHeaderText\">CMPerf_DuringObs_ObsLT1HrBFAdm <b>DENEXPASS </b></div><table class=\"hapiPropertyTable\"><tbody><tr><td>Identifier</td><td>32a3c1b5766063c719384b1023bfc3dfc1d8c92f7b9304cae9d3eaf406b0a696</td></tr><tr><td>Date of birth</td><td><span>02 January 1974</span></td></tr></tbody></table></div>"},"extension":[{"url":"http://hl7.org/fhir/us/core/StructureDefinition/us-core-race","extension":[{"url":"ombCategory","valueCoding":{"system":"urn:oid:2.16.840.1.113883.6.238","code":"1002-5","display":"American Indian or Alaska Native","userSelected":true}},{"url":"text","valueString":"American Indian or Alaska Native"}]},{"url":"http://hl7.org/fhir/us/core/StructureDefinition/us-core-ethnicity","extension":[{"url":"ombCategory","valueCoding":{"system":"urn:oid:2.16.840.1.113883.6.238","code":"2135-2","display":"Hispanic or Latino","userSelected":true}},{"url":"text","valueString":"Hispanic or Latino"}]}],"identifier":[{"type":{"coding":[{"system":"http://terminology.hl7.org/CodeSystem/v2-0203","code":"MR"}]},"system":"https://bonnie-fhir.healthit.gov/","value":"612e6ae502c62a011f2eba79"}],"active":true,"name":[{"use":"usual","family":"DENEXPass","given":["CMPerf_DuringObs_ObsLT1HrBFAdm"]}],"gender":"male","birthDate":"1974-01-02"},"request":{"method":"PUT","url":"Patient/0ddb05b5-03af-4d2a-9d9c-0be8034d1ff4"}},{"fullUrl":"https://madie.cms.gov/Encounter/5ca62965b8484628b8de1fa0","resource":{"resourceType":"Encounter","id":"86f984a5-b935-4bbf-a511-5ea513fed369","meta":{"profile":["http://hl7.org/fhir/us/qicore/StructureDefinition/qicore-encounter"]},"status":"finished","class":{"system":"http://terminology.hl7.org/CodeSystem/v3-ActCode","code":"EMER","display":"emergency"},"type":[{"coding":[{"system":"http://snomed.info/sct","code":"4525004"}]}],"subject":{"reference":"Patient/0ddb05b5-03af-4d2a-9d9c-0be8034d1ff4"},"period":{"start":"2025-10-31T04:00:00+00:00","end":"2025-11-01T05:15:00+00:00"},"length":{"value":1.0,"unit":"days"}},"request":{"method":"PUT","url":"Encounter/86f984a5-b935-4bbf-a511-5ea513fed369"}},{"fullUrl":"https://madie.cms.gov/Encounter/5ca62965b8484628b8de1fa2","resource":{"resourceType":"Encounter","id":"b0aa54db-9a39-4ef0-8303-df38f4a58def","meta":{"profile":["http://hl7.org/fhir/us/qicore/StructureDefinition/qicore-encounter"]},"status":"finished","class":{"system":"http://terminology.hl7.org/CodeSystem/v3-ActCode","code":"IMP","display":"inpatient encounter"},"type":[{"coding":[{"system":"http://snomed.info/sct","code":"8715000"}]}],"subject":{"reference":"Patient/0ddb05b5-03af-4d2a-9d9c-0be8034d1ff4"},"period":{"start":"2025-11-01T08:00:00+00:00","end":"2025-11-26T08:15:00+00:00"},"length":{"value":25.0,"unit":"days"}},"request":{"method":"PUT","url":"Encounter/b0aa54db-9a39-4ef0-8303-df38f4a58def"}},{"fullUrl":"https://madie.cms.gov/Encounter/5e71222e102f8600006b521e","resource":{"resourceType":"Encounter","id":"33d1195f-c09b-4b25-933f-e6053ccd60a3","meta":{"profile":["http://hl7.org/fhir/us/qicore/StructureDefinition/qicore-encounter"]},"status":"finished","class":{"system":"http://terminology.hl7.org/CodeSystem/v3-ActCode","code":"OBSENC","display":"observation encounter"},"type":[{"coding":[{"system":"http://snomed.info/sct","code":"448951000124107"}]}],"subject":{"reference":"Patient/0ddb05b5-03af-4d2a-9d9c-0be8034d1ff4"},"period":{"start":"2025-11-01T05:20:00+00:00","end":"2025-11-01T07:30:00+00:00"}},"request":{"method":"PUT","url":"Encounter/33d1195f-c09b-4b25-933f-e6053ccd60a3"}},{"fullUrl":"https://madie.cms.gov/Procedure/5ca62965b8484628b8de1fa3","resource":{"resourceType":"Procedure","id":"48f1d869-ce2e-49bf-a062-35f274448f46","meta":{"profile":["http://hl7.org/fhir/us/qicore/StructureDefinition/qicore-procedure"]},"extension":[{"url":"http://hl7.org/fhir/us/qicore/StructureDefinition/qicore-recorded","valueDateTime":"2012-11-01T09:35:00-04:00"}],"status":"completed","code":{"coding":[{"system":"http://snomed.info/sct","code":"133918004"}]},"subject":{"reference":"Patient/0ddb05b5-03af-4d2a-9d9c-0be8034d1ff4"},"performedPeriod":{"start":"2025-10-31T07:00:00+00:00"}},"request":{"method":"PUT","url":"Procedure/48f1d869-ce2e-49bf-a062-35f274448f46"}},{"fullUrl":"https://madie.cms.gov/Coverage/5fa041621c76ba66d995932e","resource":{"resourceType":"Coverage","id":"d5445545-b368-42d5-8557-83ab477405f4","status":"active","beneficiary":{"reference":"Patient/0ddb05b5-03af-4d2a-9d9c-0be8034d1ff4"},"period":{"start":"1974-01-02T08:00:00+00:00"},"payor":[{"reference":"Organization/4d7da20f-8773-4347-8f6b-80adcdcee1f4"}]},"request":{"method":"PUT","url":"Coverage/d5445545-b368-42d5-8557-83ab477405f4"}},{"fullUrl":"https://madie.cms.gov/Organization/123456","resource":{"resourceType":"Organization","id":"4d7da20f-8773-4347-8f6b-80adcdcee1f4","meta":{"profile":["http://hl7.org/fhir/us/qicore/StructureDefinition/qicore-organization"]},"identifier":[{"use":"temp","system":"urn:oid:2.16.840.1.113883.4.4","value":"21-3259825"}],"active":true,"type":[{"coding":[{"system":"http://terminology.hl7.org/CodeSystem/organization-type","code":"pay","display":"Payer"}]}],"name":"Blue Cross Blue Shield of Texas","telecom":[{"system":"phone","value":"(+1) 972-766-6900"}],"address":[{"use":"billing","type":"postal","line":["P.O. Box 660044"],"city":"Dallas","state":"TX","postalCode":"75266-0044","country":"USA"}]},"request":{"method":"PUT","url":"Organization/4d7da20f-8773-4347-8f6b-80adcdcee1f4"}},{"fullUrl":"https://madie.cms.gov/Practitioner/practitioner-123456","resource":{"resourceType":"Practitioner","id":"2db086d1-3998-4a80-b6fc-99cdf3b55fee","identifier":[{"system":"http://hl7.org/fhir/sid/us-npi","value":"123456"}],"name":[{"family":"Evil","prefix":["Dr"]}]},"request":{"method":"PUT","url":"Practitioner/2db086d1-3998-4a80-b6fc-99cdf3b55fee"}},{"fullUrl":"https://madie.cms.gov/MeasureReport/fa7b327d-6c8e-4fc7-b92d-191b64ca0d28","resource":{"resourceType":"MeasureReport","id":"fa7b327d-6c8e-4fc7-b92d-191b64ca0d28","meta":{"profile":["http://hl7.org/fhir/us/cqfmeasures/StructureDefinition/test-case-cqfm"]},"contained":[{"resourceType":"Parameters","id":"924d6421-86b4-4d95-84bb-c8ace92e93bd-parameters","parameter":[{"name":"subject","valueString":"0ddb05b5-03af-4d2a-9d9c-0be8034d1ff4"}]}],"extension":[{"url":"http://hl7.org/fhir/us/cqfmeasures/StructureDefinition/cqfm-inputParameters","valueReference":{"reference":"#924d6421-86b4-4d95-84bb-c8ace92e93bd-parameters"}},{"url":"http://hl7.org/fhir/us/cqfmeasures/StructureDefinition/cqfm-testCaseDescription","valueMarkdown":"comfort measures performed in Observation, and Obs < 1hr prior to Adm \n"}],"modifierExtension":[{"url":"http://hl7.org/fhir/us/cqfmeasures/StructureDefinition/cqfm-isTestCase","valueBoolean":true}],"status":"complete","type":"individual","measure":"https://madie.cms.gov/Measure/VenousThromboembolismProphylaxisFHIR","period":{"start":"2025-01-01","end":"2025-12-31"},"group":[{"population":[{"code":{"coding":[{"system":"http://terminology.hl7.org/CodeSystem/measure-population","code":"initial-population","display":"Initial Population"}]},"count":1},{"code":{"coding":[{"system":"http://terminology.hl7.org/CodeSystem/measure-population","code":"denominator","display":"Denominator"}]},"count":1},{"code":{"coding":[{"system":"http://terminology.hl7.org/CodeSystem/measure-population","code":"denominator-exclusion","display":"Denominator Exclusion"}]},"count":1},{"code":{"coding":[{"system":"http://terminology.hl7.org/CodeSystem/measure-population","code":"numerator","display":"Numerator"}]},"count":0}]}]},"request":{"method":"PUT","url":"MeasureReport/fa7b327d-6c8e-4fc7-b92d-191b64ca0d28"}}]}