{"resourceType":"Bundle","id":"tests-d9b7ffa9-ed78-484c-8880-b4cbf2b4b6a1-bundle","type":"transaction","entry":[{"fullUrl":"https://madie.cms.gov/Patient/d9b7ffa9-ed78-484c-8880-b4cbf2b4b6a1","resource":{"resourceType":"Patient","id":"d9b7ffa9-ed78-484c-8880-b4cbf2b4b6a1","meta":{"profile":["http://hl7.org/fhir/us/qicore/StructureDefinition/qicore-patient"]},"text":{"status":"generated","div":"<div xmlns=\"http://www.w3.org/1999/xhtml\"><div class=\"hapiHeaderText\">DxVTEClinicalStatusResolved<b>NUMERPASS </b></div><table class=\"hapiPropertyTable\"><tbody><tr><td>Identifier</td><td>53ba7bfa81859444ffcb221a690f5daf</td></tr><tr><td>Date of birth</td><td><span>02 January 1974</span></td></tr></tbody></table></div>"},"extension":[{"url":"http://hl7.org/fhir/us/core/StructureDefinition/us-core-race","extension":[{"url":"ombCategory","valueCoding":{"system":"urn:oid:2.16.840.1.113883.6.238","code":"1002-5","display":"American Indian or Alaska Native","userSelected":true}},{"url":"text","valueString":"American Indian or Alaska Native"}]},{"url":"http://hl7.org/fhir/us/core/StructureDefinition/us-core-ethnicity","extension":[{"url":"ombCategory","valueCoding":{"system":"urn:oid:2.16.840.1.113883.6.238","code":"2135-2","display":"Hispanic or Latino","userSelected":true}},{"url":"text","valueString":"Hispanic or Latino"}]}],"identifier":[{"type":{"coding":[{"system":"http://terminology.hl7.org/CodeSystem/v2-0203","code":"MR"}]},"system":"https://bonnie-fhir.healthit.gov/","value":"612e6b5702c62a011f2ed65d"}],"active":true,"name":[{"use":"usual","family":"NUMERPass","given":["DxVTEClinicalStatusResolved"]}],"gender":"male","birthDate":"1974-01-02"},"request":{"method":"PUT","url":"Patient/d9b7ffa9-ed78-484c-8880-b4cbf2b4b6a1"}},{"fullUrl":"https://madie.cms.gov/Encounter/5ca62961b8484628b8de1e97","resource":{"resourceType":"Encounter","id":"a8a85caa-a650-453f-8852-692d88ee56c4","meta":{"profile":["http://hl7.org/fhir/us/qicore/StructureDefinition/qicore-encounter"]},"status":"finished","class":{"system":"http://terminology.hl7.org/CodeSystem/v3-ActCode","code":"IMP","display":"inpatient encounter"},"type":[{"coding":[{"system":"http://snomed.info/sct","code":"8715000"}]}],"subject":{"reference":"Patient/33d162ce-3bc7-4b0a-8c04-fec0a42a6265"},"period":{"start":"2025-11-01T08:00:00+00:00","end":"2025-11-26T08:15:00+00:00"},"length":{"value":25.0,"unit":"days"}},"request":{"method":"PUT","url":"Encounter/a8a85caa-a650-453f-8852-692d88ee56c4"}},{"fullUrl":"https://madie.cms.gov/Coverage/5fa0415a1c76ba66d995929b","resource":{"resourceType":"Coverage","id":"bfdc243e-a877-4809-ba99-eaa95e1ca1de","status":"active","beneficiary":{"reference":"Patient/33d162ce-3bc7-4b0a-8c04-fec0a42a6265"},"period":{"start":"1974-01-02T08:00:00+00:00"},"payor":[{"reference":"Organization/4da248b0-6e59-49b7-b80e-338aa21d299f"}]},"request":{"method":"PUT","url":"Coverage/bfdc243e-a877-4809-ba99-eaa95e1ca1de"}},{"fullUrl":"https://madie.cms.gov/Condition/6033f9023d5f550000fb8fd0","resource":{"resourceType":"Condition","id":"645f676e-1932-4c08-a995-8e2a3840be26","meta":{"profile":["http://hl7.org/fhir/us/qicore/StructureDefinition/qicore-condition"]},"clinicalStatus":{"coding":[{"system":"http://terminology.hl7.org/CodeSystem/condition-clinical","code":"resolved","display":"resolved","userSelected":true}]},"verificationStatus":{"coding":[{"system":"http://terminology.hl7.org/CodeSystem/condition-ver-status","code":"confirmed","display":"confirmed","userSelected":true}]},"category":[{"coding":[{"system":"http://terminology.hl7.org/CodeSystem/condition-category","code":"problem-list-item","display":"Problem List Item"}]}],"code":{"coding":[{"system":"http://snomed.info/sct","code":"1001000119102","display":"Pulmonary embolism with pulmonary"}]},"subject":{"reference":"Patient/33d162ce-3bc7-4b0a-8c04-fec0a42a6265"},"onsetPeriod":{"start":"2025-10-09T08:00:00+00:00","end":"2025-10-09T08:15:00+00:00"}},"request":{"method":"PUT","url":"Condition/645f676e-1932-4c08-a995-8e2a3840be26"}},{"fullUrl":"https://madie.cms.gov/MedicationAdministration/5ca62961b8484628b8de1e98","resource":{"resourceType":"MedicationAdministration","id":"64aa1e99-288e-4220-9a38-c4aa8ea3d993","meta":{"profile":["http://hl7.org/fhir/us/qicore/StructureDefinition/qicore-medicationadministration"]},"status":"completed","medicationCodeableConcept":{"coding":[{"system":"http://www.nlm.nih.gov/research/umls/rxnorm","code":"1599543","display":"edoxaban 15 MG Oral Tablet"}]},"subject":{"reference":"Patient/33d162ce-3bc7-4b0a-8c04-fec0a42a6265"},"effectivePeriod":{"start":"2025-11-01T11:00:00+00:00","end":"2025-11-01T11:05:00+00:00"}},"request":{"method":"PUT","url":"MedicationAdministration/64aa1e99-288e-4220-9a38-c4aa8ea3d993"}},{"fullUrl":"https://madie.cms.gov/Organization/123456","resource":{"resourceType":"Organization","id":"4da248b0-6e59-49b7-b80e-338aa21d299f","meta":{"profile":["http://hl7.org/fhir/us/qicore/StructureDefinition/qicore-organization"]},"identifier":[{"use":"temp","system":"urn:oid:2.16.840.1.113883.4.4","value":"21-3259825"}],"active":true,"type":[{"coding":[{"system":"http://terminology.hl7.org/CodeSystem/organization-type","code":"pay","display":"Payer"}]}],"name":"Blue Cross Blue Shield of Texas","telecom":[{"system":"phone","value":"(+1) 972-766-6900"}],"address":[{"use":"billing","type":"postal","line":["P.O. Box 660044"],"city":"Dallas","state":"TX","postalCode":"75266-0044","country":"USA"}]},"request":{"method":"PUT","url":"Organization/4da248b0-6e59-49b7-b80e-338aa21d299f"}},{"fullUrl":"https://madie.cms.gov/MeasureReport/e522f215-0ad0-4d5c-85d2-ed8a84fcf302","resource":{"resourceType":"MeasureReport","id":"e522f215-0ad0-4d5c-85d2-ed8a84fcf302","meta":{"profile":["http://hl7.org/fhir/us/cqfmeasures/StructureDefinition/test-case-cqfm"]},"contained":[{"resourceType":"Parameters","id":"c9ce2e28-db75-4f8c-8ed0-fcbe485f8907-parameters","parameter":[{"name":"subject","valueString":"d9b7ffa9-ed78-484c-8880-b4cbf2b4b6a1"}]}],"extension":[{"url":"http://hl7.org/fhir/us/cqfmeasures/StructureDefinition/cqfm-inputParameters","valueReference":{"reference":"#c9ce2e28-db75-4f8c-8ed0-fcbe485f8907-parameters"}},{"url":"http://hl7.org/fhir/us/cqfmeasures/StructureDefinition/cqfm-testCaseDescription","valueMarkdown":"To test and cover Condition. clinicalStatus  in resolved >18, LOS<120 day. Medication, Administered: Oral Factor Xa Inhibitor for VTE Prophylaxis with diagnosis of  VTE starts before the encounter."}],"modifierExtension":[{"url":"http://hl7.org/fhir/us/cqfmeasures/StructureDefinition/cqfm-isTestCase","valueBoolean":true}],"status":"complete","type":"individual","measure":"https://madie.cms.gov/Measure/VenousThromboembolismProphylaxisFHIR","period":{"start":"2025-01-01","end":"2025-12-31"},"group":[{"population":[{"code":{"coding":[{"system":"http://terminology.hl7.org/CodeSystem/measure-population","code":"initial-population","display":"Initial Population"}]},"count":1},{"code":{"coding":[{"system":"http://terminology.hl7.org/CodeSystem/measure-population","code":"denominator","display":"Denominator"}]},"count":1},{"code":{"coding":[{"system":"http://terminology.hl7.org/CodeSystem/measure-population","code":"denominator-exclusion","display":"Denominator Exclusion"}]},"count":0},{"code":{"coding":[{"system":"http://terminology.hl7.org/CodeSystem/measure-population","code":"numerator","display":"Numerator"}]},"count":1}]}]},"request":{"method":"PUT","url":"MeasureReport/e522f215-0ad0-4d5c-85d2-ed8a84fcf302"}}]}