{"resourceType":"Bundle","id":"tests-23f1ece5-35ea-4446-8305-f6f023dfb1a3-bundle","type":"transaction","entry":[{"fullUrl":"https://madie.cms.gov/Patient/23f1ece5-35ea-4446-8305-f6f023dfb1a3","resource":{"resourceType":"Patient","id":"23f1ece5-35ea-4446-8305-f6f023dfb1a3","meta":{"profile":["http://hl7.org/fhir/us/qicore/StructureDefinition/qicore-patient"]},"text":{"status":"generated","div":"<div xmlns=\"http://www.w3.org/1999/xhtml\"><div class=\"hapiHeaderText\">MA_OralXa_apixabanWVTEdiagnosisAFProc <b>NUMERFAIL </b></div><table class=\"hapiPropertyTable\"><tbody><tr><td>Identifier</td><td>6c48d9c79b22e4d3ea2146a4520f69cf</td></tr><tr><td>Date of birth</td><td><span>01 December 1966</span></td></tr></tbody></table></div>"},"extension":[{"url":"http://hl7.org/fhir/us/core/StructureDefinition/us-core-race","extension":[{"url":"ombCategory","valueCoding":{"system":"urn:oid:2.16.840.1.113883.6.238","code":"1002-5","display":"American Indian or Alaska Native","userSelected":true}},{"url":"text","valueString":"American Indian or Alaska Native"}]},{"url":"http://hl7.org/fhir/us/core/StructureDefinition/us-core-ethnicity","extension":[{"url":"ombCategory","valueCoding":{"system":"urn:oid:2.16.840.1.113883.6.238","code":"2135-2","display":"Hispanic or Latino","userSelected":true}},{"url":"text","valueString":"Hispanic or Latino"}]}],"identifier":[{"type":{"coding":[{"system":"http://terminology.hl7.org/CodeSystem/v2-0203","code":"MR"}]},"system":"https://bonnie-fhir.healthit.gov/","value":"612e6b5602c62a011f2ed5d3"}],"active":true,"name":[{"use":"usual","family":"NUMERFail","given":["MA_OralXa_apixabanWVTEdiagnosisAFProc"]}],"gender":"male","birthDate":"1966-12-01"},"request":{"method":"PUT","url":"Patient/23f1ece5-35ea-4446-8305-f6f023dfb1a3"}},{"fullUrl":"https://madie.cms.gov/Encounter/5ca62965b8484628b8de1fb7","resource":{"resourceType":"Encounter","id":"ee75216a-341f-4ff4-a57a-e6194fcc94cc","meta":{"profile":["http://hl7.org/fhir/us/qicore/StructureDefinition/qicore-encounter"]},"status":"finished","class":{"system":"http://terminology.hl7.org/CodeSystem/v3-ActCode","code":"IMP","display":"inpatient encounter"},"type":[{"coding":[{"system":"http://snomed.info/sct","code":"8715000"}]}],"subject":{"reference":"Patient/23f1ece5-35ea-4446-8305-f6f023dfb1a3"},"period":{"start":"2025-11-01T08:00:00+00:00","end":"2025-11-26T08:15:00+00:00"},"length":{"value":25.0,"unit":"days"}},"request":{"method":"PUT","url":"Encounter/ee75216a-341f-4ff4-a57a-e6194fcc94cc"}},{"fullUrl":"https://madie.cms.gov/Coverage/5fa0415a1c76ba66d9959298","resource":{"resourceType":"Coverage","id":"1064ef11-aecf-40df-9402-53d87452e08d","status":"active","beneficiary":{"reference":"Patient/23f1ece5-35ea-4446-8305-f6f023dfb1a3"},"period":{"start":"1966-12-01T01:00:00+00:00"},"payor":[{"reference":"Organization/41c75c00-82d9-4ab2-98f6-cfaf7fc3381d"}]},"request":{"method":"PUT","url":"Coverage/1064ef11-aecf-40df-9402-53d87452e08d"}},{"fullUrl":"https://madie.cms.gov/Condition/6033f73f3d5f550000fb8e1c","resource":{"resourceType":"Condition","id":"a9dd1341-f8b9-4b28-bc4a-3db34703bc7a","meta":{"profile":["http://hl7.org/fhir/us/qicore/StructureDefinition/qicore-condition"]},"category":[{"coding":[{"system":"http://terminology.hl7.org/CodeSystem/condition-category","code":"problem-list-item","display":"Problem List Item"}]}],"code":{"coding":[{"system":"http://snomed.info/sct","code":"1001000119102"}]},"subject":{"reference":"Patient/23f1ece5-35ea-4446-8305-f6f023dfb1a3"},"onsetPeriod":{"start":"2025-11-02T08:00:00+00:00","end":"2025-11-02T08:15:00+00:00"}},"request":{"method":"PUT","url":"Condition/a9dd1341-f8b9-4b28-bc4a-3db34703bc7a"}},{"fullUrl":"https://madie.cms.gov/MedicationAdministration/5ca62965b8484628b8de1fb8","resource":{"resourceType":"MedicationAdministration","id":"84878fe2-50f1-478c-ba6e-350d708392dc","meta":{"profile":["http://hl7.org/fhir/us/qicore/StructureDefinition/qicore-medicationadministration"]},"status":"completed","medicationCodeableConcept":{"coding":[{"system":"http://www.nlm.nih.gov/research/umls/rxnorm","code":"1364435"}]},"subject":{"reference":"Patient/23f1ece5-35ea-4446-8305-f6f023dfb1a3"},"effectivePeriod":{"start":"2025-11-01T11:00:00+00:00"}},"request":{"method":"PUT","url":"MedicationAdministration/84878fe2-50f1-478c-ba6e-350d708392dc"}},{"fullUrl":"https://madie.cms.gov/Procedure/5ca62965b8484628b8de1fb9","resource":{"resourceType":"Procedure","id":"c1004203-0926-41d4-a500-41a3ef750b39","meta":{"profile":["http://hl7.org/fhir/us/qicore/StructureDefinition/qicore-procedure"]},"extension":[{"url":"http://hl7.org/fhir/us/qicore/StructureDefinition/qicore-recorded","valueDateTime":"2012-12-04T09:35:00-04:00"}],"status":"completed","code":{"coding":[{"system":"http://www.icd10data.com/icd10pcs","code":"3E030FZ"},{"system":"http://snomed.info/sct","code":"18946005"}]},"subject":{"reference":"Patient/23f1ece5-35ea-4446-8305-f6f023dfb1a3"},"performedPeriod":{"start":"2025-11-01T09:00:00+00:00","end":"2025-11-01T09:15:00+00:00"}},"request":{"method":"PUT","url":"Procedure/c1004203-0926-41d4-a500-41a3ef750b39"}},{"fullUrl":"https://madie.cms.gov/Organization/123456","resource":{"resourceType":"Organization","id":"41c75c00-82d9-4ab2-98f6-cfaf7fc3381d","meta":{"profile":["http://hl7.org/fhir/us/qicore/StructureDefinition/qicore-organization"]},"identifier":[{"use":"temp","system":"urn:oid:2.16.840.1.113883.4.4","value":"21-3259825"}],"active":true,"type":[{"coding":[{"system":"http://terminology.hl7.org/CodeSystem/organization-type","code":"pay","display":"Payer"}]}],"name":"Blue Cross Blue Shield of Texas","telecom":[{"system":"phone","value":"(+1) 972-766-6900"}],"address":[{"use":"billing","type":"postal","line":["P.O. Box 660044"],"city":"Dallas","state":"TX","postalCode":"75266-0044","country":"USA"}]},"request":{"method":"PUT","url":"Organization/41c75c00-82d9-4ab2-98f6-cfaf7fc3381d"}},{"fullUrl":"https://madie.cms.gov/Practitioner/practitioner-123456","resource":{"resourceType":"Practitioner","id":"2a5919f9-d005-4a7f-b90d-7fa8a42dfdf7","identifier":[{"system":"http://hl7.org/fhir/sid/us-npi","value":"123456"}],"name":[{"family":"Evil","prefix":["Dr"]}]},"request":{"method":"PUT","url":"Practitioner/2a5919f9-d005-4a7f-b90d-7fa8a42dfdf7"}},{"fullUrl":"https://madie.cms.gov/MeasureReport/a1942971-f0b5-484d-a8f6-365fbd1b1c3e","resource":{"resourceType":"MeasureReport","id":"a1942971-f0b5-484d-a8f6-365fbd1b1c3e","meta":{"profile":["http://hl7.org/fhir/us/cqfmeasures/StructureDefinition/test-case-cqfm"]},"contained":[{"resourceType":"Parameters","id":"fee64dc9-6602-4bba-b1b5-f6f01ff33f9b-parameters","parameter":[{"name":"subject","valueString":"23f1ece5-35ea-4446-8305-f6f023dfb1a3"}]}],"extension":[{"url":"http://hl7.org/fhir/us/cqfmeasures/StructureDefinition/cqfm-inputParameters","valueReference":{"reference":"#fee64dc9-6602-4bba-b1b5-f6f01ff33f9b-parameters"}},{"url":"http://hl7.org/fhir/us/cqfmeasures/StructureDefinition/cqfm-testCaseDescription","valueMarkdown":">18, LOS<120 day. Medication, Administered: Oral Factor Xa Inhibitor for VTE Prophylaxis with diagnosis of active VTE starts after end of surgery\n"}],"modifierExtension":[{"url":"http://hl7.org/fhir/us/cqfmeasures/StructureDefinition/cqfm-isTestCase","valueBoolean":true}],"status":"complete","type":"individual","measure":"https://madie.cms.gov/Measure/VenousThromboembolismProphylaxisFHIR","period":{"start":"2025-01-01","end":"2025-12-31"},"group":[{"population":[{"code":{"coding":[{"system":"http://terminology.hl7.org/CodeSystem/measure-population","code":"initial-population","display":"Initial Population"}]},"count":1},{"code":{"coding":[{"system":"http://terminology.hl7.org/CodeSystem/measure-population","code":"denominator","display":"Denominator"}]},"count":1},{"code":{"coding":[{"system":"http://terminology.hl7.org/CodeSystem/measure-population","code":"denominator-exclusion","display":"Denominator Exclusion"}]},"count":0},{"code":{"coding":[{"system":"http://terminology.hl7.org/CodeSystem/measure-population","code":"numerator","display":"Numerator"}]},"count":0}]}]},"request":{"method":"PUT","url":"MeasureReport/a1942971-f0b5-484d-a8f6-365fbd1b1c3e"}}]}