{"resourceType":"Bundle","id":"tests-8eb00db0-32af-43c6-9c00-79eb2a4462ad-bundle","type":"transaction","entry":[{"fullUrl":"https://madie.cms.gov/Patient/8eb00db0-32af-43c6-9c00-79eb2a4462ad","resource":{"resourceType":"Patient","id":"8eb00db0-32af-43c6-9c00-79eb2a4462ad","meta":{"profile":["http://hl7.org/fhir/us/qicore/StructureDefinition/qicore-patient"]},"text":{"status":"generated","div":"<div xmlns=\"http://www.w3.org/1999/xhtml\"><div class=\"hapiHeaderText\">MA_LDUHep_2DaysAfterAnesth <b>NUMERFAIL </b></div><table class=\"hapiPropertyTable\"><tbody><tr><td>Identifier</td><td>5f49439a0368777e213ee1936c981e56</td></tr><tr><td>Date of birth</td><td><span>02 January 1974</span></td></tr></tbody></table></div>"},"extension":[{"url":"http://hl7.org/fhir/us/core/StructureDefinition/us-core-race","extension":[{"url":"ombCategory","valueCoding":{"system":"urn:oid:2.16.840.1.113883.6.238","code":"1002-5","display":"American Indian or Alaska Native","userSelected":true}},{"url":"text","valueString":"American Indian or Alaska Native"}]},{"url":"http://hl7.org/fhir/us/core/StructureDefinition/us-core-ethnicity","extension":[{"url":"ombCategory","valueCoding":{"system":"urn:oid:2.16.840.1.113883.6.238","code":"2135-2","display":"Hispanic or Latino","userSelected":true}},{"url":"text","valueString":"Hispanic or Latino"}]}],"identifier":[{"type":{"coding":[{"system":"http://terminology.hl7.org/CodeSystem/v2-0203","code":"MR"}]},"system":"https://bonnie-fhir.healthit.gov/","value":"612e6a5102c62a011f2e99b8"}],"active":true,"name":[{"use":"usual","family":"NUMERFail","given":["MA_LDUHep_2DaysAfterAnesth"]}],"gender":"male","birthDate":"1974-01-02"},"request":{"method":"PUT","url":"Patient/8eb00db0-32af-43c6-9c00-79eb2a4462ad"}},{"fullUrl":"https://madie.cms.gov/Encounter/5ca6295cb8484628b8de1d1f","resource":{"resourceType":"Encounter","id":"b5564c09-ddfe-495c-9067-32ca327e209a","meta":{"profile":["http://hl7.org/fhir/us/qicore/StructureDefinition/qicore-encounter"]},"status":"finished","class":{"system":"http://terminology.hl7.org/CodeSystem/v3-ActCode","code":"IMP","display":"inpatient encounter"},"type":[{"coding":[{"system":"http://snomed.info/sct","code":"8715000"}]}],"subject":{"reference":"Patient/8eb00db0-32af-43c6-9c00-79eb2a4462ad"},"period":{"start":"2025-11-01T08:00:00+00:00","end":"2025-11-26T08:15:00+00:00"},"length":{"value":25.0,"unit":"days"}},"request":{"method":"PUT","url":"Encounter/b5564c09-ddfe-495c-9067-32ca327e209a"}},{"fullUrl":"https://madie.cms.gov/Coverage/5fa041471c76ba66d9959151","resource":{"resourceType":"Coverage","id":"c65ca1ce-b31d-4e7d-b286-cfed4c942d57","status":"active","beneficiary":{"reference":"Patient/8eb00db0-32af-43c6-9c00-79eb2a4462ad"},"period":{"start":"1974-01-02T08:00:00+00:00"},"payor":[{"reference":"Organization/880a275e-1cf2-4fb9-869b-f1d2173fdc2b"}]},"request":{"method":"PUT","url":"Coverage/c65ca1ce-b31d-4e7d-b286-cfed4c942d57"}},{"fullUrl":"https://madie.cms.gov/MedicationAdministration/5ca6295cb8484628b8de1d20","resource":{"resourceType":"MedicationAdministration","id":"b13fe52a-5687-4fe6-a731-33a17283bd73","meta":{"profile":["http://hl7.org/fhir/us/qicore/StructureDefinition/qicore-medicationadministration"]},"status":"completed","medicationCodeableConcept":{"coding":[{"system":"http://www.nlm.nih.gov/research/umls/rxnorm","code":"1361574"}]},"subject":{"reference":"Patient/8eb00db0-32af-43c6-9c00-79eb2a4462ad"},"effectivePeriod":{"start":"2025-11-03T09:00:00+00:00","end":"2025-11-03T09:15:00+00:00"},"dosage":{"route":{"coding":[{"system":"http://snomed.info/sct","code":"34206005","display":"Subcutaneous route"}]},"dose":{"value":20000,"unit":"UNT/ML","system":"http://unitsofmeasure.org","code":"UNT/ML"}}},"request":{"method":"PUT","url":"MedicationAdministration/b13fe52a-5687-4fe6-a731-33a17283bd73"}},{"fullUrl":"https://madie.cms.gov/Procedure/5ca6295cb8484628b8de1d21","resource":{"resourceType":"Procedure","id":"c4632358-6309-46a5-84c4-690896471643","meta":{"profile":["http://hl7.org/fhir/us/qicore/StructureDefinition/qicore-procedure"]},"extension":[{"url":"http://hl7.org/fhir/us/qicore/StructureDefinition/qicore-recorded","valueDateTime":"2012-12-04T09:35:00-04:00"}],"status":"completed","code":{"coding":[{"system":"http://www.icd10data.com/icd10pcs","code":"3E030FZ"},{"system":"http://snomed.info/sct","code":"18946005"}]},"subject":{"reference":"Patient/8eb00db0-32af-43c6-9c00-79eb2a4462ad"},"performedPeriod":{"start":"2025-11-01T09:00:00+00:00","end":"2025-11-01T09:15:00+00:00"}},"request":{"method":"PUT","url":"Procedure/c4632358-6309-46a5-84c4-690896471643"}},{"fullUrl":"https://madie.cms.gov/Organization/123456","resource":{"resourceType":"Organization","id":"880a275e-1cf2-4fb9-869b-f1d2173fdc2b","meta":{"profile":["http://hl7.org/fhir/us/qicore/StructureDefinition/qicore-organization"]},"identifier":[{"use":"temp","system":"urn:oid:2.16.840.1.113883.4.4","value":"21-3259825"}],"active":true,"type":[{"coding":[{"system":"http://terminology.hl7.org/CodeSystem/organization-type","code":"pay","display":"Payer"}]}],"name":"Blue Cross Blue Shield of Texas","telecom":[{"system":"phone","value":"(+1) 972-766-6900"}],"address":[{"use":"billing","type":"postal","line":["P.O. Box 660044"],"city":"Dallas","state":"TX","postalCode":"75266-0044","country":"USA"}]},"request":{"method":"PUT","url":"Organization/880a275e-1cf2-4fb9-869b-f1d2173fdc2b"}},{"fullUrl":"https://madie.cms.gov/Practitioner/practitioner-123456","resource":{"resourceType":"Practitioner","id":"cee76bf4-e654-4886-a89a-872a9709f8df","identifier":[{"system":"http://hl7.org/fhir/sid/us-npi","value":"123456"}],"name":[{"family":"Evil","prefix":["Dr"]}]},"request":{"method":"PUT","url":"Practitioner/cee76bf4-e654-4886-a89a-872a9709f8df"}},{"fullUrl":"https://madie.cms.gov/MeasureReport/2f122f9c-4d13-42e5-81e0-cb45322ce42e","resource":{"resourceType":"MeasureReport","id":"2f122f9c-4d13-42e5-81e0-cb45322ce42e","meta":{"profile":["http://hl7.org/fhir/us/cqfmeasures/StructureDefinition/test-case-cqfm"]},"contained":[{"resourceType":"Parameters","id":"2575cf1d-74d6-421e-b941-8b573cd3f69b-parameters","parameter":[{"name":"subject","valueString":"8eb00db0-32af-43c6-9c00-79eb2a4462ad"}]}],"extension":[{"url":"http://hl7.org/fhir/us/cqfmeasures/StructureDefinition/cqfm-inputParameters","valueReference":{"reference":"#2575cf1d-74d6-421e-b941-8b573cd3f69b-parameters"}},{"url":"http://hl7.org/fhir/us/cqfmeasures/StructureDefinition/cqfm-testCaseDescription","valueMarkdown":"Low Dose Unfractionated Heparin for VTE Prophylaxis administered > 1 day after anesthesia\n"}],"modifierExtension":[{"url":"http://hl7.org/fhir/us/cqfmeasures/StructureDefinition/cqfm-isTestCase","valueBoolean":true}],"status":"complete","type":"individual","measure":"https://madie.cms.gov/Measure/VenousThromboembolismProphylaxisFHIR","period":{"start":"2025-01-01","end":"2025-12-31"},"group":[{"population":[{"code":{"coding":[{"system":"http://terminology.hl7.org/CodeSystem/measure-population","code":"initial-population","display":"Initial Population"}]},"count":1},{"code":{"coding":[{"system":"http://terminology.hl7.org/CodeSystem/measure-population","code":"denominator","display":"Denominator"}]},"count":1},{"code":{"coding":[{"system":"http://terminology.hl7.org/CodeSystem/measure-population","code":"denominator-exclusion","display":"Denominator Exclusion"}]},"count":0},{"code":{"coding":[{"system":"http://terminology.hl7.org/CodeSystem/measure-population","code":"numerator","display":"Numerator"}]},"count":0}]}]},"request":{"method":"PUT","url":"MeasureReport/2f122f9c-4d13-42e5-81e0-cb45322ce42e"}}]}