{"resourceType":"Bundle","id":"tests-5c5e2a11-a194-40b0-bc16-8e7302dafd24-bundle","type":"transaction","entry":[{"fullUrl":"https://madie.cms.gov/Patient/5c5e2a11-a194-40b0-bc16-8e7302dafd24","resource":{"resourceType":"Patient","id":"5c5e2a11-a194-40b0-bc16-8e7302dafd24","meta":{"profile":["http://hl7.org/fhir/us/qicore/StructureDefinition/qicore-patient"]},"text":{"status":"generated","div":"<div xmlns=\"http://www.w3.org/1999/xhtml\"><div class=\"hapiHeaderText\">CMODuringED_ED2HrsBFAdm_1dayBFAdm <b>DENEXFAIL </b></div><table class=\"hapiPropertyTable\"><tbody><tr><td>Identifier</td><td>ead0ddb93e3aec5cd1a2e4f9ca117f88390f7b5b27357b3f94949816bb9c030c</td></tr><tr><td>Date of birth</td><td><span>02 January 1974</span></td></tr></tbody></table></div>"},"extension":[{"url":"http://hl7.org/fhir/us/core/StructureDefinition/us-core-race","extension":[{"url":"ombCategory","valueCoding":{"system":"urn:oid:2.16.840.1.113883.6.238","code":"1002-5","display":"American Indian or Alaska Native","userSelected":true}},{"url":"text","valueString":"American Indian or Alaska Native"}]},{"url":"http://hl7.org/fhir/us/core/StructureDefinition/us-core-ethnicity","extension":[{"url":"ombCategory","valueCoding":{"system":"urn:oid:2.16.840.1.113883.6.238","code":"2135-2","display":"Hispanic or Latino","userSelected":true}},{"url":"text","valueString":"Hispanic or Latino"}]}],"identifier":[{"type":{"coding":[{"system":"http://terminology.hl7.org/CodeSystem/v2-0203","code":"MR"}]},"system":"https://bonnie-fhir.healthit.gov/","value":"612e6ae102c62a011f2eb904"}],"active":true,"name":[{"use":"usual","family":"DENEXFail","given":["CMODuringED_ED2HrsBFAdm_1dayBFAdm"]}],"gender":"male","birthDate":"1974-01-02"},"request":{"method":"PUT","url":"Patient/5c5e2a11-a194-40b0-bc16-8e7302dafd24"}},{"fullUrl":"https://madie.cms.gov/Encounter/5ca62965b8484628b8de1fb3","resource":{"resourceType":"Encounter","id":"cb29129c-b1e1-492b-89c7-d121b5dd7862","meta":{"profile":["http://hl7.org/fhir/us/qicore/StructureDefinition/qicore-encounter"]},"status":"finished","class":{"system":"http://terminology.hl7.org/CodeSystem/v3-ActCode","code":"EMER","display":"emergency"},"type":[{"coding":[{"system":"http://snomed.info/sct","code":"4525004"}]}],"subject":{"reference":"Patient/5c5e2a11-a194-40b0-bc16-8e7302dafd24"},"period":{"start":"2025-10-30T08:00:00+00:00","end":"2025-11-01T07:15:00+00:00"},"length":{"value":2.0,"unit":"days"}},"request":{"method":"PUT","url":"Encounter/cb29129c-b1e1-492b-89c7-d121b5dd7862"}},{"fullUrl":"https://madie.cms.gov/Encounter/5ca62965b8484628b8de1fb4","resource":{"resourceType":"Encounter","id":"d7b28f3a-ef47-43c1-8187-37535c454887","meta":{"profile":["http://hl7.org/fhir/us/qicore/StructureDefinition/qicore-encounter"]},"status":"finished","class":{"system":"http://terminology.hl7.org/CodeSystem/v3-ActCode","code":"IMP","display":"inpatient encounter"},"type":[{"coding":[{"system":"http://snomed.info/sct","code":"8715000"}]}],"subject":{"reference":"Patient/5c5e2a11-a194-40b0-bc16-8e7302dafd24"},"period":{"start":"2025-11-01T10:00:00+00:00","end":"2025-11-26T08:15:00+00:00"},"length":{"value":25.0,"unit":"days"}},"request":{"method":"PUT","url":"Encounter/d7b28f3a-ef47-43c1-8187-37535c454887"}},{"fullUrl":"https://madie.cms.gov/ServiceRequest/5ca62965b8484628b8de1fb5","resource":{"resourceType":"ServiceRequest","id":"a57e0989-cc9c-4ac9-b054-acb1283752c8","meta":{"profile":["http://hl7.org/fhir/us/qicore/StructureDefinition/qicore-servicerequest"]},"status":"completed","intent":"order","code":{"coding":[{"system":"http://snomed.info/sct","code":"133918004"}]},"subject":{"reference":"Patient/5c5e2a11-a194-40b0-bc16-8e7302dafd24"},"authoredOn":"2025-10-31T07:00:00+00:00"},"request":{"method":"PUT","url":"ServiceRequest/a57e0989-cc9c-4ac9-b054-acb1283752c8"}},{"fullUrl":"https://madie.cms.gov/Coverage/5fa041621c76ba66d9959325","resource":{"resourceType":"Coverage","id":"b5a8cccf-d0d1-430f-91cf-6f866e2c76eb","status":"active","beneficiary":{"reference":"Patient/5c5e2a11-a194-40b0-bc16-8e7302dafd24"},"period":{"start":"1974-01-02T08:00:00+00:00"},"payor":[{"reference":"Organization/f6075515-d38f-4624-bde8-a1ce20473a69"}]},"request":{"method":"PUT","url":"Coverage/b5a8cccf-d0d1-430f-91cf-6f866e2c76eb"}},{"fullUrl":"https://madie.cms.gov/Organization/123456","resource":{"resourceType":"Organization","id":"f6075515-d38f-4624-bde8-a1ce20473a69","meta":{"profile":["http://hl7.org/fhir/us/qicore/StructureDefinition/qicore-organization"]},"identifier":[{"use":"temp","system":"urn:oid:2.16.840.1.113883.4.4","value":"21-3259825"}],"active":true,"type":[{"coding":[{"system":"http://terminology.hl7.org/CodeSystem/organization-type","code":"pay","display":"Payer"}]}],"name":"Blue Cross Blue Shield of Texas","telecom":[{"system":"phone","value":"(+1) 972-766-6900"}],"address":[{"use":"billing","type":"postal","line":["P.O. Box 660044"],"city":"Dallas","state":"TX","postalCode":"75266-0044","country":"USA"}]},"request":{"method":"PUT","url":"Organization/f6075515-d38f-4624-bde8-a1ce20473a69"}},{"fullUrl":"https://madie.cms.gov/Practitioner/practitioner-123456","resource":{"resourceType":"Practitioner","id":"a4f4a345-82dd-4b8a-9fe6-15d08de03472","identifier":[{"system":"http://hl7.org/fhir/sid/us-npi","value":"123456"}],"name":[{"family":"Evil","prefix":["Dr"]}]},"request":{"method":"PUT","url":"Practitioner/a4f4a345-82dd-4b8a-9fe6-15d08de03472"}},{"fullUrl":"https://madie.cms.gov/MeasureReport/55281dad-9b8b-4bca-9e5c-636cf7591a34","resource":{"resourceType":"MeasureReport","id":"55281dad-9b8b-4bca-9e5c-636cf7591a34","meta":{"profile":["http://hl7.org/fhir/us/cqfmeasures/StructureDefinition/test-case-cqfm"]},"contained":[{"resourceType":"Parameters","id":"bf6429ac-c279-43b3-b59f-592499f33d5b-parameters","parameter":[{"name":"subject","valueString":"5c5e2a11-a194-40b0-bc16-8e7302dafd24"}]}],"extension":[{"url":"http://hl7.org/fhir/us/cqfmeasures/StructureDefinition/cqfm-inputParameters","valueReference":{"reference":"#bf6429ac-c279-43b3-b59f-592499f33d5b-parameters"}},{"url":"http://hl7.org/fhir/us/cqfmeasures/StructureDefinition/cqfm-testCaseDescription","valueMarkdown":"CMO occurs in ED that ED ends > 1 hour before Adm. this case fail because CMO was 1 day before adm date\n"}],"modifierExtension":[{"url":"http://hl7.org/fhir/us/cqfmeasures/StructureDefinition/cqfm-isTestCase","valueBoolean":true}],"status":"complete","type":"individual","measure":"https://madie.cms.gov/Measure/VenousThromboembolismProphylaxisFHIR","period":{"start":"2025-01-01","end":"2025-12-31"},"group":[{"population":[{"code":{"coding":[{"system":"http://terminology.hl7.org/CodeSystem/measure-population","code":"initial-population","display":"Initial Population"}]},"count":1},{"code":{"coding":[{"system":"http://terminology.hl7.org/CodeSystem/measure-population","code":"denominator","display":"Denominator"}]},"count":1},{"code":{"coding":[{"system":"http://terminology.hl7.org/CodeSystem/measure-population","code":"denominator-exclusion","display":"Denominator Exclusion"}]},"count":0},{"code":{"coding":[{"system":"http://terminology.hl7.org/CodeSystem/measure-population","code":"numerator","display":"Numerator"}]},"count":0}]}]},"request":{"method":"PUT","url":"MeasureReport/55281dad-9b8b-4bca-9e5c-636cf7591a34"}}]}