{"resourceType":"Bundle","id":"tests-f02a4a69-6e70-465f-a3f8-9e9c369d72c3-bundle","type":"transaction","entry":[{"fullUrl":"https://madie.cms.gov/Patient/f02a4a69-6e70-465f-a3f8-9e9c369d72c3","resource":{"resourceType":"Patient","id":"f02a4a69-6e70-465f-a3f8-9e9c369d72c3","meta":{"profile":["http://hl7.org/fhir/us/qicore/StructureDefinition/qicore-patient"]},"text":{"status":"generated","div":"<div xmlns=\"http://www.w3.org/1999/xhtml\"><div class=\"hapiHeaderText\">CMO_DayofAdmit <b>DENEXPASS </b></div><table class=\"hapiPropertyTable\"><tbody><tr><td>Identifier</td><td>0c49f8b1cebc43e2b12df0b5c8ac49c4</td></tr><tr><td>Date of birth</td><td><span>02 January 1974</span></td></tr></tbody></table></div>"},"extension":[{"url":"http://hl7.org/fhir/us/core/StructureDefinition/us-core-race","extension":[{"url":"ombCategory","valueCoding":{"system":"urn:oid:2.16.840.1.113883.6.238","code":"1002-5","display":"American Indian or Alaska Native","userSelected":true}},{"url":"text","valueString":"American Indian or Alaska Native"}]},{"url":"http://hl7.org/fhir/us/core/StructureDefinition/us-core-ethnicity","extension":[{"url":"ombCategory","valueCoding":{"system":"urn:oid:2.16.840.1.113883.6.238","code":"2135-2","display":"Hispanic or Latino","userSelected":true}},{"url":"text","valueString":"Hispanic or Latino"}]}],"identifier":[{"type":{"coding":[{"system":"http://terminology.hl7.org/CodeSystem/v2-0203","code":"MR"}]},"system":"https://bonnie-fhir.healthit.gov/","value":"612e6b4002c62a011f2ed0d6"}],"active":true,"name":[{"use":"usual","family":"DENEXPass","given":["CMO_DayofAdmit"]}],"gender":"male","birthDate":"1974-01-02"},"request":{"method":"PUT","url":"Patient/f02a4a69-6e70-465f-a3f8-9e9c369d72c3"}},{"fullUrl":"https://madie.cms.gov/Encounter/5ca6295db8484628b8de1d5c","resource":{"resourceType":"Encounter","id":"ebe26632-6cc6-4070-ad76-a3549b9ae26d","meta":{"profile":["http://hl7.org/fhir/us/qicore/StructureDefinition/qicore-encounter"]},"status":"finished","class":{"system":"http://terminology.hl7.org/CodeSystem/v3-ActCode","code":"IMP","display":"inpatient encounter"},"type":[{"coding":[{"system":"http://snomed.info/sct","code":"8715000"}]}],"subject":{"reference":"Patient/f02a4a69-6e70-465f-a3f8-9e9c369d72c3"},"period":{"start":"2025-10-19T08:00:00+00:00","end":"2025-11-02T08:15:00+00:00"},"length":{"value":14.0,"unit":"days"},"diagnosis":[{"condition":{"reference":"Condition/venous-thromboembolism-b581"}}]},"request":{"method":"PUT","url":"Encounter/ebe26632-6cc6-4070-ad76-a3549b9ae26d"}},{"fullUrl":"https://madie.cms.gov/Encounter/5ca6295db8484628b8de1d5d","resource":{"resourceType":"Encounter","id":"626dcf1f-8aed-42fc-8f12-ef4dbf6e0f9e","meta":{"profile":["http://hl7.org/fhir/us/qicore/StructureDefinition/qicore-encounter"]},"status":"finished","class":{"system":"http://terminology.hl7.org/CodeSystem/v3-ActCode","code":"IMP","display":"inpatient encounter"},"type":[{"coding":[{"system":"http://snomed.info/sct","code":"8715000"}]}],"subject":{"reference":"Patient/f02a4a69-6e70-465f-a3f8-9e9c369d72c3"},"period":{"start":"2025-11-01T08:00:00+00:00","end":"2025-11-26T08:15:00+00:00"},"length":{"value":25.0,"unit":"days"}},"request":{"method":"PUT","url":"Encounter/626dcf1f-8aed-42fc-8f12-ef4dbf6e0f9e"}},{"fullUrl":"https://madie.cms.gov/ServiceRequest/5ca6295db8484628b8de1d5e","resource":{"resourceType":"ServiceRequest","id":"8935d8a7-abe0-4c4b-8248-4cfa5fddfe75","meta":{"profile":["http://hl7.org/fhir/us/qicore/StructureDefinition/qicore-servicerequest"]},"status":"completed","intent":"order","code":{"coding":[{"system":"http://snomed.info/sct","code":"133918004"}]},"subject":{"reference":"Patient/f02a4a69-6e70-465f-a3f8-9e9c369d72c3"},"authoredOn":"2025-11-01T11:00:00+00:00"},"request":{"method":"PUT","url":"ServiceRequest/8935d8a7-abe0-4c4b-8248-4cfa5fddfe75"}},{"fullUrl":"https://madie.cms.gov/Coverage/5fa0414b1c76ba66d9959190","resource":{"resourceType":"Coverage","id":"5699149d-2cbe-4c39-adc1-96ddb8f50164","status":"active","beneficiary":{"reference":"Patient/f02a4a69-6e70-465f-a3f8-9e9c369d72c3"},"period":{"start":"1974-01-02T08:00:00+00:00"},"payor":[{"reference":"Organization/890316dc-a4ad-43b4-ba6f-9fb9e6eca282"}]},"request":{"method":"PUT","url":"Coverage/5699149d-2cbe-4c39-adc1-96ddb8f50164"}},{"fullUrl":"https://madie.cms.gov/Condition/venous-thromboembolism-b581","resource":{"resourceType":"Condition","id":"3a70fcf8-bef2-4051-a623-128a35301e5b","meta":{"profile":["http://hl7.org/fhir/us/qicore/StructureDefinition/qicore-condition"]},"category":[{"coding":[{"system":"http://terminology.hl7.org/CodeSystem/condition-category","code":"encounter-diagnosis","display":"Encounter Diagnosis"}]}],"code":{"coding":[{"system":"http://snomed.info/sct","version":"2025-03","code":"1001000119102","display":"Pulmonary embolism with pulmonary infarction (disorder)","userSelected":true}]},"subject":{"reference":"Patient/f02a4a69-6e70-465f-a3f8-9e9c369d72c3"},"recordedDate":"2025-07-13T08:00:00.000+00:00"},"request":{"method":"PUT","url":"Condition/3a70fcf8-bef2-4051-a623-128a35301e5b"}},{"fullUrl":"https://madie.cms.gov/Organization/123456","resource":{"resourceType":"Organization","id":"890316dc-a4ad-43b4-ba6f-9fb9e6eca282","meta":{"profile":["http://hl7.org/fhir/us/qicore/StructureDefinition/qicore-organization"]},"identifier":[{"use":"temp","system":"urn:oid:2.16.840.1.113883.4.4","value":"21-3259825"}],"active":true,"type":[{"coding":[{"system":"http://terminology.hl7.org/CodeSystem/organization-type","code":"pay","display":"Payer"}]}],"name":"Blue Cross Blue Shield of Texas","telecom":[{"system":"phone","value":"(+1) 972-766-6900"}],"address":[{"use":"billing","type":"postal","line":["P.O. Box 660044"],"city":"Dallas","state":"TX","postalCode":"75266-0044","country":"USA"}]},"request":{"method":"PUT","url":"Organization/890316dc-a4ad-43b4-ba6f-9fb9e6eca282"}},{"fullUrl":"https://madie.cms.gov/Practitioner/practitioner-123456","resource":{"resourceType":"Practitioner","id":"0db923b5-5cd0-4877-bd77-e1a8237026b4","identifier":[{"system":"http://hl7.org/fhir/sid/us-npi","value":"123456"}],"name":[{"family":"Evil","prefix":["Dr"]}]},"request":{"method":"PUT","url":"Practitioner/0db923b5-5cd0-4877-bd77-e1a8237026b4"}},{"fullUrl":"https://madie.cms.gov/MeasureReport/3973b3d0-7cae-4807-8c31-17d5bcf105c3","resource":{"resourceType":"MeasureReport","id":"3973b3d0-7cae-4807-8c31-17d5bcf105c3","meta":{"profile":["http://hl7.org/fhir/us/cqfmeasures/StructureDefinition/test-case-cqfm"]},"contained":[{"resourceType":"Parameters","id":"de297a9d-6820-46d8-9eb5-e8c835cc9736-parameters","parameter":[{"name":"subject","valueString":"f02a4a69-6e70-465f-a3f8-9e9c369d72c3"}]}],"extension":[{"url":"http://hl7.org/fhir/us/cqfmeasures/StructureDefinition/cqfm-inputParameters","valueReference":{"reference":"#de297a9d-6820-46d8-9eb5-e8c835cc9736-parameters"}},{"url":"http://hl7.org/fhir/us/cqfmeasures/StructureDefinition/cqfm-testCaseDescription","valueMarkdown":"comfort measures order = 0 day after start of IP encounter\n"}],"modifierExtension":[{"url":"http://hl7.org/fhir/us/cqfmeasures/StructureDefinition/cqfm-isTestCase","valueBoolean":true}],"status":"complete","type":"individual","measure":"https://madie.cms.gov/Measure/VenousThromboembolismProphylaxisFHIR","period":{"start":"2025-01-01","end":"2025-12-31"},"group":[{"population":[{"code":{"coding":[{"system":"http://terminology.hl7.org/CodeSystem/measure-population","code":"initial-population","display":"Initial Population"}]},"count":1},{"code":{"coding":[{"system":"http://terminology.hl7.org/CodeSystem/measure-population","code":"denominator","display":"Denominator"}]},"count":1},{"code":{"coding":[{"system":"http://terminology.hl7.org/CodeSystem/measure-population","code":"denominator-exclusion","display":"Denominator Exclusion"}]},"count":1},{"code":{"coding":[{"system":"http://terminology.hl7.org/CodeSystem/measure-population","code":"numerator","display":"Numerator"}]},"count":0}]}]},"request":{"method":"PUT","url":"MeasureReport/3973b3d0-7cae-4807-8c31-17d5bcf105c3"}}]}