{"resourceType":"Bundle","id":"tests-265998f3-4ef6-4345-8ae1-fb6ab204318e-bundle","type":"transaction","entry":[{"fullUrl":"https://madie.cms.gov/Patient/265998f3-4ef6-4345-8ae1-fb6ab204318e","resource":{"resourceType":"Patient","id":"265998f3-4ef6-4345-8ae1-fb6ab204318e","meta":{"profile":["http://hl7.org/fhir/us/qicore/StructureDefinition/qicore-patient"]},"text":{"status":"generated","div":"<div xmlns=\"http://www.w3.org/1999/xhtml\"><div class=\"hapiHeaderText\">MAOralXaApixabanNoSurg<b>NUMERFAIL </b></div><table class=\"hapiPropertyTable\"><tbody><tr><td>Identifier</td><td>b81b91feb2f1861f7a98223048a9e521</td></tr><tr><td>Date of birth</td><td><span>02 January 1974</span></td></tr></tbody></table></div>"},"extension":[{"url":"http://hl7.org/fhir/us/core/StructureDefinition/us-core-race","extension":[{"url":"ombCategory","valueCoding":{"system":"urn:oid:2.16.840.1.113883.6.238","code":"1002-5","display":"American Indian or Alaska Native","userSelected":true}},{"url":"text","valueString":"American Indian or Alaska Native"}]},{"url":"http://hl7.org/fhir/us/core/StructureDefinition/us-core-ethnicity","extension":[{"url":"ombCategory","valueCoding":{"system":"urn:oid:2.16.840.1.113883.6.238","code":"2135-2","display":"Hispanic or Latino","userSelected":true}},{"url":"text","valueString":"Hispanic or Latino"}]}],"identifier":[{"type":{"coding":[{"system":"http://terminology.hl7.org/CodeSystem/v2-0203","code":"MR"}]},"system":"https://bonnie-fhir.healthit.gov/","value":"612e6b5402c62a011f2ed56f"}],"active":true,"name":[{"use":"usual","family":"NUMERFail","given":["MAOralXaApixabanNoSurg"]}],"gender":"male","birthDate":"1974-01-02"},"request":{"method":"PUT","url":"Patient/265998f3-4ef6-4345-8ae1-fb6ab204318e"}},{"fullUrl":"https://madie.cms.gov/Encounter/5ca62961b8484628b8de1e93","resource":{"resourceType":"Encounter","id":"63833b62-e70a-47d3-8b6a-77522210b3b2","meta":{"profile":["http://hl7.org/fhir/us/qicore/StructureDefinition/qicore-encounter"]},"status":"finished","class":{"system":"http://terminology.hl7.org/CodeSystem/v3-ActCode","code":"IMP","display":"inpatient encounter"},"type":[{"coding":[{"system":"http://snomed.info/sct","code":"8715000"}]}],"subject":{"reference":"Patient/265998f3-4ef6-4345-8ae1-fb6ab204318e"},"period":{"start":"2025-11-01T08:00:00+00:00","end":"2025-11-26T08:15:00+00:00"},"length":{"value":25.0,"unit":"days"}},"request":{"method":"PUT","url":"Encounter/63833b62-e70a-47d3-8b6a-77522210b3b2"}},{"fullUrl":"https://madie.cms.gov/Coverage/5fa0415a1c76ba66d9959295","resource":{"resourceType":"Coverage","id":"8b945b08-8b57-4016-993f-289f03002286","status":"active","beneficiary":{"reference":"Patient/265998f3-4ef6-4345-8ae1-fb6ab204318e"},"period":{"start":"1974-01-02T08:00:00+00:00"},"payor":[{"reference":"Organization/4da248b0-6e59-49b7-b80e-338aa21d299f"}]},"request":{"method":"PUT","url":"Coverage/8b945b08-8b57-4016-993f-289f03002286"}},{"fullUrl":"https://madie.cms.gov/MedicationAdministration/5ca62961b8484628b8de1e94","resource":{"resourceType":"MedicationAdministration","id":"8dab27dd-82f9-4cad-a1d9-a5eac63f27b9","meta":{"profile":["http://hl7.org/fhir/us/qicore/StructureDefinition/qicore-medicationadministration"]},"status":"completed","medicationCodeableConcept":{"coding":[{"system":"http://www.nlm.nih.gov/research/umls/rxnorm","code":"1364435"}]},"subject":{"reference":"Patient/265998f3-4ef6-4345-8ae1-fb6ab204318e"},"effectivePeriod":{"start":"2025-11-01T09:00:00+00:00"}},"request":{"method":"PUT","url":"MedicationAdministration/8dab27dd-82f9-4cad-a1d9-a5eac63f27b9"}},{"fullUrl":"https://madie.cms.gov/Organization/123456","resource":{"resourceType":"Organization","id":"4da248b0-6e59-49b7-b80e-338aa21d299f","meta":{"profile":["http://hl7.org/fhir/us/qicore/StructureDefinition/qicore-organization"]},"identifier":[{"use":"temp","system":"urn:oid:2.16.840.1.113883.4.4","value":"21-3259825"}],"active":true,"type":[{"coding":[{"system":"http://terminology.hl7.org/CodeSystem/organization-type","code":"pay","display":"Payer"}]}],"name":"Blue Cross Blue Shield of Texas","telecom":[{"system":"phone","value":"(+1) 972-766-6900"}],"address":[{"use":"billing","type":"postal","line":["P.O. Box 660044"],"city":"Dallas","state":"TX","postalCode":"75266-0044","country":"USA"}]},"request":{"method":"PUT","url":"Organization/4da248b0-6e59-49b7-b80e-338aa21d299f"}},{"fullUrl":"https://madie.cms.gov/Practitioner/practitioner-123456","resource":{"resourceType":"Practitioner","id":"f8e6f274-a9fc-4da4-a13e-eff546e34a30","identifier":[{"system":"http://hl7.org/fhir/sid/us-npi","value":"123456"}],"name":[{"family":"Evil","prefix":["Dr"]}]},"request":{"method":"PUT","url":"Practitioner/f8e6f274-a9fc-4da4-a13e-eff546e34a30"}},{"fullUrl":"https://madie.cms.gov/MeasureReport/6985c3cc-4a98-456a-89a4-e419aa5bb524","resource":{"resourceType":"MeasureReport","id":"6985c3cc-4a98-456a-89a4-e419aa5bb524","meta":{"profile":["http://hl7.org/fhir/us/cqfmeasures/StructureDefinition/test-case-cqfm"]},"contained":[{"resourceType":"Parameters","id":"9f8943d5-edc9-498d-bc45-1f68609f2e25-parameters","parameter":[{"name":"subject","valueString":"265998f3-4ef6-4345-8ae1-fb6ab204318e"}]}],"extension":[{"url":"http://hl7.org/fhir/us/cqfmeasures/StructureDefinition/cqfm-inputParameters","valueReference":{"reference":"#9f8943d5-edc9-498d-bc45-1f68609f2e25-parameters"}},{"url":"http://hl7.org/fhir/us/cqfmeasures/StructureDefinition/cqfm-testCaseDescription","valueMarkdown":">18, LOS<120 day. received Oral FactorXa (apixaban)but does not have a paired diagnosis or procedure required to meet the numerator logic\n"}],"modifierExtension":[{"url":"http://hl7.org/fhir/us/cqfmeasures/StructureDefinition/cqfm-isTestCase","valueBoolean":true}],"status":"complete","type":"individual","measure":"https://madie.cms.gov/Measure/VenousThromboembolismProphylaxisFHIR","period":{"start":"2025-01-01","end":"2025-12-31"},"group":[{"population":[{"code":{"coding":[{"system":"http://terminology.hl7.org/CodeSystem/measure-population","code":"initial-population","display":"Initial Population"}]},"count":1},{"code":{"coding":[{"system":"http://terminology.hl7.org/CodeSystem/measure-population","code":"denominator","display":"Denominator"}]},"count":1},{"code":{"coding":[{"system":"http://terminology.hl7.org/CodeSystem/measure-population","code":"denominator-exclusion","display":"Denominator Exclusion"}]},"count":0},{"code":{"coding":[{"system":"http://terminology.hl7.org/CodeSystem/measure-population","code":"numerator","display":"Numerator"}]},"count":0}]}]},"request":{"method":"PUT","url":"MeasureReport/6985c3cc-4a98-456a-89a4-e419aa5bb524"}}]}