{"resourceType":"Bundle","id":"tests-3db5c5a1-2eec-4e01-8e59-ac389a0a2179-bundle","type":"transaction","entry":[{"fullUrl":"https://madie.cms.gov/Patient/3db5c5a1-2eec-4e01-8e59-ac389a0a2179","resource":{"resourceType":"Patient","id":"3db5c5a1-2eec-4e01-8e59-ac389a0a2179","meta":{"profile":["http://hl7.org/fhir/us/qicore/StructureDefinition/qicore-patient"]},"text":{"status":"generated","div":"<div xmlns=\"http://www.w3.org/1999/xhtml\"><div class=\"hapiHeaderText\">INRGT3_ED <b>NUMERPASS </b></div><table class=\"hapiPropertyTable\"><tbody><tr><td>Identifier</td><td>2e3da27d77f7d9771e3739059c1b88a9</td></tr><tr><td>Date of birth</td><td><span>02 January 1974</span></td></tr></tbody></table></div>"},"extension":[{"url":"http://hl7.org/fhir/us/core/StructureDefinition/us-core-race","extension":[{"url":"ombCategory","valueCoding":{"system":"urn:oid:2.16.840.1.113883.6.238","code":"1002-5","display":"American Indian or Alaska Native","userSelected":true}},{"url":"text","valueString":"American Indian or Alaska Native"}]},{"url":"http://hl7.org/fhir/us/core/StructureDefinition/us-core-ethnicity","extension":[{"url":"ombCategory","valueCoding":{"system":"urn:oid:2.16.840.1.113883.6.238","code":"2135-2","display":"Hispanic or Latino","userSelected":true}},{"url":"text","valueString":"Hispanic or Latino"}]}],"identifier":[{"type":{"coding":[{"system":"http://terminology.hl7.org/CodeSystem/v2-0203","code":"MR"}]},"system":"https://bonnie-fhir.healthit.gov/","value":"612e6b5b02c62a011f2ed76a"}],"active":true,"name":[{"use":"usual","family":"NUMERPass","given":["INRGT3_ED"]}],"gender":"male","birthDate":"1974-01-02"},"request":{"method":"PUT","url":"Patient/3db5c5a1-2eec-4e01-8e59-ac389a0a2179"}},{"fullUrl":"https://madie.cms.gov/Encounter/5ca62963b8484628b8de1eff","resource":{"resourceType":"Encounter","id":"397f9ef6-38d6-4106-8e7b-f5c9e1f8ff51","meta":{"profile":["http://hl7.org/fhir/us/qicore/StructureDefinition/qicore-encounter"]},"status":"finished","class":{"system":"http://terminology.hl7.org/CodeSystem/v3-ActCode","code":"EMER","display":"emergency"},"type":[{"coding":[{"system":"http://snomed.info/sct","code":"4525004"}]}],"subject":{"reference":"Patient/3db5c5a1-2eec-4e01-8e59-ac389a0a2179"},"period":{"start":"2025-11-01T02:00:00+00:00","end":"2025-11-02T07:40:00+00:00"},"length":{"value":0.0,"unit":"days"}},"request":{"method":"PUT","url":"Encounter/397f9ef6-38d6-4106-8e7b-f5c9e1f8ff51"}},{"fullUrl":"https://madie.cms.gov/Encounter/5ca62961b8484628b8de1e9e","resource":{"resourceType":"Encounter","id":"5af3cdeb-4ce2-4062-810e-d0901ba1040d","meta":{"profile":["http://hl7.org/fhir/us/qicore/StructureDefinition/qicore-encounter"]},"status":"finished","class":{"system":"http://terminology.hl7.org/CodeSystem/v3-ActCode","code":"IMP","display":"inpatient encounter"},"type":[{"coding":[{"system":"http://snomed.info/sct","code":"8715000"}]}],"subject":{"reference":"Patient/3db5c5a1-2eec-4e01-8e59-ac389a0a2179"},"period":{"start":"2025-11-02T08:00:00+00:00","end":"2025-11-26T08:15:00+00:00"},"length":{"value":24.0,"unit":"days"}},"request":{"method":"PUT","url":"Encounter/5af3cdeb-4ce2-4062-810e-d0901ba1040d"}},{"fullUrl":"https://madie.cms.gov/Coverage/5fa0415b1c76ba66d99592a4","resource":{"resourceType":"Coverage","id":"c82e2f33-c850-440d-a1a6-a0402b71babb","status":"active","beneficiary":{"reference":"Patient/3db5c5a1-2eec-4e01-8e59-ac389a0a2179"},"period":{"start":"1974-01-02T08:00:00+00:00"},"payor":[{"reference":"Organization/80573fa1-cf83-4e9a-8f21-86a018689678"}]},"request":{"method":"PUT","url":"Coverage/c82e2f33-c850-440d-a1a6-a0402b71babb"}},{"fullUrl":"https://madie.cms.gov/Observation/5ca62961b8484628b8de1e9f","resource":{"resourceType":"Observation","id":"8dcda6c4-d8f0-4185-8145-58f85a2a18b1","meta":{"profile":["http://hl7.org/fhir/us/core/StructureDefinition/us-core-observation-lab"]},"status":"final","category":[{"coding":[{"system":"http://terminology.hl7.org/CodeSystem/observation-category","code":"laboratory","display":"Laboratory"}]}],"code":{"coding":[{"system":"http://loinc.org","code":"34714-6"}]},"subject":{"reference":"Patient/3db5c5a1-2eec-4e01-8e59-ac389a0a2179"},"effectiveDateTime":"2025-11-01T06:00:00+00:00","issued":"2025-11-01T06:00:00.000+00:00","valueQuantity":{"value":3.5,"unit":"{INR}"}},"request":{"method":"PUT","url":"Observation/8dcda6c4-d8f0-4185-8145-58f85a2a18b1"}},{"fullUrl":"https://madie.cms.gov/Organization/123456","resource":{"resourceType":"Organization","id":"80573fa1-cf83-4e9a-8f21-86a018689678","meta":{"profile":["http://hl7.org/fhir/us/qicore/StructureDefinition/qicore-organization"]},"identifier":[{"use":"temp","system":"urn:oid:2.16.840.1.113883.4.4","value":"21-3259825"}],"active":true,"type":[{"coding":[{"system":"http://terminology.hl7.org/CodeSystem/organization-type","code":"pay","display":"Payer"}]}],"name":"Blue Cross Blue Shield of Texas","telecom":[{"system":"phone","value":"(+1) 972-766-6900"}],"address":[{"use":"billing","type":"postal","line":["P.O. Box 660044"],"city":"Dallas","state":"TX","postalCode":"75266-0044","country":"USA"}]},"request":{"method":"PUT","url":"Organization/80573fa1-cf83-4e9a-8f21-86a018689678"}},{"fullUrl":"https://madie.cms.gov/Practitioner/practitioner-123456","resource":{"resourceType":"Practitioner","id":"26bd007e-0f6f-480a-94bf-601f7c810f2c","identifier":[{"system":"http://hl7.org/fhir/sid/us-npi","value":"123456"}],"name":[{"family":"Evil","prefix":["Dr"]}]},"request":{"method":"PUT","url":"Practitioner/26bd007e-0f6f-480a-94bf-601f7c810f2c"}},{"fullUrl":"https://madie.cms.gov/MeasureReport/346e9aec-a1b6-47aa-90b4-ea5605babcc1","resource":{"resourceType":"MeasureReport","id":"346e9aec-a1b6-47aa-90b4-ea5605babcc1","meta":{"profile":["http://hl7.org/fhir/us/cqfmeasures/StructureDefinition/test-case-cqfm"]},"contained":[{"resourceType":"Parameters","id":"4cc49b52-cb3d-420c-98c5-5ff6f92f8e51-parameters","parameter":[{"name":"subject","valueString":"3db5c5a1-2eec-4e01-8e59-ac389a0a2179"}]}],"extension":[{"url":"http://hl7.org/fhir/us/cqfmeasures/StructureDefinition/cqfm-inputParameters","valueReference":{"reference":"#4cc49b52-cb3d-420c-98c5-5ff6f92f8e51-parameters"}},{"url":"http://hl7.org/fhir/us/cqfmeasures/StructureDefinition/cqfm-testCaseDescription","valueMarkdown":">18, LOS<120 day.Lab INR>3 during ED\n"}],"modifierExtension":[{"url":"http://hl7.org/fhir/us/cqfmeasures/StructureDefinition/cqfm-isTestCase","valueBoolean":true}],"status":"complete","type":"individual","measure":"https://madie.cms.gov/Measure/VenousThromboembolismProphylaxisFHIR","period":{"start":"2025-01-01","end":"2025-12-31"},"group":[{"population":[{"code":{"coding":[{"system":"http://terminology.hl7.org/CodeSystem/measure-population","code":"initial-population","display":"Initial Population"}]},"count":1},{"code":{"coding":[{"system":"http://terminology.hl7.org/CodeSystem/measure-population","code":"denominator","display":"Denominator"}]},"count":1},{"code":{"coding":[{"system":"http://terminology.hl7.org/CodeSystem/measure-population","code":"denominator-exclusion","display":"Denominator Exclusion"}]},"count":0},{"code":{"coding":[{"system":"http://terminology.hl7.org/CodeSystem/measure-population","code":"numerator","display":"Numerator"}]},"count":1}]}]},"request":{"method":"PUT","url":"MeasureReport/346e9aec-a1b6-47aa-90b4-ea5605babcc1"}}]}