{"resourceType":"Bundle","id":"tests-7520f4b4-3bde-465e-b6b0-07c5ac3da4de-bundle","type":"transaction","entry":[{"fullUrl":"https://madie.cms.gov/Patient/7520f4b4-3bde-465e-b6b0-07c5ac3da4de","resource":{"resourceType":"Patient","id":"7520f4b4-3bde-465e-b6b0-07c5ac3da4de","meta":{"profile":["http://hl7.org/fhir/us/qicore/StructureDefinition/qicore-patient"]},"text":{"status":"generated","div":"<div xmlns=\"http://www.w3.org/1999/xhtml\"><div class=\"hapiHeaderText\">MedReason_MA_Warf_DO_IPC_DayOfAnes <b>NUMERPASS </b></div><table class=\"hapiPropertyTable\"><tbody><tr><td>Identifier</td><td>7b1692125190d12df658f3578aa84ca8</td></tr><tr><td>Date of birth</td><td><span>02 January 1974</span></td></tr></tbody></table></div>"},"extension":[{"url":"http://hl7.org/fhir/us/core/StructureDefinition/us-core-race","extension":[{"url":"ombCategory","valueCoding":{"system":"urn:oid:2.16.840.1.113883.6.238","code":"1002-5","display":"American Indian or Alaska Native","userSelected":true}},{"url":"text","valueString":"American Indian or Alaska Native"}]},{"url":"http://hl7.org/fhir/us/core/StructureDefinition/us-core-ethnicity","extension":[{"url":"ombCategory","valueCoding":{"system":"urn:oid:2.16.840.1.113883.6.238","code":"2135-2","display":"Hispanic or Latino","userSelected":true}},{"url":"text","valueString":"Hispanic or Latino"}]}],"identifier":[{"type":{"coding":[{"system":"http://terminology.hl7.org/CodeSystem/v2-0203","code":"MR"}]},"system":"https://bonnie-fhir.healthit.gov/","value":"612e6a9402c62a011f2ea747"}],"active":true,"name":[{"use":"usual","family":"NUMERPass","given":["MedReason_MA_Warf_DO_IPC_DayOfAnes"]}],"gender":"male","birthDate":"1974-01-02"},"request":{"method":"PUT","url":"Patient/7520f4b4-3bde-465e-b6b0-07c5ac3da4de"}},{"fullUrl":"https://madie.cms.gov/Encounter/5ca6295fb8484628b8de1dd9","resource":{"resourceType":"Encounter","id":"6801b028-698f-4da3-98ab-1c2007b991d5","meta":{"profile":["http://hl7.org/fhir/us/qicore/StructureDefinition/qicore-encounter"]},"status":"finished","class":{"system":"http://terminology.hl7.org/CodeSystem/v3-ActCode","code":"IMP","display":"inpatient encounter"},"type":[{"coding":[{"system":"http://snomed.info/sct","code":"8715000"}]}],"subject":{"reference":"Patient/7520f4b4-3bde-465e-b6b0-07c5ac3da4de"},"period":{"start":"2025-11-01T08:00:00+00:00","end":"2025-11-26T08:15:00+00:00"},"length":{"value":25.0,"unit":"days"}},"request":{"method":"PUT","url":"Encounter/6801b028-698f-4da3-98ab-1c2007b991d5"}},{"fullUrl":"https://madie.cms.gov/Coverage/5fa041501c76ba66d99591f6","resource":{"resourceType":"Coverage","id":"45bc5f1c-f3f1-4e87-8779-123acaa92257","status":"active","beneficiary":{"reference":"Patient/7520f4b4-3bde-465e-b6b0-07c5ac3da4de"},"period":{"start":"1974-01-02T08:00:00+00:00"},"payor":[{"reference":"Organization/5224cb12-ed64-4d6d-ab28-40a64f0800f1"}]},"request":{"method":"PUT","url":"Coverage/45bc5f1c-f3f1-4e87-8779-123acaa92257"}},{"fullUrl":"https://madie.cms.gov/MedicationAdministration/5ca6295fb8484628b8de1ddb","resource":{"resourceType":"MedicationAdministration","id":"95875cb3-c88f-41d9-b300-ebb869d9801c","meta":{"profile":["http://hl7.org/fhir/us/qicore/StructureDefinition/qicore-mednotadministered"]},"extension":[{"url":"http://hl7.org/fhir/us/qicore/StructureDefinition/qicore-recorded","valueDateTime":"2025-11-02T11:00:00+00:00"}],"status":"not-done","statusReason":[{"coding":[{"system":"http://snomed.info/sct","code":"183932001"}]}],"medicationCodeableConcept":{"coding":[{"system":"http://www.nlm.nih.gov/research/umls/rxnorm","code":"855288"}]},"subject":{"reference":"Patient/7520f4b4-3bde-465e-b6b0-07c5ac3da4de"},"effectivePeriod":{"start":"2025-11-02T11:00:00+00:00"}},"request":{"method":"PUT","url":"MedicationAdministration/95875cb3-c88f-41d9-b300-ebb869d9801c"}},{"fullUrl":"https://madie.cms.gov/Procedure/5ca6295fb8484628b8de1ddc","resource":{"resourceType":"Procedure","id":"d6c12a8f-8a8e-4770-80da-f66f2091ec32","meta":{"profile":["http://hl7.org/fhir/us/qicore/StructureDefinition/qicore-procedure"]},"extension":[{"url":"http://hl7.org/fhir/us/qicore/StructureDefinition/qicore-recorded","valueDateTime":"2012-11-02T09:35:00-04:00"}],"status":"completed","code":{"coding":[{"system":"http://snomed.info/sct","code":"18946005"}]},"subject":{"reference":"Patient/7520f4b4-3bde-465e-b6b0-07c5ac3da4de"},"performedPeriod":{"start":"2025-11-02T09:00:00+00:00","end":"2025-11-02T09:15:00+00:00"}},"request":{"method":"PUT","url":"Procedure/d6c12a8f-8a8e-4770-80da-f66f2091ec32"}},{"fullUrl":"https://madie.cms.gov/ServiceRequest/intermittent-pneumatic-compression-devices-ipc-8a2e","resource":{"resourceType":"ServiceRequest","id":"9b4b40c6-09dd-4ff9-a033-fab98df3a993","meta":{"profile":["http://hl7.org/fhir/us/qicore/StructureDefinition/qicore-servicenotrequested"]},"extension":[{"url":"http://hl7.org/fhir/us/qicore/StructureDefinition/qicore-doNotPerformReason","valueCodeableConcept":{"coding":[{"system":"http://snomed.info/sct","code":"183932001","display":"Procedure contraindicated (situation)"}]}}],"status":"completed","intent":"order","doNotPerform":true,"code":{"coding":[{"system":"http://snomed.info/sct","version":"2025-03","code":"428411000124104","display":"Intermittent pneumatic compression boot (physical object)","userSelected":true}]},"subject":{"reference":"Patient/7520f4b4-3bde-465e-b6b0-07c5ac3da4de"},"authoredOn":"2025-11-02T10:00:00.000+00:00"},"request":{"method":"PUT","url":"ServiceRequest/9b4b40c6-09dd-4ff9-a033-fab98df3a993"}},{"fullUrl":"https://madie.cms.gov/Organization/123456","resource":{"resourceType":"Organization","id":"5224cb12-ed64-4d6d-ab28-40a64f0800f1","meta":{"profile":["http://hl7.org/fhir/us/qicore/StructureDefinition/qicore-organization"]},"identifier":[{"use":"temp","system":"urn:oid:2.16.840.1.113883.4.4","value":"21-3259825"}],"active":true,"type":[{"coding":[{"system":"http://terminology.hl7.org/CodeSystem/organization-type","code":"pay","display":"Payer"}]}],"name":"Blue Cross Blue Shield of Texas","telecom":[{"system":"phone","value":"(+1) 972-766-6900"}],"address":[{"use":"billing","type":"postal","line":["P.O. Box 660044"],"city":"Dallas","state":"TX","postalCode":"75266-0044","country":"USA"}]},"request":{"method":"PUT","url":"Organization/5224cb12-ed64-4d6d-ab28-40a64f0800f1"}},{"fullUrl":"https://madie.cms.gov/Practitioner/practitioner-123456","resource":{"resourceType":"Practitioner","id":"ced33c2d-ff11-4178-8e8f-582fe9bd7560","identifier":[{"system":"http://hl7.org/fhir/sid/us-npi","value":"123456"}],"name":[{"family":"Evil","prefix":["Dr"]}]},"request":{"method":"PUT","url":"Practitioner/ced33c2d-ff11-4178-8e8f-582fe9bd7560"}},{"fullUrl":"https://madie.cms.gov/MeasureReport/7d91cb79-62f0-4934-9d50-bbd13e6d3ad2","resource":{"resourceType":"MeasureReport","id":"7d91cb79-62f0-4934-9d50-bbd13e6d3ad2","meta":{"profile":["http://hl7.org/fhir/us/cqfmeasures/StructureDefinition/test-case-cqfm"]},"contained":[{"resourceType":"Parameters","id":"8378d19f-689e-4432-95c2-6b0a4f537816-parameters","parameter":[{"name":"subject","valueString":"7520f4b4-3bde-465e-b6b0-07c5ac3da4de"}]}],"extension":[{"url":"http://hl7.org/fhir/us/cqfmeasures/StructureDefinition/cqfm-inputParameters","valueReference":{"reference":"#8378d19f-689e-4432-95c2-6b0a4f537816-parameters"}},{"url":"http://hl7.org/fhir/us/cqfmeasures/StructureDefinition/cqfm-testCaseDescription","valueMarkdown":"IPC not ordered and warfarin not administered due to medical reason <= 1 day after end of anesthesia\n"}],"modifierExtension":[{"url":"http://hl7.org/fhir/us/cqfmeasures/StructureDefinition/cqfm-isTestCase","valueBoolean":true}],"status":"complete","type":"individual","measure":"https://madie.cms.gov/Measure/VenousThromboembolismProphylaxisFHIR","period":{"start":"2025-01-01","end":"2025-12-31"},"group":[{"population":[{"code":{"coding":[{"system":"http://terminology.hl7.org/CodeSystem/measure-population","code":"initial-population","display":"Initial Population"}]},"count":1},{"code":{"coding":[{"system":"http://terminology.hl7.org/CodeSystem/measure-population","code":"denominator","display":"Denominator"}]},"count":1},{"code":{"coding":[{"system":"http://terminology.hl7.org/CodeSystem/measure-population","code":"denominator-exclusion","display":"Denominator Exclusion"}]},"count":0},{"code":{"coding":[{"system":"http://terminology.hl7.org/CodeSystem/measure-population","code":"numerator","display":"Numerator"}]},"count":1}]}]},"request":{"method":"PUT","url":"MeasureReport/7d91cb79-62f0-4934-9d50-bbd13e6d3ad2"}}]}