{"resourceType":"Bundle","id":"tests-4fe13533-3514-48d8-aba0-a7c790e796cc-bundle","type":"transaction","entry":[{"fullUrl":"https://madie.cms.gov/Patient/4fe13533-3514-48d8-aba0-a7c790e796cc","resource":{"resourceType":"Patient","id":"4fe13533-3514-48d8-aba0-a7c790e796cc","meta":{"profile":["http://hl7.org/fhir/us/qicore/StructureDefinition/qicore-patient"]},"text":{"status":"generated","div":"<div xmlns=\"http://www.w3.org/1999/xhtml\"><div class=\"hapiHeaderText\">MA_Glyco1DayAfterAnes <b>NUMERPASS </b></div><table class=\"hapiPropertyTable\"><tbody><tr><td>Identifier</td><td>66d2578ee9fbf1a6dd6e4e6d73908c98</td></tr><tr><td>Date of birth</td><td><span>02 January 1974</span></td></tr></tbody></table></div>"},"extension":[{"url":"http://hl7.org/fhir/us/core/StructureDefinition/us-core-race","extension":[{"url":"ombCategory","valueCoding":{"system":"urn:oid:2.16.840.1.113883.6.238","code":"1002-5","display":"American Indian or Alaska Native","userSelected":true}},{"url":"text","valueString":"American Indian or Alaska Native"}]},{"url":"http://hl7.org/fhir/us/core/StructureDefinition/us-core-ethnicity","extension":[{"url":"ombCategory","valueCoding":{"system":"urn:oid:2.16.840.1.113883.6.238","code":"2135-2","display":"Hispanic or Latino","userSelected":true}},{"url":"text","valueString":"Hispanic or Latino"}]}],"identifier":[{"type":{"coding":[{"system":"http://terminology.hl7.org/CodeSystem/v2-0203","code":"MR"}]},"system":"https://bonnie-fhir.healthit.gov/","value":"612e6a9c02c62a011f2ea93c"}],"active":true,"name":[{"use":"usual","family":"NUMERPass","given":["MA_Glyco1DayAfterAnes"]}],"gender":"male","birthDate":"1974-01-02"},"request":{"method":"PUT","url":"Patient/4fe13533-3514-48d8-aba0-a7c790e796cc"}},{"fullUrl":"https://madie.cms.gov/Encounter/5ca62964b8484628b8de1f1a","resource":{"resourceType":"Encounter","id":"cbf6c020-3d68-418e-85e0-35b60710dafa","meta":{"profile":["http://hl7.org/fhir/us/qicore/StructureDefinition/qicore-encounter"]},"status":"finished","class":{"system":"http://terminology.hl7.org/CodeSystem/v3-ActCode","code":"IMP","display":"inpatient encounter"},"type":[{"coding":[{"system":"http://snomed.info/sct","code":"8715000"}]}],"subject":{"reference":"Patient/4fe13533-3514-48d8-aba0-a7c790e796cc"},"period":{"start":"2025-11-01T08:00:00+00:00","end":"2025-11-26T08:15:00+00:00"},"length":{"value":25.0,"unit":"days"}},"request":{"method":"PUT","url":"Encounter/cbf6c020-3d68-418e-85e0-35b60710dafa"}},{"fullUrl":"https://madie.cms.gov/Coverage/5fa041511c76ba66d9959208","resource":{"resourceType":"Coverage","id":"6a805287-5fac-4c0d-8b0b-d12ce26c30bd","status":"active","beneficiary":{"reference":"Patient/4fe13533-3514-48d8-aba0-a7c790e796cc"},"period":{"start":"1974-01-02T08:00:00+00:00"},"payor":[{"reference":"Organization/024e2731-b045-43bf-80d2-684774c5b51c"}]},"request":{"method":"PUT","url":"Coverage/6a805287-5fac-4c0d-8b0b-d12ce26c30bd"}},{"fullUrl":"https://madie.cms.gov/MedicationAdministration/5ca62964b8484628b8de1f1b","resource":{"resourceType":"MedicationAdministration","id":"c0607b72-89fa-40f7-a250-8f35233058e6","meta":{"profile":["http://hl7.org/fhir/us/qicore/StructureDefinition/qicore-medicationadministration"]},"status":"completed","medicationCodeableConcept":{"coding":[{"system":"http://www.nlm.nih.gov/research/umls/rxnorm","code":"200349"}]},"subject":{"reference":"Patient/4fe13533-3514-48d8-aba0-a7c790e796cc"},"effectivePeriod":{"start":"2025-11-03T11:00:00+00:00","end":"2025-11-03T11:15:00+00:00"}},"request":{"method":"PUT","url":"MedicationAdministration/c0607b72-89fa-40f7-a250-8f35233058e6"}},{"fullUrl":"https://madie.cms.gov/Procedure/5ca62964b8484628b8de1f1c","resource":{"resourceType":"Procedure","id":"365958a2-e7df-4f01-899b-8a4ce0997019","meta":{"profile":["http://hl7.org/fhir/us/qicore/StructureDefinition/qicore-procedure"]},"extension":[{"url":"http://hl7.org/fhir/us/qicore/StructureDefinition/qicore-recorded","valueDateTime":"2012-11-03T09:35:00-04:00"}],"status":"completed","code":{"coding":[{"system":"http://www.cms.gov/Medicare/Coding/ICD10","code":"3E030FZ"},{"system":"http://snomed.info/sct","code":"18946005"}]},"subject":{"reference":"Patient/4fe13533-3514-48d8-aba0-a7c790e796cc"},"performedPeriod":{"start":"2025-11-02T09:00:00+00:00","end":"2025-11-02T10:15:00+00:00"}},"request":{"method":"PUT","url":"Procedure/365958a2-e7df-4f01-899b-8a4ce0997019"}},{"fullUrl":"https://madie.cms.gov/Organization/123456","resource":{"resourceType":"Organization","id":"024e2731-b045-43bf-80d2-684774c5b51c","meta":{"profile":["http://hl7.org/fhir/us/qicore/StructureDefinition/qicore-organization"]},"identifier":[{"use":"temp","system":"urn:oid:2.16.840.1.113883.4.4","value":"21-3259825"}],"active":true,"type":[{"coding":[{"system":"http://terminology.hl7.org/CodeSystem/organization-type","code":"pay","display":"Payer"}]}],"name":"Blue Cross Blue Shield of Texas","telecom":[{"system":"phone","value":"(+1) 972-766-6900"}],"address":[{"use":"billing","type":"postal","line":["P.O. Box 660044"],"city":"Dallas","state":"TX","postalCode":"75266-0044","country":"USA"}]},"request":{"method":"PUT","url":"Organization/024e2731-b045-43bf-80d2-684774c5b51c"}},{"fullUrl":"https://madie.cms.gov/Practitioner/practitioner-123456","resource":{"resourceType":"Practitioner","id":"64b4632c-902e-45ce-8e38-3e9f9783e210","identifier":[{"system":"http://hl7.org/fhir/sid/us-npi","value":"123456"}],"name":[{"family":"Evil","prefix":["Dr"]}]},"request":{"method":"PUT","url":"Practitioner/64b4632c-902e-45ce-8e38-3e9f9783e210"}},{"fullUrl":"https://madie.cms.gov/MeasureReport/f4ed8d19-4502-4b3b-9016-a30a587f29ff","resource":{"resourceType":"MeasureReport","id":"f4ed8d19-4502-4b3b-9016-a30a587f29ff","meta":{"profile":["http://hl7.org/fhir/us/cqfmeasures/StructureDefinition/test-case-cqfm"]},"contained":[{"resourceType":"Parameters","id":"54cfe246-40f4-4977-aeab-d60300209229-parameters","parameter":[{"name":"subject","valueString":"4fe13533-3514-48d8-aba0-a7c790e796cc"}]}],"extension":[{"url":"http://hl7.org/fhir/us/cqfmeasures/StructureDefinition/cqfm-inputParameters","valueReference":{"reference":"#54cfe246-40f4-4977-aeab-d60300209229-parameters"}},{"url":"http://hl7.org/fhir/us/cqfmeasures/StructureDefinition/cqfm-testCaseDescription","valueMarkdown":"Glycoprotein IIb/IIIa Inhibitors administered = 1 day after end of anesthesia\n"}],"modifierExtension":[{"url":"http://hl7.org/fhir/us/cqfmeasures/StructureDefinition/cqfm-isTestCase","valueBoolean":true}],"status":"complete","type":"individual","measure":"https://madie.cms.gov/Measure/VenousThromboembolismProphylaxisFHIR","period":{"start":"2025-01-01","end":"2025-12-31"},"group":[{"population":[{"code":{"coding":[{"system":"http://terminology.hl7.org/CodeSystem/measure-population","code":"initial-population","display":"Initial Population"}]},"count":1},{"code":{"coding":[{"system":"http://terminology.hl7.org/CodeSystem/measure-population","code":"denominator","display":"Denominator"}]},"count":1},{"code":{"coding":[{"system":"http://terminology.hl7.org/CodeSystem/measure-population","code":"denominator-exclusion","display":"Denominator Exclusion"}]},"count":0},{"code":{"coding":[{"system":"http://terminology.hl7.org/CodeSystem/measure-population","code":"numerator","display":"Numerator"}]},"count":1}]}]},"request":{"method":"PUT","url":"MeasureReport/f4ed8d19-4502-4b3b-9016-a30a587f29ff"}}]}