{"resourceType":"Bundle","id":"tests-393c7827-5136-4a2d-916d-3da088d2c053-bundle","type":"transaction","entry":[{"fullUrl":"https://madie.cms.gov/Patient/393c7827-5136-4a2d-916d-3da088d2c053","resource":{"resourceType":"Patient","id":"393c7827-5136-4a2d-916d-3da088d2c053","meta":{"profile":["http://hl7.org/fhir/us/qicore/StructureDefinition/qicore-patient"]},"text":{"status":"generated","div":"<div xmlns=\"http://www.w3.org/1999/xhtml\"><div class=\"hapiHeaderText\">MAOralXaDayAFEncStartKneeSurgRvltDT <b>NUMERPASS </b></div><table class=\"hapiPropertyTable\"><tbody><tr><td>Date of birth</td><td><span>02 January 1974</span></td></tr></tbody></table></div>"},"extension":[{"url":"http://hl7.org/fhir/us/core/StructureDefinition/us-core-race","extension":[{"url":"ombCategory","valueCoding":{"system":"urn:oid:2.16.840.1.113883.6.238","code":"1002-5","display":"American Indian or Alaska Native","userSelected":true}},{"url":"text","valueString":"American Indian or Alaska Native"}]},{"url":"http://hl7.org/fhir/us/core/StructureDefinition/us-core-ethnicity","extension":[{"url":"ombCategory","valueCoding":{"system":"urn:oid:2.16.840.1.113883.6.238","code":"2135-2","display":"Hispanic or Latino","userSelected":true}},{"url":"text","valueString":"Hispanic or Latino"}]}],"identifier":[{"type":{"coding":[{"system":"http://terminology.hl7.org/CodeSystem/v2-0203","code":"MR"}]},"system":"https://bonnie-fhir.healthit.gov/","value":"612e6af202c62a011f2ebdd1"}],"active":true,"name":[{"use":"usual","family":"NUMERPass","given":["MAOralXaDayAFEncStartKneeSurgRvltDT"]}],"gender":"female","birthDate":"1974-01-02"},"request":{"method":"PUT","url":"Patient/393c7827-5136-4a2d-916d-3da088d2c053"}},{"fullUrl":"https://madie.cms.gov/Encounter/5dbe0ec236c3c80000887248","resource":{"resourceType":"Encounter","id":"2f3c00be-72f5-495f-864a-e5f368a31e0d","meta":{"profile":["http://hl7.org/fhir/us/qicore/StructureDefinition/qicore-encounter"]},"status":"finished","class":{"system":"http://terminology.hl7.org/CodeSystem/v3-ActCode","code":"IMP","display":"inpatient encounter"},"type":[{"coding":[{"system":"http://snomed.info/sct","code":"183452005"}]}],"subject":{"reference":"Patient/393c7827-5136-4a2d-916d-3da088d2c053"},"period":{"start":"2025-11-01T08:00:00+00:00","end":"2025-11-26T08:15:00+00:00"},"length":{"value":25.0,"unit":"day"}},"request":{"method":"PUT","url":"Encounter/2f3c00be-72f5-495f-864a-e5f368a31e0d"}},{"fullUrl":"https://madie.cms.gov/Coverage/5fa041641c76ba66d995934f","resource":{"resourceType":"Coverage","id":"2ac1808f-bb92-48cf-9d4b-624955fcc73d","status":"active","beneficiary":{"reference":"Patient/393c7827-5136-4a2d-916d-3da088d2c053"},"period":{"start":"1974-01-02T08:00:00+00:00"},"payor":[{"reference":"Organization/9e9b3f13-a353-4173-b29b-947d6f1f2031"}]},"request":{"method":"PUT","url":"Coverage/2ac1808f-bb92-48cf-9d4b-624955fcc73d"}},{"fullUrl":"https://madie.cms.gov/MedicationAdministration/5dbe0f2536c3c80000887277","resource":{"resourceType":"MedicationAdministration","id":"011b7748-8577-42e4-bcb8-2509b2d596a1","meta":{"profile":["http://hl7.org/fhir/us/qicore/StructureDefinition/qicore-medicationadministration"]},"status":"completed","medicationCodeableConcept":{"coding":[{"system":"http://www.nlm.nih.gov/research/umls/rxnorm","code":"1992427"}]},"subject":{"reference":"Patient/393c7827-5136-4a2d-916d-3da088d2c053"},"effectivePeriod":{"start":"2025-11-02T23:59:00+00:00","end":"2025-11-02T23:59:00+00:00"}},"request":{"method":"PUT","url":"MedicationAdministration/011b7748-8577-42e4-bcb8-2509b2d596a1"}},{"fullUrl":"https://madie.cms.gov/Procedure/5dbe0f5236c3c80000887297","resource":{"resourceType":"Procedure","id":"1e3afd7f-30f6-4604-ba6c-6d668d854bcc","meta":{"profile":["http://hl7.org/fhir/us/qicore/StructureDefinition/qicore-procedure"]},"extension":[{"url":"http://hl7.org/fhir/us/qicore/StructureDefinition/qicore-recorded","valueDateTime":"2012-11-19T09:35:00-04:00"}],"status":"completed","code":{"coding":[{"system":"http://www.cms.gov/Medicare/Coding/ICD10","code":"0SUU09Z"}]},"subject":{"reference":"Patient/393c7827-5136-4a2d-916d-3da088d2c053"},"performedDateTime":"2025-11-01T09:00:00+00:00"},"request":{"method":"PUT","url":"Procedure/1e3afd7f-30f6-4604-ba6c-6d668d854bcc"}},{"fullUrl":"https://madie.cms.gov/Organization/123456","resource":{"resourceType":"Organization","id":"9e9b3f13-a353-4173-b29b-947d6f1f2031","meta":{"profile":["http://hl7.org/fhir/us/qicore/StructureDefinition/qicore-organization"]},"identifier":[{"use":"temp","system":"urn:oid:2.16.840.1.113883.4.4","value":"21-3259825"}],"active":true,"type":[{"coding":[{"system":"http://terminology.hl7.org/CodeSystem/organization-type","code":"pay","display":"Payer"}]}],"name":"Blue Cross Blue Shield of Texas","telecom":[{"system":"phone","value":"(+1) 972-766-6900"}],"address":[{"use":"billing","type":"postal","line":["P.O. Box 660044"],"city":"Dallas","state":"TX","postalCode":"75266-0044","country":"USA"}]},"request":{"method":"PUT","url":"Organization/9e9b3f13-a353-4173-b29b-947d6f1f2031"}},{"fullUrl":"https://madie.cms.gov/Practitioner/practitioner-123456","resource":{"resourceType":"Practitioner","id":"2b47c136-f607-4434-b030-fa2f264e608c","identifier":[{"system":"http://hl7.org/fhir/sid/us-npi","value":"123456"}],"name":[{"family":"Evil","prefix":["Dr"]}]},"request":{"method":"PUT","url":"Practitioner/2b47c136-f607-4434-b030-fa2f264e608c"}},{"fullUrl":"https://madie.cms.gov/MeasureReport/370cf0ef-713c-43d2-90f9-c3ba1f19c58e","resource":{"resourceType":"MeasureReport","id":"370cf0ef-713c-43d2-90f9-c3ba1f19c58e","meta":{"profile":["http://hl7.org/fhir/us/cqfmeasures/StructureDefinition/test-case-cqfm"]},"contained":[{"resourceType":"Parameters","id":"81666d0c-92ac-47b0-adc6-e88eef14743c-parameters","parameter":[{"name":"subject","valueString":"393c7827-5136-4a2d-916d-3da088d2c053"}]}],"extension":[{"url":"http://hl7.org/fhir/us/cqfmeasures/StructureDefinition/cqfm-inputParameters","valueReference":{"reference":"#81666d0c-92ac-47b0-adc6-e88eef14743c-parameters"}},{"url":"http://hl7.org/fhir/us/cqfmeasures/StructureDefinition/cqfm-testCaseDescription","valueMarkdown":"\"Oral Xa 11:59PM day after Inp.start\nHip replacement surgery Revelant Datetime after IP\"\n"}],"modifierExtension":[{"url":"http://hl7.org/fhir/us/cqfmeasures/StructureDefinition/cqfm-isTestCase","valueBoolean":true}],"status":"complete","type":"individual","measure":"https://madie.cms.gov/Measure/VenousThromboembolismProphylaxisFHIR","period":{"start":"2025-01-01","end":"2025-12-31"},"group":[{"population":[{"code":{"coding":[{"system":"http://terminology.hl7.org/CodeSystem/measure-population","code":"initial-population","display":"Initial Population"}]},"count":1},{"code":{"coding":[{"system":"http://terminology.hl7.org/CodeSystem/measure-population","code":"denominator","display":"Denominator"}]},"count":1},{"code":{"coding":[{"system":"http://terminology.hl7.org/CodeSystem/measure-population","code":"denominator-exclusion","display":"Denominator Exclusion"}]},"count":0},{"code":{"coding":[{"system":"http://terminology.hl7.org/CodeSystem/measure-population","code":"numerator","display":"Numerator"}]},"count":1}]}]},"request":{"method":"PUT","url":"MeasureReport/370cf0ef-713c-43d2-90f9-c3ba1f19c58e"}}]}