{"resourceType":"Bundle","id":"tests-3db5c5a1-2eec-4e01-8e59-ac389a0a2179-bundle","type":"transaction","entry":[{"fullUrl":"https://madie.cms.gov/Patient/3db5c5a1-2eec-4e01-8e59-ac389a0a2179","resource":{"resourceType":"Patient","id":"3db5c5a1-2eec-4e01-8e59-ac389a0a2179","meta":{"profile":["http://hl7.org/fhir/us/qicore/StructureDefinition/qicore-patient"]},"text":{"status":"generated","div":"<div xmlns=\"http://www.w3.org/1999/xhtml\"><div class=\"hapiHeaderText\">INRGT3_ED <b>NUMERPASS </b></div><table class=\"hapiPropertyTable\"><tbody><tr><td>Identifier</td><td>2e3da27d77f7d9771e3739059c1b88a9</td></tr><tr><td>Date of birth</td><td><span>02 January 1974</span></td></tr></tbody></table></div>"},"extension":[{"url":"http://hl7.org/fhir/us/core/StructureDefinition/us-core-race","extension":[{"url":"ombCategory","valueCoding":{"system":"urn:oid:2.16.840.1.113883.6.238","code":"1002-5","display":"American Indian or Alaska Native","userSelected":true}},{"url":"text","valueString":"American Indian or Alaska Native"}]},{"url":"http://hl7.org/fhir/us/core/StructureDefinition/us-core-ethnicity","extension":[{"url":"ombCategory","valueCoding":{"system":"urn:oid:2.16.840.1.113883.6.238","code":"2135-2","display":"Hispanic or Latino","userSelected":true}},{"url":"text","valueString":"Hispanic or Latino"}]}],"identifier":[{"type":{"coding":[{"system":"http://terminology.hl7.org/CodeSystem/v2-0203","code":"MR"}]},"system":"https://bonnie-fhir.healthit.gov/","value":"612e6b5b02c62a011f2ed76a"}],"active":true,"name":[{"use":"usual","family":"NUMERPass","given":["INRGT3_ED"]}],"gender":"male","birthDate":"1974-01-02"},"request":{"method":"PUT","url":"Patient/3db5c5a1-2eec-4e01-8e59-ac389a0a2179"}},{"fullUrl":"https://madie.cms.gov/Encounter/5ca62963b8484628b8de1eff","resource":{"resourceType":"Encounter","id":"7a0ae40b-50e0-43ac-a4aa-4dce0047bd87","meta":{"profile":["http://hl7.org/fhir/us/qicore/StructureDefinition/qicore-encounter"]},"status":"finished","class":{"system":"http://terminology.hl7.org/CodeSystem/v3-ActCode","code":"EMER","display":"emergency"},"type":[{"coding":[{"system":"http://snomed.info/sct","code":"4525004"}]}],"subject":{"reference":"Patient/3db5c5a1-2eec-4e01-8e59-ac389a0a2179"},"period":{"start":"2025-11-01T02:00:00+00:00","end":"2025-11-02T07:40:00+00:00"},"length":{"value":0.0,"unit":"days"}},"request":{"method":"PUT","url":"Encounter/7a0ae40b-50e0-43ac-a4aa-4dce0047bd87"}},{"fullUrl":"https://madie.cms.gov/Encounter/5ca62961b8484628b8de1e9e","resource":{"resourceType":"Encounter","id":"0df8e9ca-df17-4b9a-9d17-33fdb74f2b1d","meta":{"profile":["http://hl7.org/fhir/us/qicore/StructureDefinition/qicore-encounter"]},"status":"finished","class":{"system":"http://terminology.hl7.org/CodeSystem/v3-ActCode","code":"IMP","display":"inpatient encounter"},"type":[{"coding":[{"system":"http://snomed.info/sct","code":"8715000"}]}],"subject":{"reference":"Patient/3db5c5a1-2eec-4e01-8e59-ac389a0a2179"},"period":{"start":"2025-11-02T08:00:00+00:00","end":"2025-11-26T08:15:00+00:00"},"length":{"value":24.0,"unit":"days"}},"request":{"method":"PUT","url":"Encounter/0df8e9ca-df17-4b9a-9d17-33fdb74f2b1d"}},{"fullUrl":"https://madie.cms.gov/Coverage/5fa0415b1c76ba66d99592a4","resource":{"resourceType":"Coverage","id":"fe31d211-7681-4d72-8514-3c447ca6d8c8","status":"active","beneficiary":{"reference":"Patient/3db5c5a1-2eec-4e01-8e59-ac389a0a2179"},"period":{"start":"1974-01-02T08:00:00+00:00"},"payor":[{"reference":"Organization/77e4d06f-5e3c-436a-a598-80cefcca5028"}]},"request":{"method":"PUT","url":"Coverage/fe31d211-7681-4d72-8514-3c447ca6d8c8"}},{"fullUrl":"https://madie.cms.gov/Observation/5ca62961b8484628b8de1e9f","resource":{"resourceType":"Observation","id":"614b1dd2-6c63-4588-b28e-2eba959943ff","meta":{"profile":["http://hl7.org/fhir/us/core/StructureDefinition/us-core-observation-lab"]},"status":"final","category":[{"coding":[{"system":"http://terminology.hl7.org/CodeSystem/observation-category","code":"laboratory","display":"Laboratory"}]}],"code":{"coding":[{"system":"http://loinc.org","code":"34714-6"}]},"subject":{"reference":"Patient/3db5c5a1-2eec-4e01-8e59-ac389a0a2179"},"effectiveDateTime":"2025-11-01T06:00:00+00:00","issued":"2025-11-01T06:00:00.000+00:00","valueQuantity":{"value":3.5,"unit":"{INR}"}},"request":{"method":"PUT","url":"Observation/614b1dd2-6c63-4588-b28e-2eba959943ff"}},{"fullUrl":"https://madie.cms.gov/Organization/123456","resource":{"resourceType":"Organization","id":"77e4d06f-5e3c-436a-a598-80cefcca5028","meta":{"profile":["http://hl7.org/fhir/us/qicore/StructureDefinition/qicore-organization"]},"identifier":[{"use":"temp","system":"urn:oid:2.16.840.1.113883.4.4","value":"21-3259825"}],"active":true,"type":[{"coding":[{"system":"http://terminology.hl7.org/CodeSystem/organization-type","code":"pay","display":"Payer"}]}],"name":"Blue Cross Blue Shield of Texas","telecom":[{"system":"phone","value":"(+1) 972-766-6900"}],"address":[{"use":"billing","type":"postal","line":["P.O. Box 660044"],"city":"Dallas","state":"TX","postalCode":"75266-0044","country":"USA"}]},"request":{"method":"PUT","url":"Organization/77e4d06f-5e3c-436a-a598-80cefcca5028"}},{"fullUrl":"https://madie.cms.gov/Practitioner/practitioner-123456","resource":{"resourceType":"Practitioner","id":"2a73c06f-5e48-464b-83fe-1721669b988b","identifier":[{"system":"http://hl7.org/fhir/sid/us-npi","value":"123456"}],"name":[{"family":"Evil","prefix":["Dr"]}]},"request":{"method":"PUT","url":"Practitioner/2a73c06f-5e48-464b-83fe-1721669b988b"}},{"fullUrl":"https://madie.cms.gov/MeasureReport/346e9aec-a1b6-47aa-90b4-ea5605babcc1","resource":{"resourceType":"MeasureReport","id":"346e9aec-a1b6-47aa-90b4-ea5605babcc1","meta":{"profile":["http://hl7.org/fhir/us/cqfmeasures/StructureDefinition/test-case-cqfm"]},"contained":[{"resourceType":"Parameters","id":"4cc49b52-cb3d-420c-98c5-5ff6f92f8e51-parameters","parameter":[{"name":"subject","valueString":"3db5c5a1-2eec-4e01-8e59-ac389a0a2179"}]}],"extension":[{"url":"http://hl7.org/fhir/us/cqfmeasures/StructureDefinition/cqfm-inputParameters","valueReference":{"reference":"#4cc49b52-cb3d-420c-98c5-5ff6f92f8e51-parameters"}},{"url":"http://hl7.org/fhir/us/cqfmeasures/StructureDefinition/cqfm-testCaseDescription","valueMarkdown":">18, LOS<120 day.Lab INR>3 during ED\n"}],"modifierExtension":[{"url":"http://hl7.org/fhir/us/cqfmeasures/StructureDefinition/cqfm-isTestCase","valueBoolean":true}],"status":"complete","type":"individual","measure":"https://madie.cms.gov/Measure/VenousThromboembolismProphylaxisFHIR","period":{"start":"2025-01-01","end":"2025-12-31"},"group":[{"population":[{"code":{"coding":[{"system":"http://terminology.hl7.org/CodeSystem/measure-population","code":"initial-population","display":"Initial Population"}]},"count":1},{"code":{"coding":[{"system":"http://terminology.hl7.org/CodeSystem/measure-population","code":"denominator","display":"Denominator"}]},"count":1},{"code":{"coding":[{"system":"http://terminology.hl7.org/CodeSystem/measure-population","code":"denominator-exclusion","display":"Denominator Exclusion"}]},"count":0},{"code":{"coding":[{"system":"http://terminology.hl7.org/CodeSystem/measure-population","code":"numerator","display":"Numerator"}]},"count":1}]}]},"request":{"method":"PUT","url":"MeasureReport/346e9aec-a1b6-47aa-90b4-ea5605babcc1"}}]}