{"resourceType":"Bundle","id":"tests-fa49d072-3d0c-4140-b2f8-d29c55346aa8-bundle","type":"transaction","entry":[{"fullUrl":"https://madie.cms.gov/Patient/fa49d072-3d0c-4140-b2f8-d29c55346aa8","resource":{"resourceType":"Patient","id":"fa49d072-3d0c-4140-b2f8-d29c55346aa8","meta":{"profile":["http://hl7.org/fhir/us/qicore/StructureDefinition/qicore-patient"]},"text":{"status":"generated","div":"<div xmlns=\"http://www.w3.org/1999/xhtml\"><div class=\"hapiHeaderText\">MA_UHep_EDendTimeOnIPEncStrtTm <b>NUMERPASS </b></div><table class=\"hapiPropertyTable\"><tbody><tr><td>Identifier</td><td>613a0a42598b5d681406521f174c78ac</td></tr><tr><td>Date of birth</td><td><span>02 January 1974</span></td></tr></tbody></table></div>"},"extension":[{"url":"http://hl7.org/fhir/us/core/StructureDefinition/us-core-race","extension":[{"url":"ombCategory","valueCoding":{"system":"urn:oid:2.16.840.1.113883.6.238","code":"1002-5","display":"American Indian or Alaska Native","userSelected":true}},{"url":"text","valueString":"American Indian or Alaska Native"}]},{"url":"http://hl7.org/fhir/us/core/StructureDefinition/us-core-ethnicity","extension":[{"url":"ombCategory","valueCoding":{"system":"urn:oid:2.16.840.1.113883.6.238","code":"2135-2","display":"Hispanic or Latino","userSelected":true}},{"url":"text","valueString":"Hispanic or Latino"}]}],"identifier":[{"type":{"coding":[{"system":"http://terminology.hl7.org/CodeSystem/v2-0203","code":"MR"}]},"system":"https://bonnie-fhir.healthit.gov/","value":"612e6b5d02c62a011f2ed7ba"}],"active":true,"name":[{"use":"usual","family":"NUMERPass","given":["MA_UHep_EDendTimeOnIPEncStrtTm"]}],"gender":"male","birthDate":"1974-01-02"},"request":{"method":"PUT","url":"Patient/fa49d072-3d0c-4140-b2f8-d29c55346aa8"}},{"fullUrl":"https://madie.cms.gov/Encounter/5ca6295cb8484628b8de1d18","resource":{"resourceType":"Encounter","id":"5dc1c63c-4fec-4036-841e-225cbba3a1f8","meta":{"profile":["http://hl7.org/fhir/us/qicore/StructureDefinition/qicore-encounter"]},"status":"finished","class":{"system":"http://terminology.hl7.org/CodeSystem/v3-ActCode","code":"EMER","display":"emergency"},"type":[{"coding":[{"system":"http://snomed.info/sct","code":"4525004"}]}],"subject":{"reference":"Patient/fa49d072-3d0c-4140-b2f8-d29c55346aa8"},"period":{"start":"2025-10-30T06:00:00+00:00","end":"2025-11-01T08:00:00+00:00"},"length":{"value":2.0,"unit":"days"}},"request":{"method":"PUT","url":"Encounter/5dc1c63c-4fec-4036-841e-225cbba3a1f8"}},{"fullUrl":"https://madie.cms.gov/Encounter/5ca62961b8484628b8de1ea3","resource":{"resourceType":"Encounter","id":"e63eed31-6012-4999-b596-438d08df1c01","meta":{"profile":["http://hl7.org/fhir/us/qicore/StructureDefinition/qicore-encounter"]},"status":"finished","class":{"system":"http://terminology.hl7.org/CodeSystem/v3-ActCode","code":"IMP","display":"inpatient encounter"},"type":[{"coding":[{"system":"http://snomed.info/sct","code":"8715000"}]}],"subject":{"reference":"Patient/fa49d072-3d0c-4140-b2f8-d29c55346aa8"},"period":{"start":"2025-11-01T08:00:00+00:00","end":"2025-11-26T08:15:00+00:00"},"length":{"value":25.0,"unit":"days"}},"request":{"method":"PUT","url":"Encounter/e63eed31-6012-4999-b596-438d08df1c01"}},{"fullUrl":"https://madie.cms.gov/Coverage/5fa0415b1c76ba66d99592a7","resource":{"resourceType":"Coverage","id":"74422e2c-48f8-4754-8b80-ee9205d1efc1","status":"active","beneficiary":{"reference":"Patient/fa49d072-3d0c-4140-b2f8-d29c55346aa8"},"period":{"start":"1974-01-02T08:00:00+00:00"},"payor":[{"reference":"Organization/f7da4368-fb6d-4d73-a75b-f78024cbb18d"}]},"request":{"method":"PUT","url":"Coverage/74422e2c-48f8-4754-8b80-ee9205d1efc1"}},{"fullUrl":"https://madie.cms.gov/MedicationAdministration/5ca62961b8484628b8de1ea4","resource":{"resourceType":"MedicationAdministration","id":"5ede550c-d300-4a91-82b0-95649c37d178","meta":{"profile":["http://hl7.org/fhir/us/qicore/StructureDefinition/qicore-medicationadministration"]},"status":"completed","medicationCodeableConcept":{"coding":[{"system":"http://www.nlm.nih.gov/research/umls/rxnorm","code":"1361607"}]},"subject":{"reference":"Patient/fa49d072-3d0c-4140-b2f8-d29c55346aa8"},"effectivePeriod":{"start":"2025-11-01T06:00:00+00:00","end":"2025-11-01T07:00:00+00:00"},"dosage":{"route":{"coding":[{"system":"http://snomed.info/sct","code":"418114005","display":"Intravenous route"}]},"dose":{"value":500,"unit":"ml","system":"http://unitsofmeasure.org","code":"ml"}}},"request":{"method":"PUT","url":"MedicationAdministration/5ede550c-d300-4a91-82b0-95649c37d178"}},{"fullUrl":"https://madie.cms.gov/Organization/123456","resource":{"resourceType":"Organization","id":"f7da4368-fb6d-4d73-a75b-f78024cbb18d","meta":{"profile":["http://hl7.org/fhir/us/qicore/StructureDefinition/qicore-organization"]},"identifier":[{"use":"temp","system":"urn:oid:2.16.840.1.113883.4.4","value":"21-3259825"}],"active":true,"type":[{"coding":[{"system":"http://terminology.hl7.org/CodeSystem/organization-type","code":"pay","display":"Payer"}]}],"name":"Blue Cross Blue Shield of Texas","telecom":[{"system":"phone","value":"(+1) 972-766-6900"}],"address":[{"use":"billing","type":"postal","line":["P.O. Box 660044"],"city":"Dallas","state":"TX","postalCode":"75266-0044","country":"USA"}]},"request":{"method":"PUT","url":"Organization/f7da4368-fb6d-4d73-a75b-f78024cbb18d"}},{"fullUrl":"https://madie.cms.gov/Practitioner/practitioner-123456","resource":{"resourceType":"Practitioner","id":"948bd7ba-b748-461b-abc5-597740379c7a","identifier":[{"system":"http://hl7.org/fhir/sid/us-npi","value":"123456"}],"name":[{"family":"Evil","prefix":["Dr"]}]},"request":{"method":"PUT","url":"Practitioner/948bd7ba-b748-461b-abc5-597740379c7a"}},{"fullUrl":"https://madie.cms.gov/MeasureReport/ad0efc9b-9d7b-4df2-9b85-ae0f56d5bfdf","resource":{"resourceType":"MeasureReport","id":"ad0efc9b-9d7b-4df2-9b85-ae0f56d5bfdf","meta":{"profile":["http://hl7.org/fhir/us/cqfmeasures/StructureDefinition/test-case-cqfm"]},"contained":[{"resourceType":"Parameters","id":"37c58c75-9373-44c7-9f79-8f88334a8ac9-parameters","parameter":[{"name":"subject","valueString":"fa49d072-3d0c-4140-b2f8-d29c55346aa8"}]}],"extension":[{"url":"http://hl7.org/fhir/us/cqfmeasures/StructureDefinition/cqfm-inputParameters","valueReference":{"reference":"#37c58c75-9373-44c7-9f79-8f88334a8ac9-parameters"}},{"url":"http://hl7.org/fhir/us/cqfmeasures/StructureDefinition/cqfm-testCaseDescription","valueMarkdown":">18, LOS<120 day, Unfractionated Heparin during ED, EDendTime concurrent EncInp StartTime\n"}],"modifierExtension":[{"url":"http://hl7.org/fhir/us/cqfmeasures/StructureDefinition/cqfm-isTestCase","valueBoolean":true}],"status":"complete","type":"individual","measure":"https://madie.cms.gov/Measure/VenousThromboembolismProphylaxisFHIR","period":{"start":"2025-01-01","end":"2025-12-31"},"group":[{"population":[{"code":{"coding":[{"system":"http://terminology.hl7.org/CodeSystem/measure-population","code":"initial-population","display":"Initial Population"}]},"count":1},{"code":{"coding":[{"system":"http://terminology.hl7.org/CodeSystem/measure-population","code":"denominator","display":"Denominator"}]},"count":1},{"code":{"coding":[{"system":"http://terminology.hl7.org/CodeSystem/measure-population","code":"denominator-exclusion","display":"Denominator Exclusion"}]},"count":0},{"code":{"coding":[{"system":"http://terminology.hl7.org/CodeSystem/measure-population","code":"numerator","display":"Numerator"}]},"count":1}]}]},"request":{"method":"PUT","url":"MeasureReport/ad0efc9b-9d7b-4df2-9b85-ae0f56d5bfdf"}}]}