{"resourceType":"Bundle","id":"tests-3c35a3b2-736b-43e8-8514-43f5caa382ac-bundle","type":"transaction","entry":[{"fullUrl":"https://madie.cms.gov/Patient/3c35a3b2-736b-43e8-8514-43f5caa382ac","resource":{"resourceType":"Patient","id":"3c35a3b2-736b-43e8-8514-43f5caa382ac","meta":{"profile":["http://hl7.org/fhir/us/qicore/StructureDefinition/qicore-patient"]},"text":{"status":"generated","div":"<div xmlns=\"http://www.w3.org/1999/xhtml\"><div class=\"hapiHeaderText\">SCIP_Neuro_Rank2 <b>DENEXFAIL </b></div><table class=\"hapiPropertyTable\"><tbody><tr><td>Identifier</td><td>66c70c125db369967b4b164e75338304</td></tr><tr><td>Date of birth</td><td><span>01 September 2000</span></td></tr></tbody></table></div>"},"extension":[{"url":"http://hl7.org/fhir/us/core/StructureDefinition/us-core-race","extension":[{"url":"ombCategory","valueCoding":{"system":"urn:oid:2.16.840.1.113883.6.238","code":"1002-5","display":"American Indian or Alaska Native","userSelected":true}},{"url":"text","valueString":"American Indian or Alaska Native"}]},{"url":"http://hl7.org/fhir/us/core/StructureDefinition/us-core-ethnicity","extension":[{"url":"ombCategory","valueCoding":{"system":"urn:oid:2.16.840.1.113883.6.238","code":"2135-2","display":"Hispanic or Latino","userSelected":true}},{"url":"text","valueString":"Hispanic or Latino"}]}],"identifier":[{"type":{"coding":[{"system":"http://terminology.hl7.org/CodeSystem/v2-0203","code":"MR"}]},"system":"https://bonnie-fhir.healthit.gov/","value":"612e6b0d02c62a011f2ec3b3"}],"active":true,"name":[{"use":"usual","family":"DENEXFail ","given":["SCIP_Neuro_Rank2"]}],"gender":"male","birthDate":"2000-09-01"},"request":{"method":"PUT","url":"Patient/3c35a3b2-736b-43e8-8514-43f5caa382ac"}},{"fullUrl":"https://madie.cms.gov/Encounter/5ca62965b8484628b8de1fae","resource":{"resourceType":"Encounter","id":"ea5f441f-a3eb-41af-b7b2-8af687bbea39","meta":{"profile":["http://hl7.org/fhir/us/qicore/StructureDefinition/qicore-encounter"]},"extension":[{"url":"http://hl7.org/fhir/us/qicore/StructureDefinition/qicore-encounter-procedure","extension":[{"url":"type","valueCodeableConcept":{"coding":[{"system":"http://www.cms.gov/Medicare/Coding/ICD10","code":"0W910ZZ","display":"Drainage of Cranial Cavity, Open Approach"}]}},{"url":"rank","valuePositiveInt":2},{"url":"procedure","valueReference":{"reference":"Procedure/5e21c344f9757500009ed94d"}}]}],"status":"finished","class":{"system":"http://terminology.hl7.org/CodeSystem/v3-ActCode","code":"IMP","display":"inpatient encounter"},"type":[{"coding":[{"system":"http://snomed.info/sct","code":"183452005"}]}],"subject":{"reference":"Patient/3c35a3b2-736b-43e8-8514-43f5caa382ac"},"period":{"start":"2025-09-02T06:00:00+00:00","end":"2025-12-31T10:00:00+00:00"},"length":{"value":120.0,"unit":"days"}},"request":{"method":"PUT","url":"Encounter/ea5f441f-a3eb-41af-b7b2-8af687bbea39"}},{"fullUrl":"https://madie.cms.gov/Coverage/5fa041681c76ba66d995938b","resource":{"resourceType":"Coverage","id":"53e61458-7a5f-4ab3-a9ad-eeb10f0a1e1c","status":"active","beneficiary":{"reference":"Patient/3c35a3b2-736b-43e8-8514-43f5caa382ac"},"period":{"start":"2000-09-01T08:00:00+00:00"},"payor":[{"reference":"Organization/84b56847-ad40-4bf6-b612-9e42ad2a84e5"}]},"request":{"method":"PUT","url":"Coverage/53e61458-7a5f-4ab3-a9ad-eeb10f0a1e1c"}},{"fullUrl":"https://madie.cms.gov/Procedure/5e21c344f9757500009ed94d","resource":{"resourceType":"Procedure","id":"dfef7b14-58f4-46e8-922b-d4b3db50ff2d","meta":{"profile":["http://hl7.org/fhir/us/qicore/StructureDefinition/qicore-procedure"]},"extension":[{"url":"http://hl7.org/fhir/us/qicore/StructureDefinition/qicore-recorded","valueDateTime":"2012-12-04T09:35:00-04:00"}],"status":"completed","code":{"coding":[{"system":"http://www.cms.gov/Medicare/Coding/ICD10","code":"0W910ZZ","display":"Drainage of Cranial Cavity, Open Approach"}]},"subject":{"reference":"Patient/3c35a3b2-736b-43e8-8514-43f5caa382ac"},"performedPeriod":{"start":"2025-09-02T20:00:00+00:00","end":"2025-09-02T23:10:00+00:00"}},"request":{"method":"PUT","url":"Procedure/dfef7b14-58f4-46e8-922b-d4b3db50ff2d"}},{"fullUrl":"https://madie.cms.gov/Organization/123456","resource":{"resourceType":"Organization","id":"84b56847-ad40-4bf6-b612-9e42ad2a84e5","meta":{"profile":["http://hl7.org/fhir/us/qicore/StructureDefinition/qicore-organization"]},"identifier":[{"use":"temp","system":"urn:oid:2.16.840.1.113883.4.4","value":"21-3259825"}],"active":true,"type":[{"coding":[{"system":"http://terminology.hl7.org/CodeSystem/organization-type","code":"pay","display":"Payer"}]}],"name":"Blue Cross Blue Shield of Texas","telecom":[{"system":"phone","value":"(+1) 972-766-6900"}],"address":[{"use":"billing","type":"postal","line":["P.O. Box 660044"],"city":"Dallas","state":"TX","postalCode":"75266-0044","country":"USA"}]},"request":{"method":"PUT","url":"Organization/84b56847-ad40-4bf6-b612-9e42ad2a84e5"}},{"fullUrl":"https://madie.cms.gov/Practitioner/practitioner-123456","resource":{"resourceType":"Practitioner","id":"623e10f9-c5d7-4621-91dc-7aa7fa238e6f","identifier":[{"system":"http://hl7.org/fhir/sid/us-npi","value":"123456"}],"name":[{"family":"Evil","prefix":["Dr"]}]},"request":{"method":"PUT","url":"Practitioner/623e10f9-c5d7-4621-91dc-7aa7fa238e6f"}},{"fullUrl":"https://madie.cms.gov/MeasureReport/bfc50c49-4cd7-473a-ba16-ed392b83b137","resource":{"resourceType":"MeasureReport","id":"bfc50c49-4cd7-473a-ba16-ed392b83b137","meta":{"profile":["http://hl7.org/fhir/us/cqfmeasures/StructureDefinition/test-case-cqfm"]},"contained":[{"resourceType":"Parameters","id":"b53aa4f2-5bf4-485c-86bd-00a7f577f105-parameters","parameter":[{"name":"subject","valueString":"3c35a3b2-736b-43e8-8514-43f5caa382ac"}]}],"extension":[{"url":"http://hl7.org/fhir/us/cqfmeasures/StructureDefinition/cqfm-inputParameters","valueReference":{"reference":"#b53aa4f2-5bf4-485c-86bd-00a7f577f105-parameters"}},{"url":"http://hl7.org/fhir/us/cqfmeasures/StructureDefinition/cqfm-testCaseDescription","valueMarkdown":"Patient had SCIP -Neuro during Encounter with Rank is 2 (No rank is not allowed due to QIcroe)\n"}],"modifierExtension":[{"url":"http://hl7.org/fhir/us/cqfmeasures/StructureDefinition/cqfm-isTestCase","valueBoolean":true}],"status":"complete","type":"individual","measure":"https://madie.cms.gov/Measure/VenousThromboembolismProphylaxisFHIR","period":{"start":"2025-01-01","end":"2025-12-31"},"group":[{"population":[{"code":{"coding":[{"system":"http://terminology.hl7.org/CodeSystem/measure-population","code":"initial-population","display":"Initial Population"}]},"count":1},{"code":{"coding":[{"system":"http://terminology.hl7.org/CodeSystem/measure-population","code":"denominator","display":"Denominator"}]},"count":1},{"code":{"coding":[{"system":"http://terminology.hl7.org/CodeSystem/measure-population","code":"denominator-exclusion","display":"Denominator Exclusion"}]},"count":0},{"code":{"coding":[{"system":"http://terminology.hl7.org/CodeSystem/measure-population","code":"numerator","display":"Numerator"}]},"count":0}]}]},"request":{"method":"PUT","url":"MeasureReport/bfc50c49-4cd7-473a-ba16-ed392b83b137"}}]}