{"resourceType":"Bundle","id":"tests-2de13e4e-32bf-4b79-8750-9e0820d2eb4d-bundle","type":"transaction","entry":[{"fullUrl":"https://madie.cms.gov/Patient/2de13e4e-32bf-4b79-8750-9e0820d2eb4d","resource":{"resourceType":"Patient","id":"2de13e4e-32bf-4b79-8750-9e0820d2eb4d","meta":{"profile":["http://hl7.org/fhir/us/qicore/StructureDefinition/qicore-patient"]},"text":{"status":"generated","div":"<div xmlns=\"http://www.w3.org/1999/xhtml\"><div class=\"hapiHeaderText\">PtRef_MA_LMWH_OBS <b>NUMERPASS </b></div><table class=\"hapiPropertyTable\"><tbody><tr><td>Identifier</td><td>3dc4a512478cd906257a70aca14edeef</td></tr><tr><td>Date of birth</td><td><span>02 January 1974</span></td></tr></tbody></table></div>"},"extension":[{"url":"http://hl7.org/fhir/us/core/StructureDefinition/us-core-race","extension":[{"url":"ombCategory","valueCoding":{"system":"urn:oid:2.16.840.1.113883.6.238","code":"1002-5","display":"American Indian or Alaska Native","userSelected":true}},{"url":"text","valueString":"American Indian or Alaska Native"}]},{"url":"http://hl7.org/fhir/us/core/StructureDefinition/us-core-ethnicity","extension":[{"url":"ombCategory","valueCoding":{"system":"urn:oid:2.16.840.1.113883.6.238","code":"2135-2","display":"Hispanic or Latino","userSelected":true}},{"url":"text","valueString":"Hispanic or Latino"}]}],"identifier":[{"type":{"coding":[{"system":"http://terminology.hl7.org/CodeSystem/v2-0203","code":"MR"}]},"system":"https://bonnie-fhir.healthit.gov/","value":"612e6aaf02c62a011f2eaee7"}],"active":true,"name":[{"use":"usual","family":"NUMERPass","given":["PtRef_MA_LMWH_OBS"]}],"gender":"male","birthDate":"1974-01-02"},"request":{"method":"PUT","url":"Patient/2de13e4e-32bf-4b79-8750-9e0820d2eb4d"}},{"fullUrl":"https://madie.cms.gov/Encounter/5ca62960b8484628b8de1e40","resource":{"resourceType":"Encounter","id":"cd4a6c53-a7f7-4c9a-b472-458d5958d3f2","meta":{"profile":["http://hl7.org/fhir/us/qicore/StructureDefinition/qicore-encounter"]},"status":"finished","class":{"system":"http://terminology.hl7.org/CodeSystem/v3-ActCode","code":"OBSENC","display":"observation encounter"},"type":[{"coding":[{"system":"http://snomed.info/sct","code":"448951000124107"}]}],"subject":{"reference":"Patient/2de13e4e-32bf-4b79-8750-9e0820d2eb4d"},"period":{"start":"2025-10-31T05:00:00+00:00","end":"2025-11-01T07:15:00+00:00"},"length":{"value":1,"unit":"days"}},"request":{"method":"PUT","url":"Encounter/cd4a6c53-a7f7-4c9a-b472-458d5958d3f2"}},{"fullUrl":"https://madie.cms.gov/Encounter/5ca62960b8484628b8de1e41","resource":{"resourceType":"Encounter","id":"09050ba1-2b6f-4c71-884e-ab618b316d4a","meta":{"profile":["http://hl7.org/fhir/us/qicore/StructureDefinition/qicore-encounter"]},"status":"finished","class":{"system":"http://terminology.hl7.org/CodeSystem/v3-ActCode","code":"IMP","display":"inpatient encounter"},"type":[{"coding":[{"system":"http://snomed.info/sct","code":"8715000"}]}],"subject":{"reference":"Patient/2de13e4e-32bf-4b79-8750-9e0820d2eb4d"},"period":{"start":"2025-11-01T08:00:00+00:00","end":"2025-11-26T08:15:00+00:00"},"length":{"value":25,"unit":"days"}},"request":{"method":"PUT","url":"Encounter/09050ba1-2b6f-4c71-884e-ab618b316d4a"}},{"fullUrl":"https://madie.cms.gov/Coverage/5fa041561c76ba66d995924d","resource":{"resourceType":"Coverage","id":"ff7d0a1c-0a08-4b8d-8d76-8d0ef0cb9c2d","status":"active","beneficiary":{"reference":"Patient/2de13e4e-32bf-4b79-8750-9e0820d2eb4d"},"period":{"start":"1974-01-02T08:00:00+00:00"},"payor":[{"reference":"Organization/880a275e-1cf2-4fb9-869b-f1d2173fdc2b"}]},"request":{"method":"PUT","url":"Coverage/ff7d0a1c-0a08-4b8d-8d76-8d0ef0cb9c2d"}},{"fullUrl":"https://madie.cms.gov/MedicationAdministration/5ca62960b8484628b8de1e42","resource":{"resourceType":"MedicationAdministration","id":"ef684863-b9f7-46a2-aa0d-eb28f7c79fbe","meta":{"profile":["http://hl7.org/fhir/us/qicore/StructureDefinition/qicore-mednotadministered"]},"extension":[{"url":"http://hl7.org/fhir/us/qicore/StructureDefinition/qicore-recorded","valueDateTime":"2025-11-02T11:00:00+00:00"}],"status":"not-done","statusReason":[{"coding":[{"system":"http://snomed.info/sct","code":"443390004","display":"Refusal of treatment by patient (situation)"}]}],"medicationCodeableConcept":{"coding":[{"system":"http://www.nlm.nih.gov/research/umls/rxnorm","code":"854228"}]},"subject":{"reference":"Patient/2de13e4e-32bf-4b79-8750-9e0820d2eb4d"},"effectivePeriod":{"start":"2025-11-01T06:00:00+00:00"}},"request":{"method":"PUT","url":"MedicationAdministration/ef684863-b9f7-46a2-aa0d-eb28f7c79fbe"}},{"fullUrl":"https://madie.cms.gov/Organization/123456","resource":{"resourceType":"Organization","id":"880a275e-1cf2-4fb9-869b-f1d2173fdc2b","meta":{"profile":["http://hl7.org/fhir/us/qicore/StructureDefinition/qicore-organization"]},"identifier":[{"use":"temp","system":"urn:oid:2.16.840.1.113883.4.4","value":"21-3259825"}],"active":true,"type":[{"coding":[{"system":"http://terminology.hl7.org/CodeSystem/organization-type","code":"pay","display":"Payer"}]}],"name":"Blue Cross Blue Shield of Texas","telecom":[{"system":"phone","value":"(+1) 972-766-6900"}],"address":[{"use":"billing","type":"postal","line":["P.O. Box 660044"],"city":"Dallas","state":"TX","postalCode":"75266-0044","country":"USA"}]},"request":{"method":"PUT","url":"Organization/880a275e-1cf2-4fb9-869b-f1d2173fdc2b"}},{"fullUrl":"https://madie.cms.gov/Practitioner/practitioner-123456","resource":{"resourceType":"Practitioner","id":"9294d5dc-6edc-4eaf-ac0c-ae424638b9ea","identifier":[{"system":"http://hl7.org/fhir/sid/us-npi","value":"123456"}],"name":[{"family":"Evil","prefix":["Dr"]}]},"request":{"method":"PUT","url":"Practitioner/9294d5dc-6edc-4eaf-ac0c-ae424638b9ea"}},{"fullUrl":"https://madie.cms.gov/MeasureReport/38be5744-7dc7-4542-b24f-618427fcf68c","resource":{"resourceType":"MeasureReport","id":"38be5744-7dc7-4542-b24f-618427fcf68c","meta":{"profile":["http://hl7.org/fhir/us/cqfmeasures/StructureDefinition/test-case-cqfm"]},"contained":[{"resourceType":"Parameters","id":"6bc863e6-c456-4d24-a649-8bbe094a0bd3-parameters","parameter":[{"name":"subject","valueString":"2de13e4e-32bf-4b79-8750-9e0820d2eb4d"}]}],"extension":[{"url":"http://hl7.org/fhir/us/cqfmeasures/StructureDefinition/cqfm-inputParameters","valueReference":{"reference":"#6bc863e6-c456-4d24-a649-8bbe094a0bd3-parameters"}},{"url":"http://hl7.org/fhir/us/cqfmeasures/StructureDefinition/cqfm-testCaseDescription","valueMarkdown":"lmwh not given due to patient refusal during Observation\n"}],"modifierExtension":[{"url":"http://hl7.org/fhir/us/cqfmeasures/StructureDefinition/cqfm-isTestCase","valueBoolean":true}],"status":"complete","type":"individual","measure":"https://madie.cms.gov/Measure/VenousThromboembolismProphylaxisFHIR","period":{"start":"2025-01-01","end":"2025-12-31"},"group":[{"population":[{"code":{"coding":[{"system":"http://terminology.hl7.org/CodeSystem/measure-population","code":"initial-population","display":"Initial Population"}]},"count":1},{"code":{"coding":[{"system":"http://terminology.hl7.org/CodeSystem/measure-population","code":"denominator","display":"Denominator"}]},"count":1},{"code":{"coding":[{"system":"http://terminology.hl7.org/CodeSystem/measure-population","code":"denominator-exclusion","display":"Denominator Exclusion"}]},"count":0},{"code":{"coding":[{"system":"http://terminology.hl7.org/CodeSystem/measure-population","code":"numerator","display":"Numerator"}]},"count":1}]}]},"request":{"method":"PUT","url":"MeasureReport/38be5744-7dc7-4542-b24f-618427fcf68c"}}]}