{"resourceType":"Bundle","id":"tests-6ce8d015-efcf-4c8e-a715-cc7c460e3ba8-bundle","type":"transaction","entry":[{"fullUrl":"https://madie.cms.gov/Patient/6ce8d015-efcf-4c8e-a715-cc7c460e3ba8","resource":{"resourceType":"Patient","id":"6ce8d015-efcf-4c8e-a715-cc7c460e3ba8","meta":{"profile":["http://hl7.org/fhir/us/qicore/StructureDefinition/qicore-patient"]},"text":{"status":"generated","div":"<div xmlns=\"http://www.w3.org/1999/xhtml\"><div class=\"hapiHeaderText\">MA_Glyco_1DayAFIPEnc <b>NUMERPASS </b></div><table class=\"hapiPropertyTable\"><tbody><tr><td>Identifier</td><td>c2e8bf5527b837484be3c34ba714a74a</td></tr><tr><td>Date of birth</td><td><span>02 January 1974</span></td></tr></tbody></table></div>"},"extension":[{"url":"http://hl7.org/fhir/us/core/StructureDefinition/us-core-race","extension":[{"url":"ombCategory","valueCoding":{"system":"urn:oid:2.16.840.1.113883.6.238","code":"1002-5","display":"American Indian or Alaska Native","userSelected":true}},{"url":"text","valueString":"American Indian or Alaska Native"}]},{"url":"http://hl7.org/fhir/us/core/StructureDefinition/us-core-ethnicity","extension":[{"url":"ombCategory","valueCoding":{"system":"urn:oid:2.16.840.1.113883.6.238","code":"2135-2","display":"Hispanic or Latino","userSelected":true}},{"url":"text","valueString":"Hispanic or Latino"}]}],"identifier":[{"type":{"coding":[{"system":"http://terminology.hl7.org/CodeSystem/v2-0203","code":"MR"}]},"system":"https://bonnie-fhir.healthit.gov/","value":"612e6ad802c62a011f2eb6db"}],"active":true,"name":[{"use":"usual","family":"NUMERPass","given":["MA_Glyco_1DayAFIPEnc"]}],"gender":"male","birthDate":"1974-01-02"},"request":{"method":"PUT","url":"Patient/6ce8d015-efcf-4c8e-a715-cc7c460e3ba8"}},{"fullUrl":"https://madie.cms.gov/Encounter/5ca62964b8484628b8de1f34","resource":{"resourceType":"Encounter","id":"bf927aa0-841d-40a9-a8c3-e087edc7476c","meta":{"profile":["http://hl7.org/fhir/us/qicore/StructureDefinition/qicore-encounter"]},"status":"finished","class":{"system":"http://terminology.hl7.org/CodeSystem/v3-ActCode","code":"IMP","display":"inpatient encounter"},"type":[{"coding":[{"system":"http://snomed.info/sct","code":"8715000"}]}],"subject":{"reference":"Patient/6ce8d015-efcf-4c8e-a715-cc7c460e3ba8"},"period":{"start":"2025-11-01T08:00:00+00:00","end":"2025-11-26T08:15:00+00:00"},"length":{"value":25.0,"unit":"days"}},"request":{"method":"PUT","url":"Encounter/bf927aa0-841d-40a9-a8c3-e087edc7476c"}},{"fullUrl":"https://madie.cms.gov/Coverage/5fa041601c76ba66d995930d","resource":{"resourceType":"Coverage","id":"af84f272-2aba-4a44-bd1e-4250dc958f5b","status":"active","beneficiary":{"reference":"Patient/6ce8d015-efcf-4c8e-a715-cc7c460e3ba8"},"period":{"start":"1974-01-02T08:00:00+00:00"},"payor":[{"reference":"Organization/4da248b0-6e59-49b7-b80e-338aa21d299f"}]},"request":{"method":"PUT","url":"Coverage/af84f272-2aba-4a44-bd1e-4250dc958f5b"}},{"fullUrl":"https://madie.cms.gov/MedicationAdministration/5ca62964b8484628b8de1f35","resource":{"resourceType":"MedicationAdministration","id":"5cc4a932-25b4-4910-bf09-a9cf81e82166","meta":{"profile":["http://hl7.org/fhir/us/qicore/StructureDefinition/qicore-medicationadministration"]},"status":"completed","medicationCodeableConcept":{"coding":[{"system":"http://www.nlm.nih.gov/research/umls/rxnorm","code":"200349"}]},"subject":{"reference":"Patient/6ce8d015-efcf-4c8e-a715-cc7c460e3ba8"},"effectivePeriod":{"start":"2025-11-02T09:00:00+00:00","end":"2025-11-02T09:10:00+00:00"}},"request":{"method":"PUT","url":"MedicationAdministration/5cc4a932-25b4-4910-bf09-a9cf81e82166"}},{"fullUrl":"https://madie.cms.gov/Organization/123456","resource":{"resourceType":"Organization","id":"4da248b0-6e59-49b7-b80e-338aa21d299f","meta":{"profile":["http://hl7.org/fhir/us/qicore/StructureDefinition/qicore-organization"]},"identifier":[{"use":"temp","system":"urn:oid:2.16.840.1.113883.4.4","value":"21-3259825"}],"active":true,"type":[{"coding":[{"system":"http://terminology.hl7.org/CodeSystem/organization-type","code":"pay","display":"Payer"}]}],"name":"Blue Cross Blue Shield of Texas","telecom":[{"system":"phone","value":"(+1) 972-766-6900"}],"address":[{"use":"billing","type":"postal","line":["P.O. Box 660044"],"city":"Dallas","state":"TX","postalCode":"75266-0044","country":"USA"}]},"request":{"method":"PUT","url":"Organization/4da248b0-6e59-49b7-b80e-338aa21d299f"}},{"fullUrl":"https://madie.cms.gov/Practitioner/practitioner-123456","resource":{"resourceType":"Practitioner","id":"688537fd-d3fa-49d6-8073-764926ddc2bc","identifier":[{"system":"http://hl7.org/fhir/sid/us-npi","value":"123456"}],"name":[{"family":"Evil","prefix":["Dr"]}]},"request":{"method":"PUT","url":"Practitioner/688537fd-d3fa-49d6-8073-764926ddc2bc"}},{"fullUrl":"https://madie.cms.gov/MeasureReport/fc85ba77-daa8-4584-b5bf-9add9cbd050c","resource":{"resourceType":"MeasureReport","id":"fc85ba77-daa8-4584-b5bf-9add9cbd050c","meta":{"profile":["http://hl7.org/fhir/us/cqfmeasures/StructureDefinition/test-case-cqfm"]},"contained":[{"resourceType":"Parameters","id":"eab5a538-7a8b-4928-a1af-f6341851943b-parameters","parameter":[{"name":"subject","valueString":"6ce8d015-efcf-4c8e-a715-cc7c460e3ba8"}]}],"extension":[{"url":"http://hl7.org/fhir/us/cqfmeasures/StructureDefinition/cqfm-inputParameters","valueReference":{"reference":"#eab5a538-7a8b-4928-a1af-f6341851943b-parameters"}},{"url":"http://hl7.org/fhir/us/cqfmeasures/StructureDefinition/cqfm-testCaseDescription","valueMarkdown":"glycoprotein IIb/IIIa inhibitor = 1 day after start of IP encounter\n"}],"modifierExtension":[{"url":"http://hl7.org/fhir/us/cqfmeasures/StructureDefinition/cqfm-isTestCase","valueBoolean":true}],"status":"complete","type":"individual","measure":"https://madie.cms.gov/Measure/VenousThromboembolismProphylaxisFHIR","period":{"start":"2025-01-01","end":"2025-12-31"},"group":[{"population":[{"code":{"coding":[{"system":"http://terminology.hl7.org/CodeSystem/measure-population","code":"initial-population","display":"Initial Population"}]},"count":1},{"code":{"coding":[{"system":"http://terminology.hl7.org/CodeSystem/measure-population","code":"denominator","display":"Denominator"}]},"count":1},{"code":{"coding":[{"system":"http://terminology.hl7.org/CodeSystem/measure-population","code":"denominator-exclusion","display":"Denominator Exclusion"}]},"count":0},{"code":{"coding":[{"system":"http://terminology.hl7.org/CodeSystem/measure-population","code":"numerator","display":"Numerator"}]},"count":1}]}]},"request":{"method":"PUT","url":"MeasureReport/fc85ba77-daa8-4584-b5bf-9add9cbd050c"}}]}