{"resourceType":"Bundle","id":"tests-fb687d5d-e0db-4fec-b04d-7fb8c37ba014-bundle","type":"transaction","entry":[{"fullUrl":"https://madie.cms.gov/Patient/fb687d5d-e0db-4fec-b04d-7fb8c37ba014","resource":{"resourceType":"Patient","id":"fb687d5d-e0db-4fec-b04d-7fb8c37ba014","meta":{"profile":["http://hl7.org/fhir/us/qicore/StructureDefinition/qicore-patient"]},"text":{"status":"generated","div":"<div xmlns=\"http://www.w3.org/1999/xhtml\"><div class=\"hapiHeaderText\">MedReason_MO_InjXa_DA_VFP_DayAfAnes <b>NUMERPASS </b></div><table class=\"hapiPropertyTable\"><tbody><tr><td>Identifier</td><td>2e65528d235225a29036bb2a5e6ef1d4</td></tr><tr><td>Date of birth</td><td><span>02 January 1974</span></td></tr></tbody></table></div>"},"extension":[{"url":"http://hl7.org/fhir/us/core/StructureDefinition/us-core-race","extension":[{"url":"ombCategory","valueCoding":{"system":"urn:oid:2.16.840.1.113883.6.238","code":"1002-5","display":"American Indian or Alaska Native","userSelected":true}},{"url":"text","valueString":"American Indian or Alaska Native"}]},{"url":"http://hl7.org/fhir/us/core/StructureDefinition/us-core-ethnicity","extension":[{"url":"ombCategory","valueCoding":{"system":"urn:oid:2.16.840.1.113883.6.238","code":"2135-2","display":"Hispanic or Latino","userSelected":true}},{"url":"text","valueString":"Hispanic or Latino"}]}],"identifier":[{"type":{"coding":[{"system":"http://terminology.hl7.org/CodeSystem/v2-0203","code":"MR"}]},"system":"https://bonnie-fhir.healthit.gov/","value":"612e6a9302c62a011f2ea6da"}],"active":true,"name":[{"use":"usual","family":"NUMERPass","given":["MedReason_MA_InjXa_DA_VFP_DayAFAnes"]}],"gender":"male","birthDate":"1974-01-02"},"request":{"method":"PUT","url":"Patient/fb687d5d-e0db-4fec-b04d-7fb8c37ba014"}},{"fullUrl":"https://madie.cms.gov/Encounter/5ca6295fb8484628b8de1dd5","resource":{"resourceType":"Encounter","id":"172789d5-fe37-411a-a6c8-e7f0e21bc9fe","meta":{"profile":["http://hl7.org/fhir/us/qicore/StructureDefinition/qicore-encounter"]},"status":"finished","class":{"system":"http://terminology.hl7.org/CodeSystem/v3-ActCode","code":"IMP","display":"inpatient encounter"},"type":[{"coding":[{"system":"http://snomed.info/sct","code":"8715000"}]}],"subject":{"reference":"Patient/fb687d5d-e0db-4fec-b04d-7fb8c37ba014"},"period":{"start":"2025-11-01T08:00:00+00:00","end":"2025-11-26T08:15:00+00:00"},"length":{"value":25.0,"unit":"days"}},"request":{"method":"PUT","url":"Encounter/172789d5-fe37-411a-a6c8-e7f0e21bc9fe"}},{"fullUrl":"https://madie.cms.gov/Coverage/5fa041501c76ba66d99591f3","resource":{"resourceType":"Coverage","id":"48cf79c5-7827-4dd4-b3f7-1bba927707c0","status":"active","beneficiary":{"reference":"Patient/fb687d5d-e0db-4fec-b04d-7fb8c37ba014"},"period":{"start":"1974-01-02T08:00:00+00:00"},"payor":[{"reference":"Organization/77e4d06f-5e3c-436a-a598-80cefcca5028"}]},"request":{"method":"PUT","url":"Coverage/48cf79c5-7827-4dd4-b3f7-1bba927707c0"}},{"fullUrl":"https://madie.cms.gov/Procedure/5ca6295fb8484628b8de1dd6","resource":{"resourceType":"Procedure","id":"0ac66476-0d95-4483-8c7b-3965056340f5","meta":{"profile":["http://hl7.org/fhir/us/qicore/StructureDefinition/qicore-procedurenotdone"]},"extension":[{"url":"http://hl7.org/fhir/us/qicore/StructureDefinition/qicore-recorded","valueDateTime":"2025-11-03T07:35:00-04:00"}],"status":"not-done","statusReason":{"coding":[{"system":"http://snomed.info/sct","code":"183932001","display":"Procedure contraindicated (situation)","userSelected":true}]},"code":{"coding":[{"system":"http://snomed.info/sct","code":"424831005","display":"Application of foot pump (procedure)","userSelected":true}]},"subject":{"reference":"Patient/fb687d5d-e0db-4fec-b04d-7fb8c37ba014"},"_performedDateTime":{"extension":[{"url":"http://hl7.org/fhir/StructureDefinition/data-absent-reason","valueCode":"not-performed"}]}},"request":{"method":"PUT","url":"Procedure/0ac66476-0d95-4483-8c7b-3965056340f5"}},{"fullUrl":"https://madie.cms.gov/MedicationRequest/5ca6295fb8484628b8de1dd7","resource":{"resourceType":"MedicationRequest","id":"a325238e-fc2b-4a15-b90e-d7f86fabe106","meta":{"profile":["http://hl7.org/fhir/us/qicore/StructureDefinition/qicore-mednotrequested"]},"status":"completed","intent":"order","category":[{"coding":[{"system":"http://terminology.hl7.org/CodeSystem/medicationrequest-category","code":"community"}]}],"doNotPerform":true,"medicationCodeableConcept":{"coding":[{"system":"http://www.nlm.nih.gov/research/umls/rxnorm","code":"861363"}]},"subject":{"reference":"Patient/fb687d5d-e0db-4fec-b04d-7fb8c37ba014"},"authoredOn":"2025-11-03T09:00:00+00:00","requester":{"reference":"Practitioner/example"},"reasonCode":[{"coding":[{"system":"http://snomed.info/sct","code":"183932001","display":"Procedure contraindicated (situation)","userSelected":true}]}],"dosageInstruction":[{"timing":{"repeat":{"boundsPeriod":{"start":"2025-11-03T09:00:00+00:00"}}}}]},"request":{"method":"PUT","url":"MedicationRequest/a325238e-fc2b-4a15-b90e-d7f86fabe106"}},{"fullUrl":"https://madie.cms.gov/Procedure/5ca6295fb8484628b8de1dd8","resource":{"resourceType":"Procedure","id":"2683446d-62b3-43c9-ae6c-d3f2e64dfec0","meta":{"profile":["http://hl7.org/fhir/us/qicore/StructureDefinition/qicore-procedure"]},"extension":[{"url":"http://hl7.org/fhir/us/qicore/StructureDefinition/qicore-recorded","valueDateTime":"2012-11-04T09:35:00-04:00"}],"status":"completed","code":{"coding":[{"system":"http://snomed.info/sct","code":"18946005"}]},"subject":{"reference":"Patient/fb687d5d-e0db-4fec-b04d-7fb8c37ba014"},"performedPeriod":{"start":"2025-11-02T09:00:00+00:00","end":"2025-11-02T09:15:00+00:00"}},"request":{"method":"PUT","url":"Procedure/2683446d-62b3-43c9-ae6c-d3f2e64dfec0"}},{"fullUrl":"https://madie.cms.gov/Organization/123456","resource":{"resourceType":"Organization","id":"77e4d06f-5e3c-436a-a598-80cefcca5028","meta":{"profile":["http://hl7.org/fhir/us/qicore/StructureDefinition/qicore-organization"]},"identifier":[{"use":"temp","system":"urn:oid:2.16.840.1.113883.4.4","value":"21-3259825"}],"active":true,"type":[{"coding":[{"system":"http://terminology.hl7.org/CodeSystem/organization-type","code":"pay","display":"Payer"}]}],"name":"Blue Cross Blue Shield of Texas","telecom":[{"system":"phone","value":"(+1) 972-766-6900"}],"address":[{"use":"billing","type":"postal","line":["P.O. Box 660044"],"city":"Dallas","state":"TX","postalCode":"75266-0044","country":"USA"}]},"request":{"method":"PUT","url":"Organization/77e4d06f-5e3c-436a-a598-80cefcca5028"}},{"fullUrl":"https://madie.cms.gov/Practitioner/practitioner-123456","resource":{"resourceType":"Practitioner","id":"41910026-1608-4595-9aa1-53ddb2706c33","identifier":[{"system":"http://hl7.org/fhir/sid/us-npi","value":"123456"}],"name":[{"family":"Evil","prefix":["Dr"]}]},"request":{"method":"PUT","url":"Practitioner/41910026-1608-4595-9aa1-53ddb2706c33"}},{"fullUrl":"https://madie.cms.gov/MeasureReport/a2b9b5d3-0a6c-46b4-ab48-b6168f73331f","resource":{"resourceType":"MeasureReport","id":"a2b9b5d3-0a6c-46b4-ab48-b6168f73331f","meta":{"profile":["http://hl7.org/fhir/us/cqfmeasures/StructureDefinition/test-case-cqfm"]},"contained":[{"resourceType":"Parameters","id":"0a61f028-2cba-42b3-94f7-2a68d272a67d-parameters","parameter":[{"name":"subject","valueString":"fb687d5d-e0db-4fec-b04d-7fb8c37ba014"}]}],"extension":[{"url":"http://hl7.org/fhir/us/cqfmeasures/StructureDefinition/cqfm-inputParameters","valueReference":{"reference":"#0a61f028-2cba-42b3-94f7-2a68d272a67d-parameters"}},{"url":"http://hl7.org/fhir/us/cqfmeasures/StructureDefinition/cqfm-testCaseDescription","valueMarkdown":"vfp  not applied and factor Xa inhibitor not administered due to medical reason 1 day after end of anesthesia\n"}],"modifierExtension":[{"url":"http://hl7.org/fhir/us/cqfmeasures/StructureDefinition/cqfm-isTestCase","valueBoolean":true}],"status":"complete","type":"individual","measure":"https://madie.cms.gov/Measure/VenousThromboembolismProphylaxisFHIR","period":{"start":"2025-01-01","end":"2025-12-31"},"group":[{"population":[{"code":{"coding":[{"system":"http://terminology.hl7.org/CodeSystem/measure-population","code":"initial-population","display":"Initial Population"}]},"count":1},{"code":{"coding":[{"system":"http://terminology.hl7.org/CodeSystem/measure-population","code":"denominator","display":"Denominator"}]},"count":1},{"code":{"coding":[{"system":"http://terminology.hl7.org/CodeSystem/measure-population","code":"denominator-exclusion","display":"Denominator Exclusion"}]},"count":0},{"code":{"coding":[{"system":"http://terminology.hl7.org/CodeSystem/measure-population","code":"numerator","display":"Numerator"}]},"count":1}]}]},"request":{"method":"PUT","url":"MeasureReport/a2b9b5d3-0a6c-46b4-ab48-b6168f73331f"}}]}