{
  "resourceType": "Bundle",
  "id": "633c9d020968f8012250fc69",
  "type": "transaction",
  "entry": [ {
    "fullUrl": "https://madie.cms.gov/Patient/f0d3eb0e-a93c-4caf-8233-499a105906de",
    "resource": {
      "resourceType": "Patient",
      "id": "f0d3eb0e-a93c-4caf-8233-499a105906de",
      "meta": {
        "profile": [ "http://hl7.org/fhir/us/qicore/StructureDefinition/qicore-patient" ]
      },
      "text": {
        "status": "generated",
        "div": "<div xmlns=\"http://www.w3.org/1999/xhtml\"><div class=\"hapiHeaderText\">DischargeFacilityHospice <b>DENEXPASS </b></div><table class=\"hapiPropertyTable\"><tbody><tr><td>Identifier</td><td>86442f6b546c921f8332256ec26a4c93</td></tr><tr><td>Date of birth</td><td><span>31 July 1969</span></td></tr></tbody></table></div>"
      },
      "extension": [ {
        "url": "http://hl7.org/fhir/us/core/StructureDefinition/us-core-race",
        "extension": [ {
          "url": "ombCategory",
          "valueCoding": {
            "system": "urn:oid:2.16.840.1.113883.6.238",
            "code": "1002-5",
            "display": "American Indian or Alaska Native",
            "userSelected": true
          }
        }, {
          "url": "text",
          "valueString": "American Indian or Alaska Native"
        } ]
      }, {
        "url": "http://hl7.org/fhir/us/core/StructureDefinition/us-core-ethnicity",
        "extension": [ {
          "url": "ombCategory",
          "valueCoding": {
            "system": "urn:oid:2.16.840.1.113883.6.238",
            "code": "2135-2",
            "display": "Hispanic or Latino",
            "userSelected": true
          }
        }, {
          "url": "text",
          "valueString": "Hispanic or Latino"
        } ]
      } ],
      "identifier": [ {
        "type": {
          "coding": [ {
            "system": "http://terminology.hl7.org/CodeSystem/v2-0203",
            "code": "MR"
          } ]
        },
        "system": "https://bonnie-fhir.healthit.gov/",
        "value": "633c9d020968f8012250fc69"
      } ],
      "active": true,
      "name": [ {
        "use": "usual",
        "family": "DENEXPass",
        "given": [ "DischargeFacilityHospice" ]
      } ],
      "gender": "male",
      "birthDate": "1970-07-31"
    },
    "request": {
      "method": "PUT",
      "url": "Patient/f0d3eb0e-a93c-4caf-8233-499a105906de"
    }
  }, {
    "fullUrl": "https://madie.cms.gov/Encounter/ae30e962-05e4-4543-be13-52c778a1b74c",
    "resource": {
      "resourceType": "Encounter",
      "id": "ae30e962-05e4-4543-be13-52c778a1b74c",
      "meta": {
        "profile": [ "http://hl7.org/fhir/us/qicore/StructureDefinition/qicore-encounter" ]
      },
      "status": "finished",
      "class": {
        "system": "http://terminology.hl7.org/CodeSystem/v3-ActCode",
        "code": "IMP",
        "display": "inpatient encounter"
      },
      "type": [ {
        "coding": [ {
          "system": "http://snomed.info/sct",
          "code": "32485007"
        } ]
      } ],
      "subject": {
        "reference": "Patient/f0d3eb0e-a93c-4caf-8233-499a105906de"
      },
      "period": {
        "start": "2026-11-20T08:00:00.000Z",
        "end": "2026-11-24T08:15:00.000Z"
      },
      "length": {
        "value": 4,
        "unit": "days"
      },
      "diagnosis": [ {
        "condition": {
          "reference": "Condition/85c37e82-deff-47dd-b0e9-faef4cc1a74e"
        },
        "use": {
          "coding": [ {
            "system": "http://terminology.hl7.org/CodeSystem/diagnosis-role",
            "code": "billing",
            "display": "Billing"
          } ]
        },
        "rank": 1
      } ],
      "hospitalization": {
        "dischargeDisposition": {
          "coding": [ {
            "system": "http://snomed.info/sct",
            "code": "428371000124100",
            "display": "Discharged to Health Care Facility for Hospice Care"
          } ]
        }
      }
    },
    "request": {
      "method": "PUT",
      "url": "Encounter/ae30e962-05e4-4543-be13-52c778a1b74c"
    }
  }, {
    "fullUrl": "https://madie.cms.gov/Coverage/162b5729-496a-494d-84c0-18627e466d69",
    "resource": {
      "resourceType": "Coverage",
      "id": "162b5729-496a-494d-84c0-18627e466d69",
      "status": "active",
      "beneficiary": {
        "reference": "Patient/f0d3eb0e-a93c-4caf-8233-499a105906de"
      },
      "period": {
        "start": "1970-07-31T08:00:00.000Z"
      },
      "payor": [ {
        "reference": "Organization/6fae4a6f-9555-4f52-872d-cb4ac613c8df"
      } ]
    },
    "request": {
      "method": "PUT",
      "url": "Coverage/162b5729-496a-494d-84c0-18627e466d69"
    }
  }, {
    "fullUrl": "https://madie.cms.gov/Procedure/fe0872a1-b661-4fa1-94d9-ecbf1d9d8bba",
    "resource": {
      "resourceType": "Procedure",
      "id": "fe0872a1-b661-4fa1-94d9-ecbf1d9d8bba",
      "meta": {
        "profile": [ "http://hl7.org/fhir/us/qicore/StructureDefinition/qicore-procedure" ]
      },
      "extension": [ {
        "url": "http://hl7.org/fhir/us/qicore/StructureDefinition/qicore-recorded",
        "valueDateTime": "2026-11-19T09:35:00-04:00"
      } ],
      "status": "completed",
      "code": {
        "coding": [ {
          "system": "http://www.cms.gov/Medicare/Coding/ICD10",
          "code": "02560ZZ"
        }, {
          "system": "http://snomed.info/sct",
          "code": "175095005"
        } ]
      },
      "subject": {
        "reference": "Patient/f0d3eb0e-a93c-4caf-8233-499a105906de"
      },
      "performedPeriod": {
        "start": "2026-11-19T08:00:00.000Z",
        "end": "2026-11-20T08:15:00.000Z"
      }
    },
    "request": {
      "method": "PUT",
      "url": "Procedure/fe0872a1-b661-4fa1-94d9-ecbf1d9d8bba"
    }
  }, {
    "fullUrl": "https://madie.cms.gov/Condition/85c37e82-deff-47dd-b0e9-faef4cc1a74e",
    "resource": {
      "resourceType": "Condition",
      "id": "85c37e82-deff-47dd-b0e9-faef4cc1a74e",
      "meta": {
        "profile": [ "http://hl7.org/fhir/us/qicore/StructureDefinition/qicore-condition" ]
      },
      "clinicalStatus": {
        "coding": [ {
          "system": "http://terminology.hl7.org/CodeSystem/condition-clinical",
          "code": "active"
        } ]
      },
      "verificationStatus": {
        "coding": [ {
          "system": "http://terminology.hl7.org/CodeSystem/condition-ver-status",
          "code": "confirmed"
        } ]
      },
      "category": [ {
        "coding": [ {
          "system": "http://terminology.hl7.org/CodeSystem/condition-category",
          "code": "encounter-diagnosis",
          "display": "Encounter Diagnosis"
        } ]
      } ],
      "code": {
        "coding": [ {
          "system": "http://snomed.info/sct",
          "version": "2021-09",
          "code": "111297002",
          "display": "Nonparalytic stroke (disorder)",
          "userSelected": true
        } ]
      },
      "subject": {
        "reference": "Patient/f0d3eb0e-a93c-4caf-8233-499a105906de"
      },
      "recordedDate": "2026-10-13T08:00:00.000+00:00"
    },
    "request": {
      "method": "PUT",
      "url": "Condition/85c37e82-deff-47dd-b0e9-faef4cc1a74e"
    }
  }, {
    "fullUrl": "https://madie.cms.gov/Organization/6fae4a6f-9555-4f52-872d-cb4ac613c8df",
    "resource": {
      "resourceType": "Organization",
      "id": "6fae4a6f-9555-4f52-872d-cb4ac613c8df",
      "meta": {
        "profile": [ "http://hl7.org/fhir/us/qicore/StructureDefinition/qicore-organization" ]
      },
      "identifier": [ {
        "use": "temp",
        "system": "urn:oid:2.16.840.1.113883.4.4",
        "value": "21-3259825"
      } ],
      "active": true,
      "type": [ {
        "coding": [ {
          "system": "http://terminology.hl7.org/CodeSystem/organization-type",
          "code": "pay",
          "display": "Payer"
        } ]
      } ],
      "name": "Blue Cross Blue Shield of Texas",
      "telecom": [ {
        "system": "phone",
        "value": "(+1) 972-766-6900"
      } ],
      "address": [ {
        "use": "billing",
        "type": "postal",
        "line": [ "P.O. Box 660044" ],
        "city": "Dallas",
        "state": "TX",
        "postalCode": "75266-0044",
        "country": "USA"
      } ]
    },
    "request": {
      "method": "PUT",
      "url": "Organization/6fae4a6f-9555-4f52-872d-cb4ac613c8df"
    }
  }, {
    "fullUrl": "https://madie.cms.gov/Practitioner/c6a53503-8d22-4aca-b508-67adfb01b6e1",
    "resource": {
      "resourceType": "Practitioner",
      "id": "c6a53503-8d22-4aca-b508-67adfb01b6e1",
      "identifier": [ {
        "system": "http://hl7.org/fhir/sid/us-npi",
        "value": "123456"
      } ],
      "name": [ {
        "family": "Evil",
        "prefix": [ "Dr" ]
      } ]
    },
    "request": {
      "method": "PUT",
      "url": "Practitioner/c6a53503-8d22-4aca-b508-67adfb01b6e1"
    }
  }, {
    "fullUrl": "https://madie.cms.gov/MeasureReport/0f833c05-97db-4908-b91e-7f863dae1238",
    "resource": {
      "resourceType": "MeasureReport",
      "id": "0f833c05-97db-4908-b91e-7f863dae1238",
      "meta": {
        "profile": [ "http://hl7.org/fhir/us/cqfmeasures/StructureDefinition/test-case-cqfm" ]
      },
      "contained": [ {
        "resourceType": "Parameters",
        "id": "bff9a2f8-62a0-4abf-bfef-804843c2cd75-parameters",
        "parameter": [ {
          "name": "subject",
          "valueString": "f0d3eb0e-a93c-4caf-8233-499a105906de"
        } ]
      } ],
      "extension": [ {
        "url": "http://hl7.org/fhir/us/cqfmeasures/StructureDefinition/cqfm-inputParameters",
        "valueReference": {
          "reference": "#bff9a2f8-62a0-4abf-bfef-804843c2cd75-parameters"
        }
      }, {
        "url": "http://hl7.org/fhir/us/cqfmeasures/StructureDefinition/cqfm-testCaseDescription",
        "valueMarkdown": "Discharge to health care facility for hospice.\n"
      } ],
      "modifierExtension": [ {
        "url": "http://hl7.org/fhir/us/cqfmeasures/StructureDefinition/cqfm-isTestCase",
        "valueBoolean": true
      } ],
      "status": "complete",
      "type": "individual",
      "measure": "https://madie.cms.gov/Measure/CMS71FHIRSTKAnticoagAFFlutter",
      "period": {
        "start": "2026-01-01",
        "end": "2026-12-31"
      },
      "group": [ {
        "population": [ {
          "code": {
            "coding": [ {
              "system": "http://terminology.hl7.org/CodeSystem/measure-population",
              "code": "initial-population",
              "display": "Initial Population"
            } ]
          },
          "count": 1
        }, {
          "code": {
            "coding": [ {
              "system": "http://terminology.hl7.org/CodeSystem/measure-population",
              "code": "denominator",
              "display": "Denominator"
            } ]
          },
          "count": 1
        }, {
          "code": {
            "coding": [ {
              "system": "http://terminology.hl7.org/CodeSystem/measure-population",
              "code": "denominator-exclusion",
              "display": "Denominator Exclusion"
            } ]
          },
          "count": 1
        }, {
          "code": {
            "coding": [ {
              "system": "http://terminology.hl7.org/CodeSystem/measure-population",
              "code": "numerator",
              "display": "Numerator"
            } ]
          },
          "count": 0
        }, {
          "code": {
            "coding": [ {
              "system": "http://terminology.hl7.org/CodeSystem/measure-population",
              "code": "denominator-exception",
              "display": "Denominator Exception"
            } ]
          },
          "count": 0
        } ]
      } ],
      "evaluatedResource": [ {
        "reference": "Patient/f0d3eb0e-a93c-4caf-8233-499a105906de"
      }, {
        "reference": "Encounter/ae30e962-05e4-4543-be13-52c778a1b74c"
      }, {
        "reference": "Coverage/162b5729-496a-494d-84c0-18627e466d69"
      }, {
        "reference": "Procedure/fe0872a1-b661-4fa1-94d9-ecbf1d9d8bba"
      }, {
        "reference": "Condition/85c37e82-deff-47dd-b0e9-faef4cc1a74e"
      }, {
        "reference": "Organization/6fae4a6f-9555-4f52-872d-cb4ac613c8df"
      }, {
        "reference": "Practitioner/c6a53503-8d22-4aca-b508-67adfb01b6e1"
      } ]
    },
    "request": {
      "method": "PUT",
      "url": "MeasureReport/0f833c05-97db-4908-b91e-7f863dae1238"
    }
  } ]
}