{
  "resourceType": "Bundle",
  "id": "DENEXPass-FallPOAisW",
  "type": "transaction",
  "entry": [ {
    "fullUrl": "https://madie.cms.gov/Patient/951a2d40-7274-4820-bfa5-51d28cfd91ab",
    "resource": {
      "resourceType": "Patient",
      "id": "951a2d40-7274-4820-bfa5-51d28cfd91ab",
      "meta": {
        "profile": [ "http://hl7.org/fhir/us/qicore/StructureDefinition/qicore-patient" ]
      },
      "extension": [ {
        "url": "http://hl7.org/fhir/us/core/StructureDefinition/us-core-race",
        "extension": [ {
          "url": "ombCategory",
          "valueCoding": {
            "system": "urn:oid:2.16.840.1.113883.6.238",
            "code": "1002-5",
            "display": "American Indian or Alaska Native",
            "userSelected": true
          }
        }, {
          "url": "text",
          "valueString": "American Indian or Alaska Native"
        } ]
      }, {
        "url": "http://hl7.org/fhir/us/core/StructureDefinition/us-core-ethnicity",
        "extension": [ {
          "url": "ombCategory",
          "valueCoding": {
            "system": "urn:oid:2.16.840.1.113883.6.238",
            "code": "2135-2",
            "display": "Hispanic or Latino",
            "userSelected": true
          }
        }, {
          "url": "text",
          "valueString": "Hispanic or Latino"
        } ]
      } ],
      "identifier": [ {
        "type": {
          "coding": [ {
            "system": "http://terminology.hl7.org/CodeSystem/v2-0203",
            "code": "MR"
          } ]
        },
        "system": "https://bonnie-fhir.healthit.gov/",
        "value": "61152a3b98086b7a79cbd7c1"
      } ],
      "active": true,
      "name": [ {
        "use": "usual",
        "family": "DENEXPass",
        "given": [ "FallPOAisW" ]
      } ],
      "gender": "female",
      "birthDate": "1964-12-11"
    },
    "request": {
      "method": "PUT",
      "url": "Patient/951a2d40-7274-4820-bfa5-51d28cfd91ab"
    }
  }, {
    "fullUrl": "https://madie.cms.gov/Encounter/777d0cd9-be71-4ff0-9614-d3d58ed3c968",
    "resource": {
      "resourceType": "Encounter",
      "id": "777d0cd9-be71-4ff0-9614-d3d58ed3c968",
      "meta": {
        "profile": [ "http://hl7.org/fhir/us/qicore/StructureDefinition/qicore-encounter" ]
      },
      "status": "finished",
      "class": {
        "system": "http://terminology.hl7.org/CodeSystem/v3-ActCode",
        "code": "IMP",
        "display": "inpatient encounter"
      },
      "type": [ {
        "coding": [ {
          "system": "http://snomed.info/sct",
          "code": "4525004"
        } ]
      } ],
      "subject": {
        "reference": "Patient/951a2d40-7274-4820-bfa5-51d28cfd91ab"
      },
      "period": {
        "start": "2026-11-09T08:00:00+00:00",
        "end": "2026-11-09T10:15:00+00:00"
      }
    },
    "request": {
      "method": "PUT",
      "url": "Encounter/777d0cd9-be71-4ff0-9614-d3d58ed3c968"
    }
  }, {
    "fullUrl": "https://madie.cms.gov/Encounter/0460b1a3-1634-40f5-8da3-3e1e3cd30f39",
    "resource": {
      "resourceType": "Encounter",
      "id": "0460b1a3-1634-40f5-8da3-3e1e3cd30f39",
      "meta": {
        "profile": [ "http://hl7.org/fhir/us/qicore/StructureDefinition/qicore-encounter" ]
      },
      "status": "finished",
      "class": {
        "system": "http://terminology.hl7.org/CodeSystem/v3-ActCode",
        "code": "IMP",
        "display": "inpatient encounter"
      },
      "type": [ {
        "coding": [ {
          "system": "http://snomed.info/sct",
          "code": "183452005"
        } ]
      } ],
      "subject": {
        "reference": "Patient/951a2d40-7274-4820-bfa5-51d28cfd91ab"
      },
      "period": {
        "start": "2026-11-09T11:00:00+00:00",
        "end": "2026-11-12T08:15:00+00:00"
      },
      "diagnosis": [ {
        "extension": [ {
          "url": "http://hl7.org/fhir/us/qicore/StructureDefinition/qicore-encounter-diagnosisPresentOnAdmission",
          "valueCodeableConcept": {
            "coding": [ {
              "system": "https://www.cms.gov/Medicare/Medicare-Fee-for-Service-Payment/HospitalAcqCond/Coding",
              "code": "W"
            } ]
          }
        } ],
        "condition": {
          "reference": "Condition/c46719c8-d72f-4075-b41e-aac8670c7db8"
        }
      } ]
    },
    "request": {
      "method": "PUT",
      "url": "Encounter/0460b1a3-1634-40f5-8da3-3e1e3cd30f39"
    }
  }, {
    "fullUrl": "https://madie.cms.gov/Encounter/8442b594-9184-4a97-bbc4-b872e3fa6f22",
    "resource": {
      "resourceType": "Encounter",
      "id": "8442b594-9184-4a97-bbc4-b872e3fa6f22",
      "meta": {
        "profile": [ "http://hl7.org/fhir/us/qicore/StructureDefinition/qicore-encounter" ]
      },
      "status": "finished",
      "class": {
        "system": "http://terminology.hl7.org/CodeSystem/v3-ActCode",
        "code": "IMP",
        "display": "inpatient encounter"
      },
      "type": [ {
        "coding": [ {
          "system": "http://snomed.info/sct",
          "code": "448951000124107"
        } ]
      } ],
      "subject": {
        "reference": "Patient/951a2d40-7274-4820-bfa5-51d28cfd91ab"
      },
      "period": {
        "start": "2026-11-09T11:00:00+00:00",
        "end": "2026-11-09T22:15:00+00:00"
      }
    },
    "request": {
      "method": "PUT",
      "url": "Encounter/8442b594-9184-4a97-bbc4-b872e3fa6f22"
    }
  }, {
    "fullUrl": "https://madie.cms.gov/Condition/c46719c8-d72f-4075-b41e-aac8670c7db8",
    "resource": {
      "resourceType": "Condition",
      "id": "c46719c8-d72f-4075-b41e-aac8670c7db8",
      "meta": {
        "profile": [ "http://hl7.org/fhir/us/qicore/StructureDefinition/qicore-condition" ]
      },
      "clinicalStatus": {
        "coding": [ {
          "system": "http://terminology.hl7.org/CodeSystem/condition-clinical",
          "code": "active"
        } ]
      },
      "verificationStatus": {
        "coding": [ {
          "system": "http://terminology.hl7.org/CodeSystem/condition-ver-status",
          "code": "confirmed"
        } ]
      },
      "category": [ {
        "coding": [ {
          "system": "http://terminology.hl7.org/CodeSystem/condition-category",
          "code": "encounter-diagnosis",
          "display": "Encounter Diagnosis"
        } ]
      } ],
      "code": {
        "coding": [ {
          "system": "http://snomed.info/sct",
          "code": "56307009"
        } ]
      },
      "subject": {
        "reference": "Patient/951a2d40-7274-4820-bfa5-51d28cfd91ab"
      },
      "encounter": {
        "reference": "Encounter/0460b1a3-1634-40f5-8da3-3e1e3cd30f39"
      }
    },
    "request": {
      "method": "PUT",
      "url": "Condition/c46719c8-d72f-4075-b41e-aac8670c7db8"
    }
  }, {
    "fullUrl": "https://madie.cms.gov/MeasureReport/d6d24d2d-7ae3-4561-b434-e29a35247675",
    "resource": {
      "resourceType": "MeasureReport",
      "id": "d6d24d2d-7ae3-4561-b434-e29a35247675",
      "meta": {
        "profile": [ "http://hl7.org/fhir/us/cqfmeasures/StructureDefinition/test-case-cqfm" ]
      },
      "contained": [ {
        "resourceType": "Parameters",
        "id": "f46cc177-988d-42f7-b978-5d99ad02060b-parameters",
        "parameter": [ {
          "name": "subject",
          "valueString": "951a2d40-7274-4820-bfa5-51d28cfd91ab"
        } ]
      } ],
      "extension": [ {
        "url": "http://hl7.org/fhir/us/cqfmeasures/StructureDefinition/cqfm-inputParameters",
        "valueReference": {
          "reference": "#f46cc177-988d-42f7-b978-5d99ad02060b-parameters"
        }
      }, {
        "url": "http://hl7.org/fhir/us/cqfmeasures/StructureDefinition/cqfm-testCaseDescription",
        "valueMarkdown": "Encounter starts in ED, then Observation, then IP with a fall POA (ind = W). Denom excluded\n"
      } ],
      "modifierExtension": [ {
        "url": "http://hl7.org/fhir/us/cqfmeasures/StructureDefinition/cqfm-isTestCase",
        "valueBoolean": true
      } ],
      "status": "complete",
      "type": "individual",
      "measure": "https://madie.cms.gov/Measure/FallsWithInjuryFHIR",
      "period": {
        "start": "2026-01-01",
        "end": "2026-12-31"
      },
      "group": [ {
        "population": [ {
          "code": {
            "coding": [ {
              "system": "http://terminology.hl7.org/CodeSystem/measure-population",
              "code": "initial-population",
              "display": "Initial Population"
            } ]
          },
          "count": 1
        }, {
          "code": {
            "coding": [ {
              "system": "http://terminology.hl7.org/CodeSystem/measure-population",
              "code": "denominator",
              "display": "Denominator"
            } ]
          },
          "count": 1
        }, {
          "code": {
            "coding": [ {
              "system": "http://terminology.hl7.org/CodeSystem/measure-population",
              "code": "denominator-exclusion",
              "display": "Denominator Exclusion"
            } ]
          },
          "count": 1
        }, {
          "code": {
            "coding": [ {
              "system": "http://terminology.hl7.org/CodeSystem/measure-population",
              "code": "numerator",
              "display": "Numerator"
            } ]
          },
          "count": 0
        }, {
          "code": {
            "coding": [ {
              "system": "http://terminology.hl7.org/CodeSystem/measure-population",
              "code": "numerator-exclusion",
              "display": "Numerator Exclusion"
            } ]
          },
          "count": 1
        } ]
      } ],
      "evaluatedResource": [ {
        "reference": "Patient/951a2d40-7274-4820-bfa5-51d28cfd91ab"
      }, {
        "reference": "Encounter/777d0cd9-be71-4ff0-9614-d3d58ed3c968"
      }, {
        "reference": "Encounter/0460b1a3-1634-40f5-8da3-3e1e3cd30f39"
      }, {
        "reference": "Encounter/8442b594-9184-4a97-bbc4-b872e3fa6f22"
      }, {
        "reference": "Condition/c46719c8-d72f-4075-b41e-aac8670c7db8"
      } ]
    },
    "request": {
      "method": "PUT",
      "url": "MeasureReport/d6d24d2d-7ae3-4561-b434-e29a35247675"
    }
  } ]
}