{
  "resourceType": "Bundle",
  "id": "64136ef04b11b147841ab8c6",
  "type": "transaction",
  "entry": [ {
    "fullUrl": "Patient/023b65d6-0b68-4b1f-b276-f500e4b77ed2",
    "resource": {
      "resourceType": "Patient",
      "id": "023b65d6-0b68-4b1f-b276-f500e4b77ed2",
      "meta": {
        "profile": [ "http://hl7.org/fhir/us/qicore/StructureDefinition/qicore-patient" ]
      },
      "extension": [ {
        "url": "http://hl7.org/fhir/us/core/StructureDefinition/us-core-race",
        "extension": [ {
          "url": "ombCategory",
          "valueCoding": {
            "system": "urn:oid:2.16.840.1.113883.6.238",
            "code": "2076-8",
            "display": "Native Hawaiian or Other Pacific Islander",
            "userSelected": true
          }
        }, {
          "url": "text",
          "valueString": "Native Hawaiian or Other Pacific Islander"
        } ]
      }, {
        "url": "http://hl7.org/fhir/us/core/StructureDefinition/us-core-ethnicity",
        "extension": [ {
          "url": "ombCategory",
          "valueCoding": {
            "system": "urn:oid:2.16.840.1.113883.6.238",
            "code": "2186-5",
            "display": "Not Hispanic or Latino",
            "userSelected": true
          }
        }, {
          "url": "text",
          "valueString": "Not Hispanic or Latino"
        } ]
      } ],
      "identifier": [ {
        "type": {
          "coding": [ {
            "system": "http://terminology.hl7.org/CodeSystem/v2-0203",
            "code": "MR"
          } ]
        },
        "system": "https://bonnie-fhir.healthit.gov/",
        "value": "64136ef04b11b147841ab8c6"
      } ],
      "name": [ {
        "family": "DENEXPass",
        "given": [ "PalliativeCareAssessment" ]
      } ],
      "gender": "male",
      "birthDate": "1963-03-22"
    },
    "request": {
      "method": "PUT",
      "url": "Patient/023b65d6-0b68-4b1f-b276-f500e4b77ed2"
    }
  }, {
    "fullUrl": "Condition/diabetes-b8c7",
    "resource": {
      "resourceType": "Condition",
      "id": "diabetes-b8c7",
      "meta": {
        "profile": [ "http://hl7.org/fhir/us/qicore/StructureDefinition/qicore-condition" ]
      },
      "clinicalStatus": {
        "coding": [ {
          "system": "http://terminology.hl7.org/CodeSystem/condition-clinical",
          "code": "active",
          "display": "active",
          "userSelected": true
        } ]
      },
      "category": [ {
        "coding": [ {
          "system": "http://terminology.hl7.org/CodeSystem/condition-category",
          "code": "encounter-diagnosis",
          "display": "Encounter Diagnosis",
          "userSelected": true
        } ]
      } ],
      "code": {
        "coding": [ {
          "system": "http://snomed.info/sct",
          "version": "2021-09",
          "code": "102781000119107",
          "display": "Sensory neuropathy due to type 1 diabetes mellitus (disorder)",
          "userSelected": true
        } ]
      },
      "subject": {
        "reference": "Patient/023b65d6-0b68-4b1f-b276-f500e4b77ed2"
      },
      "onsetDateTime": "2025-03-06T08:00:00.000+00:00"
    },
    "request": {
      "method": "PUT",
      "url": "Condition/diabetes-b8c7"
    }
  }, {
    "fullUrl": "Encounter/office-visit-b8c8",
    "resource": {
      "resourceType": "Encounter",
      "id": "office-visit-b8c8",
      "meta": {
        "profile": [ "http://hl7.org/fhir/us/qicore/StructureDefinition/qicore-encounter" ]
      },
      "status": "finished",
      "class": {
        "system": "http://terminology.hl7.org/CodeSystem/v3-ActCode",
        "code": "AMB",
        "display": "ambulatory",
        "userSelected": true
      },
      "type": [ {
        "coding": [ {
          "system": "http://snomed.info/sct",
          "version": "2021-09",
          "code": "185463005",
          "display": "Visit out of hours (procedure)",
          "userSelected": true
        } ]
      } ],
      "subject": {
        "reference": "Patient/023b65d6-0b68-4b1f-b276-f500e4b77ed2"
      },
      "period": {
        "start": "2025-03-08T08:00:00.000+00:00",
        "end": "2025-03-08T08:15:00.000+00:00"
      }
    },
    "request": {
      "method": "PUT",
      "url": "Encounter/office-visit-b8c8"
    }
  }, {
    "fullUrl": "Encounter/annual-wellness-visit-b8c9",
    "resource": {
      "resourceType": "Encounter",
      "id": "annual-wellness-visit-b8c9",
      "meta": {
        "profile": [ "http://hl7.org/fhir/us/qicore/StructureDefinition/qicore-encounter" ]
      },
      "status": "finished",
      "class": {
        "system": "http://terminology.hl7.org/CodeSystem/v3-ActCode",
        "code": "AMB",
        "display": "ambulatory",
        "userSelected": true
      },
      "type": [ {
        "coding": [ {
          "system": "http://snomed.info/sct",
          "version": "2021-09",
          "code": "444971000124105",
          "display": "Annual wellness visit (procedure)",
          "userSelected": true
        } ]
      } ],
      "subject": {
        "reference": "Patient/023b65d6-0b68-4b1f-b276-f500e4b77ed2"
      },
      "period": {
        "start": "2025-02-09T08:00:00.000+00:00",
        "end": "2025-02-09T08:15:00.000+00:00"
      }
    },
    "request": {
      "method": "PUT",
      "url": "Encounter/annual-wellness-visit-b8c9"
    }
  }, {
    "fullUrl": "Observation/facit-pal-b8cc",
    "resource": {
      "resourceType": "Observation",
      "id": "facit-pal-b8cc",
      "meta": {
        "profile": [ "http://hl7.org/fhir/us/qicore/StructureDefinition/qicore-observation" ]
      },
      "status": "final",
      "category": [ {
        "coding": [ {
          "system": "http://www.nlm.nih.gov/research/umls/hcpcs",
          "code": "G9054",
          "display": "Oncology; primary focus of visit; supervising, coordinating or managing care of patient with terminal cancer or for whom other medical illness prevents further cancer treatment; includes symptom management, end-of-life care planning, management of palliative therapies (for use in a medicare-approved demonstration project)",
          "userSelected": true
        } ]
      }, {
        "coding": [ {
          "system": "http://terminology.hl7.org/CodeSystem/observation-category",
          "code": "survey",
          "display": "survey",
          "userSelected": true
        } ]
      } ],
      "code": {
        "coding": [ {
          "system": "http://loinc.org",
          "code": "71007-9",
          "display": "Functional Assessment of Chronic Illness Therapy - Palliative Care Questionnaire (FACIT-Pal)",
          "userSelected": true
        } ]
      },
      "subject": {
        "reference": "Patient/023b65d6-0b68-4b1f-b276-f500e4b77ed2"
      },
      "encounter": {
        "reference": "Encounter/office-visit-b8c8"
      },
      "effectiveDateTime": "2025-03-08T08:00:00.000+00:00",
      "issued": "2025-03-08T08:00:00.000+00:00"
    },
    "request": {
      "method": "PUT",
      "url": "Observation/facit-pal-b8cc"
    }
  }, {
    "fullUrl": "MeasureReport/9b89d033-a289-4b24-ab00-17c9ddf7056d",
    "resource": {
      "resourceType": "MeasureReport",
      "id": "9b89d033-a289-4b24-ab00-17c9ddf7056d",
      "meta": {
        "profile": [ "http://hl7.org/fhir/us/cqfmeasures/StructureDefinition/test-case-cqfm" ]
      },
      "contained": [ {
        "resourceType": "Parameters",
        "id": "8b482f15-2b29-48a5-9498-1182f179d1a5-parameters",
        "parameter": [ {
          "name": "subject",
          "valueString": "023b65d6-0b68-4b1f-b276-f500e4b77ed2"
        } ]
      } ],
      "extension": [ {
        "url": "http://hl7.org/fhir/us/cqfmeasures/StructureDefinition/cqfm-inputParameters",
        "valueReference": {
          "reference": "#8b482f15-2b29-48a5-9498-1182f179d1a5-parameters"
        }
      }, {
        "url": "http://hl7.org/fhir/us/cqfmeasures/StructureDefinition/cqfm-testCaseDescription",
        "valueMarkdown": "This patient is 60 years old with a qualifying encounter and active diabetes diagnosis, with a Palliative Care Assessment in the Measurement Period. This case tests the denominator exclusion criteria."
      } ],
      "modifierExtension": [ {
        "url": "http://hl7.org/fhir/us/cqfmeasures/StructureDefinition/cqfm-isTestCase",
        "valueBoolean": true
      } ],
      "status": "complete",
      "type": "individual",
      "measure": "Measure/KidneyHealthEvaluationFHIR",
      "period": {
        "start": "2025-01-01",
        "end": "2025-12-31"
      },
      "group": [ {
        "population": [ {
          "code": {
            "coding": [ {
              "system": "http://terminology.hl7.org/CodeSystem/measure-population",
              "code": "initial-population",
              "display": "Initial Population"
            } ]
          },
          "count": 1
        }, {
          "code": {
            "coding": [ {
              "system": "http://terminology.hl7.org/CodeSystem/measure-population",
              "code": "denominator",
              "display": "Denominator"
            } ]
          },
          "count": 1
        }, {
          "code": {
            "coding": [ {
              "system": "http://terminology.hl7.org/CodeSystem/measure-population",
              "code": "denominator-exclusion",
              "display": "Denominator Exclusion"
            } ]
          },
          "count": 1
        }, {
          "code": {
            "coding": [ {
              "system": "http://terminology.hl7.org/CodeSystem/measure-population",
              "code": "numerator",
              "display": "Numerator"
            } ]
          },
          "count": 0
        } ]
      } ],
      "evaluatedResource": [ {
        "reference": "Patient/023b65d6-0b68-4b1f-b276-f500e4b77ed2"
      }, {
        "reference": "Condition/diabetes-b8c7"
      }, {
        "reference": "Encounter/office-visit-b8c8"
      }, {
        "reference": "Encounter/annual-wellness-visit-b8c9"
      }, {
        "reference": "Observation/facit-pal-b8cc"
      } ]
    },
    "request": {
      "method": "PUT",
      "url": "MeasureReport/9b89d033-a289-4b24-ab00-17c9ddf7056d"
    }
  } ]
}
