{
  "resourceType": "Bundle",
  "id": "612e6b1602c62a011f2ec5e7",
  "type": "transaction",
  "entry": [ {
    "fullUrl": "https://madie.cms.gov/Patient/fa475afd-7282-48cc-95bc-747bf3dac16a",
    "resource": {
      "resourceType": "Patient",
      "id": "fa475afd-7282-48cc-95bc-747bf3dac16a",
      "meta": {
        "profile": [ "http://hl7.org/fhir/us/qicore/StructureDefinition/qicore-patient" ]
      },
      "text": {
        "status": "generated",
        "div": "<div xmlns=\"http://www.w3.org/1999/xhtml\"><div class=\"hapiHeaderText\">WarfarinAFDisch_2Encounters <b>NUMERFAIL </b></div><table class=\"hapiPropertyTable\"><tbody><tr><td>Identifier</td><td>f6b3ce4fb2b87a4aa5f00ca8118e0e9a</td></tr><tr><td>Date of birth</td><td><span>02 January 1974</span></td></tr></tbody></table></div>"
      },
      "extension": [ {
        "url": "http://hl7.org/fhir/us/core/StructureDefinition/us-core-race",
        "extension": [ {
          "url": "ombCategory",
          "valueCoding": {
            "system": "urn:oid:2.16.840.1.113883.6.238",
            "code": "1002-5",
            "display": "American Indian or Alaska Native",
            "userSelected": true
          }
        }, {
          "url": "text",
          "valueString": "American Indian or Alaska Native"
        } ]
      }, {
        "url": "http://hl7.org/fhir/us/core/StructureDefinition/us-core-ethnicity",
        "extension": [ {
          "url": "ombCategory",
          "valueCoding": {
            "system": "urn:oid:2.16.840.1.113883.6.238",
            "code": "2135-2",
            "display": "Hispanic or Latino",
            "userSelected": true
          }
        }, {
          "url": "text",
          "valueString": "Hispanic or Latino"
        } ]
      } ],
      "identifier": [ {
        "type": {
          "coding": [ {
            "system": "http://terminology.hl7.org/CodeSystem/v2-0203",
            "code": "MR"
          } ]
        },
        "system": "https://bonnie-fhir.healthit.gov/",
        "value": "612e6b1602c62a011f2ec5e7"
      } ],
      "active": true,
      "name": [ {
        "use": "usual",
        "family": "NUMERFail",
        "given": [ "WarfarinAFDisch_2Encounters" ]
      } ],
      "gender": "male",
      "birthDate": "1975-01-02"
    },
    "request": {
      "method": "PUT",
      "url": "Patient/fa475afd-7282-48cc-95bc-747bf3dac16a"
    }
  }, {
    "fullUrl": "https://madie.cms.gov/Encounter/58286a0e-521e-4d5f-b2b0-912fede115a4",
    "resource": {
      "resourceType": "Encounter",
      "id": "58286a0e-521e-4d5f-b2b0-912fede115a4",
      "meta": {
        "profile": [ "http://hl7.org/fhir/us/qicore/StructureDefinition/qicore-encounter" ]
      },
      "status": "finished",
      "class": {
        "system": "http://terminology.hl7.org/CodeSystem/v3-ActCode",
        "code": "IMP",
        "display": "inpatient encounter"
      },
      "type": [ {
        "coding": [ {
          "system": "http://snomed.info/sct",
          "code": "8715000"
        } ]
      } ],
      "subject": {
        "reference": "Patient/fa475afd-7282-48cc-95bc-747bf3dac16a"
      },
      "period": {
        "start": "2026-10-03T08:00:00+00:00",
        "end": "2026-10-05T08:15:00+00:00"
      },
      "length": {
        "value": 2.0,
        "unit": "days"
      },
      "diagnosis": [ {
        "condition": {
          "reference": "Condition/hemorrhagic-stroke-1c3b"
        },
        "rank": 1
      } ]
    },
    "request": {
      "method": "PUT",
      "url": "Encounter/58286a0e-521e-4d5f-b2b0-912fede115a4"
    }
  }, {
    "fullUrl": "https://madie.cms.gov/Encounter/eea23a21-cf95-44f5-bca8-7070a47ee131",
    "resource": {
      "resourceType": "Encounter",
      "id": "eea23a21-cf95-44f5-bca8-7070a47ee131",
      "meta": {
        "profile": [ "http://hl7.org/fhir/us/qicore/StructureDefinition/qicore-encounter" ]
      },
      "status": "finished",
      "class": {
        "system": "http://terminology.hl7.org/CodeSystem/v3-ActCode",
        "code": "IMP",
        "display": "inpatient encounter"
      },
      "type": [ {
        "coding": [ {
          "system": "http://snomed.info/sct",
          "code": "8715000"
        } ]
      } ],
      "subject": {
        "reference": "Patient/fa475afd-7282-48cc-95bc-747bf3dac16a"
      },
      "period": {
        "start": "2026-11-01T08:00:00+00:00",
        "end": "2026-11-26T08:15:00+00:00"
      },
      "length": {
        "value": 25.0,
        "unit": "days"
      }
    },
    "request": {
      "method": "PUT",
      "url": "Encounter/eea23a21-cf95-44f5-bca8-7070a47ee131"
    }
  }, {
    "fullUrl": "https://madie.cms.gov/Coverage/f1aa8a00-670f-4528-879f-ea7cf65fe4fa",
    "resource": {
      "resourceType": "Coverage",
      "id": "f1aa8a00-670f-4528-879f-ea7cf65fe4fa",
      "status": "active",
      "beneficiary": {
        "reference": "Patient/fa475afd-7282-48cc-95bc-747bf3dac16a"
      },
      "period": {
        "start": "1975-01-02T08:00:00+00:00"
      },
      "payor": [ {
        "reference": "Organization/a4a883b5-f64c-4224-b3c3-2480419ced44"
      } ]
    },
    "request": {
      "method": "PUT",
      "url": "Coverage/f1aa8a00-670f-4528-879f-ea7cf65fe4fa"
    }
  }, {
    "fullUrl": "https://madie.cms.gov/MedicationAdministration/315e2a90-7c3c-4e5b-b12a-f4a7b8cda8fd",
    "resource": {
      "resourceType": "MedicationAdministration",
      "id": "315e2a90-7c3c-4e5b-b12a-f4a7b8cda8fd",
      "meta": {
        "profile": [ "http://hl7.org/fhir/us/qicore/StructureDefinition/qicore-medicationadministration" ]
      },
      "status": "completed",
      "medicationCodeableConcept": {
        "coding": [ {
          "system": "http://www.nlm.nih.gov/research/umls/rxnorm",
          "code": "855288"
        } ]
      },
      "subject": {
        "reference": "Patient/fa475afd-7282-48cc-95bc-747bf3dac16a"
      },
      "effectiveDateTime": "2026-10-26T08:00:00.000+00:00"
    },
    "request": {
      "method": "PUT",
      "url": "MedicationAdministration/315e2a90-7c3c-4e5b-b12a-f4a7b8cda8fd"
    }
  }, {
    "fullUrl": "https://madie.cms.gov/Organization/a4a883b5-f64c-4224-b3c3-2480419ced44",
    "resource": {
      "resourceType": "Organization",
      "id": "a4a883b5-f64c-4224-b3c3-2480419ced44",
      "meta": {
        "profile": [ "http://hl7.org/fhir/us/qicore/StructureDefinition/qicore-organization" ]
      },
      "identifier": [ {
        "use": "temp",
        "system": "urn:oid:2.16.840.1.113883.4.4",
        "value": "21-3259825"
      } ],
      "active": true,
      "type": [ {
        "coding": [ {
          "system": "http://terminology.hl7.org/CodeSystem/organization-type",
          "code": "pay",
          "display": "Payer"
        } ]
      } ],
      "name": "Blue Cross Blue Shield of Texas",
      "telecom": [ {
        "system": "phone",
        "value": "(+1) 972-766-6900"
      } ],
      "address": [ {
        "use": "billing",
        "type": "postal",
        "line": [ "P.O. Box 660044" ],
        "city": "Dallas",
        "state": "TX",
        "postalCode": "75266-0044",
        "country": "USA"
      } ]
    },
    "request": {
      "method": "PUT",
      "url": "Organization/a4a883b5-f64c-4224-b3c3-2480419ced44"
    }
  }, {
    "fullUrl": "https://madie.cms.gov/Practitioner/cff35c60-cb62-41ac-9217-5f015ac2e703",
    "resource": {
      "resourceType": "Practitioner",
      "id": "cff35c60-cb62-41ac-9217-5f015ac2e703",
      "identifier": [ {
        "system": "http://hl7.org/fhir/sid/us-npi",
        "value": "123456"
      } ],
      "name": [ {
        "family": "Evil",
        "prefix": [ "Dr" ]
      } ]
    },
    "request": {
      "method": "PUT",
      "url": "Practitioner/cff35c60-cb62-41ac-9217-5f015ac2e703"
    }
  }, {
    "fullUrl": "https://madie.cms.gov/MeasureReport/2c49e95a-cd9f-460b-ab75-b74f9922ca78",
    "resource": {
      "resourceType": "MeasureReport",
      "id": "2c49e95a-cd9f-460b-ab75-b74f9922ca78",
      "meta": {
        "profile": [ "http://hl7.org/fhir/us/cqfmeasures/StructureDefinition/test-case-cqfm" ]
      },
      "contained": [ {
        "resourceType": "Parameters",
        "id": "fceef172-8220-4726-912b-47a122d88132-parameters",
        "parameter": [ {
          "name": "subject",
          "valueString": "fa475afd-7282-48cc-95bc-747bf3dac16a"
        } ]
      } ],
      "extension": [ {
        "url": "http://hl7.org/fhir/us/cqfmeasures/StructureDefinition/cqfm-inputParameters",
        "valueReference": {
          "reference": "#fceef172-8220-4726-912b-47a122d88132-parameters"
        }
      }, {
        "url": "http://hl7.org/fhir/us/cqfmeasures/StructureDefinition/cqfm-testCaseDescription",
        "valueMarkdown": "2 encounters. warfarin administered 1 day Before 2nd encounter\n"
      } ],
      "modifierExtension": [ {
        "url": "http://hl7.org/fhir/us/cqfmeasures/StructureDefinition/cqfm-isTestCase",
        "valueBoolean": true
      } ],
      "status": "complete",
      "type": "individual",
      "measure": "https://madie.cms.gov/Measure/CMS108VTEProphylaxisFHIR",
      "period": {
        "start": "2026-01-01",
        "end": "2026-12-31"
      },
      "group": [ {
        "population": [ {
          "code": {
            "coding": [ {
              "system": "http://terminology.hl7.org/CodeSystem/measure-population",
              "code": "initial-population",
              "display": "Initial Population"
            } ]
          },
          "count": 2
        }, {
          "code": {
            "coding": [ {
              "system": "http://terminology.hl7.org/CodeSystem/measure-population",
              "code": "denominator",
              "display": "Denominator"
            } ]
          },
          "count": 2
        }, {
          "code": {
            "coding": [ {
              "system": "http://terminology.hl7.org/CodeSystem/measure-population",
              "code": "denominator-exclusion",
              "display": "Denominator Exclusion"
            } ]
          },
          "count": 0
        }, {
          "code": {
            "coding": [ {
              "system": "http://terminology.hl7.org/CodeSystem/measure-population",
              "code": "numerator",
              "display": "Numerator"
            } ]
          },
          "count": 0
        } ]
      } ],
      "evaluatedResource": [ {
        "reference": "Patient/fa475afd-7282-48cc-95bc-747bf3dac16a"
      }, {
        "reference": "Encounter/58286a0e-521e-4d5f-b2b0-912fede115a4"
      }, {
        "reference": "Encounter/eea23a21-cf95-44f5-bca8-7070a47ee131"
      }, {
        "reference": "Coverage/f1aa8a00-670f-4528-879f-ea7cf65fe4fa"
      }, {
        "reference": "MedicationAdministration/315e2a90-7c3c-4e5b-b12a-f4a7b8cda8fd"
      }, {
        "reference": "Organization/a4a883b5-f64c-4224-b3c3-2480419ced44"
      }, {
        "reference": "Practitioner/cff35c60-cb62-41ac-9217-5f015ac2e703"
      } ]
    },
    "request": {
      "method": "PUT",
      "url": "MeasureReport/2c49e95a-cd9f-460b-ab75-b74f9922ca78"
    }
  } ]
}