{"resourceType":"Bundle","id":"tests-de5e2460-196e-4a0f-bb6a-988c39edadd6-bundle","type":"transaction","entry":[{"fullUrl":"https://madie.cms.gov/Patient/de5e2460-196e-4a0f-bb6a-988c39edadd6","resource":{"resourceType":"Patient","id":"de5e2460-196e-4a0f-bb6a-988c39edadd6","meta":{"profile":["http://hl7.org/fhir/us/qicore/StructureDefinition/qicore-patient"]},"extension":[{"url":"http://hl7.org/fhir/us/core/StructureDefinition/us-core-race","extension":[{"url":"ombCategory","valueCoding":{"system":"urn:oid:2.16.840.1.113883.6.238","code":"2076-8","display":"Native Hawaiian or Other Pacific Islander","userSelected":true}},{"url":"text","valueString":"Native Hawaiian or Other Pacific Islander"}]},{"url":"http://hl7.org/fhir/us/core/StructureDefinition/us-core-ethnicity","extension":[{"url":"ombCategory","valueCoding":{"system":"urn:oid:2.16.840.1.113883.6.238","code":"2135-2","display":"Hispanic or Latino","userSelected":true}},{"url":"text","valueString":"Hispanic or Latino"}]}],"identifier":[{"type":{"coding":[{"system":"http://terminology.hl7.org/CodeSystem/v2-0203","code":"MR"}]},"system":"https://bonnie-fhir.healthit.gov/","value":"6495fe1f964a7a684098ad06"}],"name":[{"family":"NumPass","given":["AllLabTestsAfterEncReleventDateTime"]}],"gender":"male","birthDate":"2000-02-04"},"request":{"method":"PUT","url":"Patient/de5e2460-196e-4a0f-bb6a-988c39edadd6"}},{"fullUrl":"https://madie.cms.gov/Condition/hiv-f16f","resource":{"resourceType":"Condition","id":"87accc4b-2c86-45e3-9b84-a6dfa4814544","meta":{"profile":["http://hl7.org/fhir/us/qicore/StructureDefinition/qicore-condition"]},"clinicalStatus":{"coding":[{"system":"http://terminology.hl7.org/CodeSystem/condition-clinical","code":"active","display":"active","userSelected":true}]},"category":[{"coding":[{"system":"http://terminology.hl7.org/CodeSystem/condition-category","code":"problem-list-item","display":"Problem List Item"}]}],"code":{"coding":[{"system":"http://hl7.org/fhir/sid/icd-9-cm","version":"2013","code":"042","display":"Human immunodeficiency virus [HIV] disease","userSelected":true},{"system":"http://snomed.info/sct","code":"165816005","userSelected":true}]},"subject":{"reference":"Patient/de5e2460-196e-4a0f-bb6a-988c39edadd6"},"onsetDateTime":"2017-09-28T08:00:00.000+00:00","recordedDate":"2017-09-28T08:00:00.000+00:00"},"request":{"method":"PUT","url":"Condition/87accc4b-2c86-45e3-9b84-a6dfa4814544"}},{"fullUrl":"https://madie.cms.gov/Encounter/preventive-care-established-office-visit-0-to-17-ad07","resource":{"resourceType":"Encounter","id":"235cb1e0-8752-4e00-b4f4-ff0436d0c2ca","meta":{"profile":["http://hl7.org/fhir/us/qicore/StructureDefinition/qicore-encounter"]},"status":"finished","class":{"system":"http://terminology.hl7.org/CodeSystem/v3-ActCode","code":"AMB","display":"ambulatory"},"type":[{"coding":[{"system":"http://www.ama-assn.org/go/cpt","version":"2023","code":"99391","display":"Periodic comprehensive preventive medicine reevaluation and management of an individual including an age and gender appropriate history, examination, counseling/anticipatory guidance/risk factor reduction interventions, and the ordering of laboratory/diagnostic procedures, established patient; infant (age younger than 1 year)","userSelected":true}]}],"subject":{"reference":"Patient/de5e2460-196e-4a0f-bb6a-988c39edadd6"},"period":{"start":"2025-09-29T08:00:00.000+00:00","end":"2025-09-29T08:30:00.000+00:00"}},"request":{"method":"PUT","url":"Encounter/235cb1e0-8752-4e00-b4f4-ff0436d0c2ca"}},{"fullUrl":"https://madie.cms.gov/Observation/chlamydia-screening-ad08","resource":{"resourceType":"Observation","id":"e7e5e412-9034-416f-9635-3fa217c7abe0","meta":{"profile":["http://hl7.org/fhir/us/qicore/StructureDefinition/qicore-observation"]},"status":"final","category":[{"coding":[{"system":"http://terminology.hl7.org/CodeSystem/observation-category"}]}],"code":{"coding":[{"system":"http://loinc.org","version":"2.73","code":"14463-4","display":"Chlamydia trachomatis [Presence] in Cervix by Organism specific culture","userSelected":true}]},"subject":{"reference":"Patient/de5e2460-196e-4a0f-bb6a-988c39edadd6"},"effectiveDateTime":"2025-09-30T08:00:00.000+00:00","issued":"2025-09-30T08:00:00.000+00:00","valueQuantity":{"value":80}},"request":{"method":"PUT","url":"Observation/e7e5e412-9034-416f-9635-3fa217c7abe0"}},{"fullUrl":"https://madie.cms.gov/Observation/gonorrhea-screening-ad09","resource":{"resourceType":"Observation","id":"6f0d210f-944c-430b-a8ed-87a8293a3a47","meta":{"profile":["http://hl7.org/fhir/us/qicore/StructureDefinition/qicore-observation"]},"status":"final","category":[{"coding":[{"system":"http://terminology.hl7.org/CodeSystem/observation-category"}]}],"code":{"coding":[{"system":"http://loinc.org","version":"2.73","code":"32705-6","display":"Neisseria gonorrhoeae DNA [Presence] in Cervical mucus by NAA with probe detection","userSelected":true}]},"subject":{"reference":"Patient/de5e2460-196e-4a0f-bb6a-988c39edadd6"},"effectiveDateTime":"2025-09-30T08:00:00.000+00:00","issued":"2025-09-30T08:00:00.000+00:00","valueQuantity":{"value":12}},"request":{"method":"PUT","url":"Observation/6f0d210f-944c-430b-a8ed-87a8293a3a47"}},{"fullUrl":"https://madie.cms.gov/Observation/syphilis-tests-ad0a","resource":{"resourceType":"Observation","id":"1509f426-8e3b-4253-8b79-a0ddaf4d55b1","meta":{"profile":["http://hl7.org/fhir/us/qicore/StructureDefinition/qicore-observation"]},"status":"final","category":[{"coding":[{"system":"http://terminology.hl7.org/CodeSystem/observation-category"}]}],"code":{"coding":[{"system":"http://loinc.org","version":"2.73","code":"11084-1","display":"Reagin Ab [Titer] in Serum","userSelected":true}]},"subject":{"reference":"Patient/de5e2460-196e-4a0f-bb6a-988c39edadd6"},"effectiveDateTime":"2025-09-30T08:00:00.000+00:00","issued":"2025-09-30T08:00:00.000+00:00","valueQuantity":{"value":45}},"request":{"method":"PUT","url":"Observation/1509f426-8e3b-4253-8b79-a0ddaf4d55b1"}},{"fullUrl":"https://madie.cms.gov/Coverage/1","resource":{"resourceType":"Coverage","id":"4f8c96bc-306d-47ba-9814-d1a2264ee46b","meta":{"profile":["http://hl7.org/fhir/us/qicore/StructureDefinition/qicore-coverage"]},"status":"active","beneficiary":{"reference":"Patient/de5e2460-196e-4a0f-bb6a-988c39edadd6"},"payor":[{"reference":"Organization/5ad6ea38-07e9-4482-9e1b-c09eee595be9"}]},"request":{"method":"PUT","url":"Coverage/4f8c96bc-306d-47ba-9814-d1a2264ee46b"}},{"fullUrl":"https://madie.cms.gov/Organization/123456","resource":{"resourceType":"Organization","id":"5ad6ea38-07e9-4482-9e1b-c09eee595be9","meta":{"profile":["http://hl7.org/fhir/us/qicore/StructureDefinition/qicore-organization"]},"identifier":[{"use":"temp","system":"urn:oid:2.16.840.1.113883.4.4","value":"21-3259825"}],"active":true,"type":[{"coding":[{"system":"http://terminology.hl7.org/CodeSystem/organization-type","code":"pay","display":"Payer"}]}],"name":"Blue Cross Blue Shield of Texas","telecom":[{"system":"phone","value":"(+1) 972-766-6900"}],"address":[{"use":"billing","type":"postal","line":["P.O. Box 660044"],"city":"Dallas","state":"TX","postalCode":"75266-0044","country":"USA"}]},"request":{"method":"PUT","url":"Organization/5ad6ea38-07e9-4482-9e1b-c09eee595be9"}},{"fullUrl":"https://madie.cms.gov/Practitioner/practitioner-123456","resource":{"resourceType":"Practitioner","id":"8d27b059-37ce-4dec-b30a-379da78b8e64","meta":{"profile":["http://hl7.org/fhir/us/qicore/StructureDefinition/qicore-practitioner"]},"identifier":[{"system":"http://hl7.org/fhir/sid/us-npi","value":"123456"}],"name":[{"family":"Evil","prefix":["Dr"]}]},"request":{"method":"PUT","url":"Practitioner/8d27b059-37ce-4dec-b30a-379da78b8e64"}},{"fullUrl":"https://madie.cms.gov/MeasureReport/3cfa1df9-144d-40d2-b2da-070853b2d082","resource":{"resourceType":"MeasureReport","id":"3cfa1df9-144d-40d2-b2da-070853b2d082","meta":{"profile":["http://hl7.org/fhir/us/cqfmeasures/StructureDefinition/test-case-cqfm"]},"contained":[{"resourceType":"Parameters","id":"b7e855f9-c9f2-46ee-999d-51995ce20d84-parameters","parameter":[{"name":"subject","valueString":"de5e2460-196e-4a0f-bb6a-988c39edadd6"}]}],"extension":[{"url":"http://hl7.org/fhir/us/cqfmeasures/StructureDefinition/cqfm-inputParameters","valueReference":{"reference":"#b7e855f9-c9f2-46ee-999d-51995ce20d84-parameters"}},{"url":"http://hl7.org/fhir/us/cqfmeasures/StructureDefinition/cqfm-testCaseDescription","valueMarkdown":"Patient is over 13 years old and has an encounter during the MP and has all three lab tests during the MP AFTER the encounter using relevantDatetime"}],"modifierExtension":[{"url":"http://hl7.org/fhir/us/cqfmeasures/StructureDefinition/cqfm-isTestCase","valueBoolean":true}],"status":"complete","type":"individual","measure":"https://madie.cms.gov/Measure/HIVSTITestingFHIR","period":{"start":"2025-01-01","end":"2025-12-31"},"group":[{"population":[{"code":{"coding":[{"system":"http://terminology.hl7.org/CodeSystem/measure-population","code":"initial-population","display":"Initial Population"}]},"count":1},{"code":{"coding":[{"system":"http://terminology.hl7.org/CodeSystem/measure-population","code":"denominator","display":"Denominator"}]},"count":1},{"code":{"coding":[{"system":"http://terminology.hl7.org/CodeSystem/measure-population","code":"numerator","display":"Numerator"}]},"count":1}]}]},"request":{"method":"PUT","url":"MeasureReport/3cfa1df9-144d-40d2-b2da-070853b2d082"}}]}