{"resourceType":"Bundle","id":"tests-71c8f6dc-592e-4675-8799-803d10991782-bundle","type":"transaction","entry":[{"fullUrl":"https://madie.cms.gov/Patient/71c8f6dc-592e-4675-8799-803d10991782","resource":{"resourceType":"Patient","id":"71c8f6dc-592e-4675-8799-803d10991782","meta":{"profile":["http://hl7.org/fhir/us/qicore/StructureDefinition/qicore-patient"]},"extension":[{"url":"http://hl7.org/fhir/us/core/StructureDefinition/us-core-race","extension":[{"url":"ombCategory","valueCoding":{"system":"urn:oid:2.16.840.1.113883.6.238","code":"2054-5","display":"Black or African American","userSelected":true}},{"url":"text","valueString":"Black or African American"}]},{"url":"http://hl7.org/fhir/us/core/StructureDefinition/us-core-ethnicity","extension":[{"url":"ombCategory","valueCoding":{"system":"urn:oid:2.16.840.1.113883.6.238","code":"2186-5","display":"Not Hispanic or Latino","userSelected":true}},{"url":"text","valueString":"Not Hispanic or Latino"}]}],"identifier":[{"type":{"coding":[{"system":"http://terminology.hl7.org/CodeSystem/v2-0203","code":"MR"}]},"system":"https://bonnie-fhir.healthit.gov/","value":"649324cbdb8e0b7f4765f16a"}],"name":[{"family":"IPFail","given":["Age13onJan2"]}],"gender":"female","birthDate":"2012-01-02"},"request":{"method":"PUT","url":"Patient/71c8f6dc-592e-4675-8799-803d10991782"}},{"fullUrl":"https://madie.cms.gov/Condition/hiv-f16b","resource":{"resourceType":"Condition","id":"cd29f457-b893-4a6f-9768-b5b857dac858","meta":{"profile":["http://hl7.org/fhir/us/qicore/StructureDefinition/qicore-condition"]},"category":[{"coding":[{"system":"http://terminology.hl7.org/CodeSystem/condition-category","code":"problem-list-item","display":"Problem List Item"}]}],"code":{"coding":[{"system":"http://snomed.info/sct","code":"165816005","userSelected":true},{"system":"http://hl7.org/fhir/sid/icd-9-cm","code":"042","userSelected":true}]},"subject":{"reference":"Patient/71c8f6dc-592e-4675-8799-803d10991782"},"onsetDateTime":"2017-09-28T08:00:00.000+00:00","recordedDate":"2017-09-28T08:00:00.000+00:00"},"request":{"method":"PUT","url":"Condition/cd29f457-b893-4a6f-9768-b5b857dac858"}},{"fullUrl":"https://madie.cms.gov/Encounter/preventive-care-established-office-visit-0-to-17-f16d","resource":{"resourceType":"Encounter","id":"0d942498-226b-49c4-b2ee-90d271d7f696","meta":{"profile":["http://hl7.org/fhir/us/qicore/StructureDefinition/qicore-encounter"]},"status":"finished","class":{"system":"http://terminology.hl7.org/CodeSystem/v3-ActCode","code":"AMB","display":"ambulatory"},"type":[{"coding":[{"system":"http://www.ama-assn.org/go/cpt","version":"2023","code":"99391","display":"Periodic comprehensive preventive medicine reevaluation and management of an individual including an age and gender appropriate history, examination, counseling/anticipatory guidance/risk factor reduction interventions, and the ordering of laboratory/diagnostic procedures, established patient; infant (age younger than 1 year)","userSelected":true}]}],"subject":{"reference":"Patient/71c8f6dc-592e-4675-8799-803d10991782"},"period":{"start":"2025-09-28T08:00:00.000+00:00","end":"2025-09-28T08:30:00.000+00:00"}},"request":{"method":"PUT","url":"Encounter/0d942498-226b-49c4-b2ee-90d271d7f696"}},{"fullUrl":"https://madie.cms.gov/Coverage/1","resource":{"resourceType":"Coverage","id":"ea93996c-920a-4d46-bb52-fe0232c76b1f","meta":{"profile":["http://hl7.org/fhir/us/qicore/StructureDefinition/qicore-coverage"]},"status":"active","beneficiary":{"reference":"Patient/71c8f6dc-592e-4675-8799-803d10991782"},"payor":[{"reference":"Organization/4da248b0-6e59-49b7-b80e-338aa21d299f"}]},"request":{"method":"PUT","url":"Coverage/ea93996c-920a-4d46-bb52-fe0232c76b1f"}},{"fullUrl":"https://madie.cms.gov/Organization/123456","resource":{"resourceType":"Organization","id":"4da248b0-6e59-49b7-b80e-338aa21d299f","meta":{"profile":["http://hl7.org/fhir/us/qicore/StructureDefinition/qicore-organization"]},"identifier":[{"use":"temp","system":"urn:oid:2.16.840.1.113883.4.4","value":"21-3259825"}],"active":true,"type":[{"coding":[{"system":"http://terminology.hl7.org/CodeSystem/organization-type","code":"pay","display":"Payer"}]}],"name":"Blue Cross Blue Shield of Texas","telecom":[{"system":"phone","value":"(+1) 972-766-6900"}],"address":[{"use":"billing","type":"postal","line":["P.O. Box 660044"],"city":"Dallas","state":"TX","postalCode":"75266-0044","country":"USA"}]},"request":{"method":"PUT","url":"Organization/4da248b0-6e59-49b7-b80e-338aa21d299f"}},{"fullUrl":"https://madie.cms.gov/Practitioner/practitioner-123456","resource":{"resourceType":"Practitioner","id":"28a3e467-f0cb-49fd-9798-5cf1790c5b51","meta":{"profile":["http://hl7.org/fhir/us/qicore/StructureDefinition/qicore-practitioner"]},"identifier":[{"system":"http://hl7.org/fhir/sid/us-npi","value":"123456"}],"name":[{"family":"Evil","prefix":["Dr"]}]},"request":{"method":"PUT","url":"Practitioner/28a3e467-f0cb-49fd-9798-5cf1790c5b51"}},{"fullUrl":"https://madie.cms.gov/MeasureReport/ca75aefe-f5d7-42ad-9d30-caa0c69f32fd","resource":{"resourceType":"MeasureReport","id":"ca75aefe-f5d7-42ad-9d30-caa0c69f32fd","meta":{"profile":["http://hl7.org/fhir/us/cqfmeasures/StructureDefinition/test-case-cqfm"]},"contained":[{"resourceType":"Parameters","id":"bb717ad7-deb0-41a2-a80f-15c5ee377843-parameters","parameter":[{"name":"subject","valueString":"71c8f6dc-592e-4675-8799-803d10991782"}]}],"extension":[{"url":"http://hl7.org/fhir/us/cqfmeasures/StructureDefinition/cqfm-inputParameters","valueReference":{"reference":"#bb717ad7-deb0-41a2-a80f-15c5ee377843-parameters"}},{"url":"http://hl7.org/fhir/us/cqfmeasures/StructureDefinition/cqfm-testCaseDescription","valueMarkdown":"Patient is 13 on Jan 2 of MP"}],"modifierExtension":[{"url":"http://hl7.org/fhir/us/cqfmeasures/StructureDefinition/cqfm-isTestCase","valueBoolean":true}],"status":"complete","type":"individual","measure":"https://madie.cms.gov/Measure/HIVSTITestingFHIR","period":{"start":"2025-01-01","end":"2025-12-31"},"group":[{"population":[{"code":{"coding":[{"system":"http://terminology.hl7.org/CodeSystem/measure-population","code":"initial-population","display":"Initial Population"}]},"count":0},{"code":{"coding":[{"system":"http://terminology.hl7.org/CodeSystem/measure-population","code":"denominator","display":"Denominator"}]},"count":0},{"code":{"coding":[{"system":"http://terminology.hl7.org/CodeSystem/measure-population","code":"numerator","display":"Numerator"}]},"count":0}]}]},"request":{"method":"PUT","url":"MeasureReport/ca75aefe-f5d7-42ad-9d30-caa0c69f32fd"}}]}