{"resourceType":"Bundle","id":"tests-3aa2678e-0a9c-4233-9634-daae7e0e31e9-bundle","type":"transaction","entry":[{"fullUrl":"https://madie.cms.gov/Patient/3aa2678e-0a9c-4233-9634-daae7e0e31e9","resource":{"resourceType":"Patient","id":"3aa2678e-0a9c-4233-9634-daae7e0e31e9","meta":{"profile":["http://hl7.org/fhir/us/qicore/StructureDefinition/qicore-patient"]},"extension":[{"url":"http://hl7.org/fhir/us/core/StructureDefinition/us-core-race","extension":[{"url":"ombCategory","valueCoding":{"system":"urn:oid:2.16.840.1.113883.6.238","code":"2054-5","display":"Black or African American","userSelected":true}},{"url":"text","valueString":"Black or African American"}]},{"url":"http://hl7.org/fhir/us/core/StructureDefinition/us-core-ethnicity","extension":[{"url":"ombCategory","valueCoding":{"system":"urn:oid:2.16.840.1.113883.6.238","code":"2186-5","display":"Not Hispanic or Latino","userSelected":true}},{"url":"text","valueString":"Not Hispanic or Latino"}]}],"identifier":[{"type":{"coding":[{"system":"http://terminology.hl7.org/CodeSystem/v2-0203","code":"MR"}]},"system":"https://bonnie-fhir.healthit.gov/","value":"64a2f1af41237ac3c42036b6"}],"name":[{"family":"NumPass","given":["AllLabTestsAfterEncReleventPeriod"]}],"gender":"unknown","birthDate":"2000-02-04"},"request":{"method":"PUT","url":"Patient/3aa2678e-0a9c-4233-9634-daae7e0e31e9"}},{"fullUrl":"https://madie.cms.gov/Condition/hiv-36b7","resource":{"resourceType":"Condition","id":"987a5bb5-7a2d-4cdb-887c-8a1e10ce9e87","meta":{"profile":["http://hl7.org/fhir/us/qicore/StructureDefinition/qicore-condition"]},"clinicalStatus":{"coding":[{"system":"http://terminology.hl7.org/CodeSystem/condition-clinical","code":"active","display":"active","userSelected":true}]},"category":[{"coding":[{"system":"http://terminology.hl7.org/CodeSystem/condition-category","code":"problem-list-item","display":"Problem List Item"}]}],"code":{"coding":[{"system":"http://hl7.org/fhir/sid/icd-9-cm","version":"2013","code":"042","display":"Human immunodeficiency virus [HIV] disease","userSelected":true},{"system":"http://snomed.info/sct","code":"165816005","userSelected":true}]},"subject":{"reference":"Patient/3aa2678e-0a9c-4233-9634-daae7e0e31e9"},"onsetDateTime":"2017-09-28T08:00:00.000+00:00","recordedDate":"2017-09-28T08:00:00.000+00:00"},"request":{"method":"PUT","url":"Condition/987a5bb5-7a2d-4cdb-887c-8a1e10ce9e87"}},{"fullUrl":"https://madie.cms.gov/Encounter/preventive-care-established-office-visit-0-to-17-36b8","resource":{"resourceType":"Encounter","id":"4181c9ad-c05c-4fa9-a388-1227dad1b919","meta":{"profile":["http://hl7.org/fhir/us/qicore/StructureDefinition/qicore-encounter"]},"status":"finished","class":{"system":"http://terminology.hl7.org/CodeSystem/v3-ActCode","code":"AMB","display":"ambulatory"},"type":[{"coding":[{"system":"http://www.ama-assn.org/go/cpt","version":"2023","code":"99391","display":"Periodic comprehensive preventive medicine reevaluation and management of an individual including an age and gender appropriate history, examination, counseling/anticipatory guidance/risk factor reduction interventions, and the ordering of laboratory/diagnostic procedures, established patient; infant (age younger than 1 year)","userSelected":true}]}],"subject":{"reference":"Patient/3aa2678e-0a9c-4233-9634-daae7e0e31e9"},"period":{"start":"2025-09-29T08:00:00.000+00:00","end":"2025-09-29T08:30:00.000+00:00"}},"request":{"method":"PUT","url":"Encounter/4181c9ad-c05c-4fa9-a388-1227dad1b919"}},{"fullUrl":"https://madie.cms.gov/Observation/syphilis-tests-36b9","resource":{"resourceType":"Observation","id":"c4ac59d7-2cfc-4d21-a1cb-7dace4ba23eb","meta":{"profile":["http://hl7.org/fhir/us/qicore/StructureDefinition/qicore-observation"]},"status":"final","category":[{"coding":[{"system":"http://terminology.hl7.org/CodeSystem/observation-category"}]}],"code":{"coding":[{"system":"http://loinc.org","version":"2.73","code":"11084-1","display":"Reagin Ab [Titer] in Serum","userSelected":true}]},"subject":{"reference":"Patient/3aa2678e-0a9c-4233-9634-daae7e0e31e9"},"effectivePeriod":{"start":"2025-09-30T08:00:00.000+00:00","end":"2025-09-30T08:15:00.000+00:00"},"issued":"2025-09-30T08:00:00.000+00:00","valueQuantity":{"value":12.3}},"request":{"method":"PUT","url":"Observation/c4ac59d7-2cfc-4d21-a1cb-7dace4ba23eb"}},{"fullUrl":"https://madie.cms.gov/Observation/chlamydia-screening-36ba","resource":{"resourceType":"Observation","id":"b592c7d8-1c6d-4322-874d-7874a4867a66","meta":{"profile":["http://hl7.org/fhir/us/qicore/StructureDefinition/qicore-observation"]},"status":"final","category":[{"coding":[{"system":"http://terminology.hl7.org/CodeSystem/observation-category"}]}],"code":{"coding":[{"system":"http://loinc.org","version":"2.73","code":"14463-4","display":"Chlamydia trachomatis [Presence] in Cervix by Organism specific culture","userSelected":true}]},"subject":{"reference":"Patient/3aa2678e-0a9c-4233-9634-daae7e0e31e9"},"effectivePeriod":{"start":"2025-09-30T08:00:00.000+00:00","end":"2025-09-30T08:15:00.000+00:00"},"issued":"2025-09-30T08:00:00.000+00:00","valueQuantity":{"value":16}},"request":{"method":"PUT","url":"Observation/b592c7d8-1c6d-4322-874d-7874a4867a66"}},{"fullUrl":"https://madie.cms.gov/Observation/gonorrhea-screening-36bb","resource":{"resourceType":"Observation","id":"e03ac481-8e18-44f9-8d66-1c86545d1a36","meta":{"profile":["http://hl7.org/fhir/us/qicore/StructureDefinition/qicore-observation"]},"status":"final","category":[{"coding":[{"system":"http://terminology.hl7.org/CodeSystem/observation-category"}]}],"code":{"coding":[{"system":"http://loinc.org","version":"2.73","code":"21415-5","display":"Neisseria gonorrhoeae DNA [Presence] in Cervical mucus by NAA with probe detection","userSelected":true}]},"subject":{"reference":"Patient/3aa2678e-0a9c-4233-9634-daae7e0e31e9"},"effectivePeriod":{"start":"2025-09-30T08:00:00.000+00:00","end":"2025-09-30T08:15:00.000+00:00"},"issued":"2025-09-30T08:00:00.000+00:00","valueQuantity":{"value":14}},"request":{"method":"PUT","url":"Observation/e03ac481-8e18-44f9-8d66-1c86545d1a36"}},{"fullUrl":"https://madie.cms.gov/Coverage/1","resource":{"resourceType":"Coverage","id":"0cf5288d-c8af-46ef-8573-adbffe902e37","meta":{"profile":["http://hl7.org/fhir/us/qicore/StructureDefinition/qicore-coverage"]},"status":"active","beneficiary":{"reference":"Patient/3aa2678e-0a9c-4233-9634-daae7e0e31e9"},"payor":[{"reference":"Organization/890316dc-a4ad-43b4-ba6f-9fb9e6eca282"}]},"request":{"method":"PUT","url":"Coverage/0cf5288d-c8af-46ef-8573-adbffe902e37"}},{"fullUrl":"https://madie.cms.gov/Organization/123456","resource":{"resourceType":"Organization","id":"890316dc-a4ad-43b4-ba6f-9fb9e6eca282","meta":{"profile":["http://hl7.org/fhir/us/qicore/StructureDefinition/qicore-organization"]},"identifier":[{"use":"temp","system":"urn:oid:2.16.840.1.113883.4.4","value":"21-3259825"}],"active":true,"type":[{"coding":[{"system":"http://terminology.hl7.org/CodeSystem/organization-type","code":"pay","display":"Payer"}]}],"name":"Blue Cross Blue Shield of Texas","telecom":[{"system":"phone","value":"(+1) 972-766-6900"}],"address":[{"use":"billing","type":"postal","line":["P.O. Box 660044"],"city":"Dallas","state":"TX","postalCode":"75266-0044","country":"USA"}]},"request":{"method":"PUT","url":"Organization/890316dc-a4ad-43b4-ba6f-9fb9e6eca282"}},{"fullUrl":"https://madie.cms.gov/Practitioner/practitioner-123456","resource":{"resourceType":"Practitioner","id":"ddfc0cab-944d-4c06-99fb-95fc7ece914f","meta":{"profile":["http://hl7.org/fhir/us/qicore/StructureDefinition/qicore-practitioner"]},"identifier":[{"system":"http://hl7.org/fhir/sid/us-npi","value":"123456"}],"name":[{"family":"Evil","prefix":["Dr"]}]},"request":{"method":"PUT","url":"Practitioner/ddfc0cab-944d-4c06-99fb-95fc7ece914f"}},{"fullUrl":"https://madie.cms.gov/MeasureReport/ae9c8538-a3c7-48a8-a959-d1739b33647b","resource":{"resourceType":"MeasureReport","id":"ae9c8538-a3c7-48a8-a959-d1739b33647b","meta":{"profile":["http://hl7.org/fhir/us/cqfmeasures/StructureDefinition/test-case-cqfm"]},"contained":[{"resourceType":"Parameters","id":"09ab043b-bad3-42ae-bbf8-c09f37105449-parameters","parameter":[{"name":"subject","valueString":"3aa2678e-0a9c-4233-9634-daae7e0e31e9"}]}],"extension":[{"url":"http://hl7.org/fhir/us/cqfmeasures/StructureDefinition/cqfm-inputParameters","valueReference":{"reference":"#09ab043b-bad3-42ae-bbf8-c09f37105449-parameters"}},{"url":"http://hl7.org/fhir/us/cqfmeasures/StructureDefinition/cqfm-testCaseDescription","valueMarkdown":"Patient is over 13 years old and has an encounter during the MP and has all three lab tests during the MP AFTER the encounter"}],"modifierExtension":[{"url":"http://hl7.org/fhir/us/cqfmeasures/StructureDefinition/cqfm-isTestCase","valueBoolean":true}],"status":"complete","type":"individual","measure":"https://madie.cms.gov/Measure/HIVSTITestingFHIR","period":{"start":"2025-01-01","end":"2025-12-31"},"group":[{"population":[{"code":{"coding":[{"system":"http://terminology.hl7.org/CodeSystem/measure-population","code":"initial-population","display":"Initial Population"}]},"count":1},{"code":{"coding":[{"system":"http://terminology.hl7.org/CodeSystem/measure-population","code":"denominator","display":"Denominator"}]},"count":1},{"code":{"coding":[{"system":"http://terminology.hl7.org/CodeSystem/measure-population","code":"numerator","display":"Numerator"}]},"count":1}]}]},"request":{"method":"PUT","url":"MeasureReport/ae9c8538-a3c7-48a8-a959-d1739b33647b"}}]}