{"resourceType":"Bundle","id":"tests-9947d6a4-aff5-49ab-8a01-c3c438a7faa2-bundle","type":"transaction","entry":[{"fullUrl":"https://madie.cms.gov/Patient/9947d6a4-aff5-49ab-8a01-c3c438a7faa2","resource":{"resourceType":"Patient","id":"9947d6a4-aff5-49ab-8a01-c3c438a7faa2","meta":{"profile":["http://hl7.org/fhir/us/qicore/StructureDefinition/qicore-patient"]},"extension":[{"url":"http://hl7.org/fhir/us/core/StructureDefinition/us-core-race","extension":[{"url":"ombCategory","valueCoding":{"system":"urn:oid:2.16.840.1.113883.6.238","code":"2054-5","display":"Black or African American","userSelected":true}},{"url":"text","valueString":"Black or African American"}]},{"url":"http://hl7.org/fhir/us/core/StructureDefinition/us-core-ethnicity","extension":[{"url":"ombCategory","valueCoding":{"system":"urn:oid:2.16.840.1.113883.6.238","code":"2186-5","display":"Not Hispanic or Latino","userSelected":true}},{"url":"text","valueString":"Not Hispanic or Latino"}]}],"identifier":[{"type":{"coding":[{"system":"http://terminology.hl7.org/CodeSystem/v2-0203","code":"MR"}]},"system":"https://bonnie-fhir.healthit.gov/","value":"649607f98111d47e2b91f021"}],"name":[{"family":"NumPass","given":["AllLabTestsBeforeEncAndBooleanValue"]}],"gender":"female","birthDate":"2000-02-04"},"request":{"method":"PUT","url":"Patient/9947d6a4-aff5-49ab-8a01-c3c438a7faa2"}},{"fullUrl":"https://madie.cms.gov/Condition/hiv-f16f","resource":{"resourceType":"Condition","id":"a35beed9-a928-49e8-9030-e831c3e70073","meta":{"profile":["http://hl7.org/fhir/us/qicore/StructureDefinition/qicore-condition"]},"clinicalStatus":{"coding":[{"system":"http://terminology.hl7.org/CodeSystem/condition-clinical","code":"active","display":"active","userSelected":true}]},"category":[{"coding":[{"system":"http://terminology.hl7.org/CodeSystem/condition-category","code":"problem-list-item","display":"Problem List Item"}]}],"code":{"coding":[{"system":"http://hl7.org/fhir/sid/icd-9-cm","version":"2013","code":"042","display":"Human immunodeficiency virus [HIV] disease","userSelected":true},{"system":"http://snomed.info/sct","code":"165816005","userSelected":true}]},"subject":{"reference":"Patient/9947d6a4-aff5-49ab-8a01-c3c438a7faa2"},"onsetDateTime":"2017-09-28T08:00:00.000+00:00","recordedDate":"2017-09-28T08:00:00.000+00:00"},"request":{"method":"PUT","url":"Condition/a35beed9-a928-49e8-9030-e831c3e70073"}},{"fullUrl":"https://madie.cms.gov/Encounter/preventive-care-established-office-visit-0-to-17-ad07","resource":{"resourceType":"Encounter","id":"3e7362b1-fcf2-4365-953b-017957418629","meta":{"profile":["http://hl7.org/fhir/us/qicore/StructureDefinition/qicore-encounter"]},"status":"finished","class":{"system":"http://terminology.hl7.org/CodeSystem/v3-ActCode","code":"AMB","display":"ambulatory"},"type":[{"coding":[{"system":"http://www.ama-assn.org/go/cpt","version":"2023","code":"99391","display":"Periodic comprehensive preventive medicine reevaluation and management of an individual including an age and gender appropriate history, examination, counseling/anticipatory guidance/risk factor reduction interventions, and the ordering of laboratory/diagnostic procedures, established patient; infant (age younger than 1 year)","userSelected":true}]}],"subject":{"reference":"Patient/9947d6a4-aff5-49ab-8a01-c3c438a7faa2"},"period":{"start":"2025-09-29T08:00:00.000+00:00","end":"2025-09-29T08:30:00.000+00:00"}},"request":{"method":"PUT","url":"Encounter/3e7362b1-fcf2-4365-953b-017957418629"}},{"fullUrl":"https://madie.cms.gov/Observation/chlamydia-screening-ad08","resource":{"resourceType":"Observation","id":"76b29377-9ccb-45cf-93c3-e52324e93263","meta":{"profile":["http://hl7.org/fhir/us/qicore/StructureDefinition/qicore-observation"]},"status":"final","category":[{"coding":[{"system":"http://terminology.hl7.org/CodeSystem/observation-category"}]}],"code":{"coding":[{"system":"http://loinc.org","version":"2.73","code":"14463-4","display":"Chlamydia trachomatis [Presence] in Cervix by Organism specific culture","userSelected":true}]},"subject":{"reference":"Patient/9947d6a4-aff5-49ab-8a01-c3c438a7faa2"},"effectivePeriod":{"start":"2025-08-30T08:00:00.000+00:00","end":"2025-08-30T08:16:00.000+00:00"},"issued":"2025-08-30T08:00:00.000+00:00","valueQuantity":{"value":16}},"request":{"method":"PUT","url":"Observation/76b29377-9ccb-45cf-93c3-e52324e93263"}},{"fullUrl":"https://madie.cms.gov/Observation/gonorrhea-screening-ad09","resource":{"resourceType":"Observation","id":"ac80cd7f-8100-4ab9-bfd8-5c98fd387609","meta":{"profile":["http://hl7.org/fhir/us/qicore/StructureDefinition/qicore-observation"]},"status":"final","category":[{"coding":[{"system":"http://terminology.hl7.org/CodeSystem/observation-category"}]}],"code":{"coding":[{"system":"http://loinc.org","version":"2.73","code":"21415-5","display":"Neisseria gonorrhoeae DNA [Presence] in Cervical mucus by NAA with probe detection","userSelected":true}]},"subject":{"reference":"Patient/9947d6a4-aff5-49ab-8a01-c3c438a7faa2"},"effectivePeriod":{"start":"2025-08-30T08:00:00.000+00:00","end":"2025-08-30T08:15:00.000+00:00"},"issued":"2025-08-30T08:00:00.000+00:00","valueQuantity":{"value":19}},"request":{"method":"PUT","url":"Observation/ac80cd7f-8100-4ab9-bfd8-5c98fd387609"}},{"fullUrl":"https://madie.cms.gov/Observation/syphilis-tests-ad0a","resource":{"resourceType":"Observation","id":"c3adaea5-ceb9-400f-8122-edf59c809d9e","meta":{"profile":["http://hl7.org/fhir/us/qicore/StructureDefinition/qicore-observation"]},"status":"final","category":[{"coding":[{"system":"http://terminology.hl7.org/CodeSystem/observation-category"}]}],"code":{"coding":[{"system":"http://loinc.org","version":"2.73","code":"11084-1","display":"Reagin Ab [Titer] in Serum","userSelected":true}]},"subject":{"reference":"Patient/9947d6a4-aff5-49ab-8a01-c3c438a7faa2"},"effectivePeriod":{"start":"2025-08-30T08:00:00.000+00:00","end":"2025-08-30T08:15:00.000+00:00"},"issued":"2025-08-30T08:00:00.000+00:00","valueBoolean":true},"request":{"method":"PUT","url":"Observation/c3adaea5-ceb9-400f-8122-edf59c809d9e"}},{"fullUrl":"https://madie.cms.gov/Coverage/1","resource":{"resourceType":"Coverage","id":"00bff428-0b31-4ffc-8461-e3163ed06bac","meta":{"profile":["http://hl7.org/fhir/us/qicore/StructureDefinition/qicore-coverage"]},"status":"active","beneficiary":{"reference":"Patient/9947d6a4-aff5-49ab-8a01-c3c438a7faa2"},"payor":[{"reference":"Organization/024e2731-b045-43bf-80d2-684774c5b51c"}]},"request":{"method":"PUT","url":"Coverage/00bff428-0b31-4ffc-8461-e3163ed06bac"}},{"fullUrl":"https://madie.cms.gov/Organization/123456","resource":{"resourceType":"Organization","id":"024e2731-b045-43bf-80d2-684774c5b51c","meta":{"profile":["http://hl7.org/fhir/us/qicore/StructureDefinition/qicore-organization"]},"identifier":[{"use":"temp","system":"urn:oid:2.16.840.1.113883.4.4","value":"21-3259825"}],"active":true,"type":[{"coding":[{"system":"http://terminology.hl7.org/CodeSystem/organization-type","code":"pay","display":"Payer"}]}],"name":"Blue Cross Blue Shield of Texas","telecom":[{"system":"phone","value":"(+1) 972-766-6900"}],"address":[{"use":"billing","type":"postal","line":["P.O. Box 660044"],"city":"Dallas","state":"TX","postalCode":"75266-0044","country":"USA"}]},"request":{"method":"PUT","url":"Organization/024e2731-b045-43bf-80d2-684774c5b51c"}},{"fullUrl":"https://madie.cms.gov/Practitioner/practitioner-123456","resource":{"resourceType":"Practitioner","id":"3886539e-7440-4f8b-a850-e0042552633e","meta":{"profile":["http://hl7.org/fhir/us/qicore/StructureDefinition/qicore-practitioner"]},"identifier":[{"system":"http://hl7.org/fhir/sid/us-npi","value":"123456"}],"name":[{"family":"Evil","prefix":["Dr"]}]},"request":{"method":"PUT","url":"Practitioner/3886539e-7440-4f8b-a850-e0042552633e"}},{"fullUrl":"https://madie.cms.gov/MeasureReport/81e591a4-c041-4a2d-86d2-138bde14b072","resource":{"resourceType":"MeasureReport","id":"81e591a4-c041-4a2d-86d2-138bde14b072","meta":{"profile":["http://hl7.org/fhir/us/cqfmeasures/StructureDefinition/test-case-cqfm"]},"contained":[{"resourceType":"Parameters","id":"abaf48e8-911d-45c3-83e6-e8c5126fb9a8-parameters","parameter":[{"name":"subject","valueString":"9947d6a4-aff5-49ab-8a01-c3c438a7faa2"}]}],"extension":[{"url":"http://hl7.org/fhir/us/cqfmeasures/StructureDefinition/cqfm-inputParameters","valueReference":{"reference":"#abaf48e8-911d-45c3-83e6-e8c5126fb9a8-parameters"}},{"url":"http://hl7.org/fhir/us/cqfmeasures/StructureDefinition/cqfm-testCaseDescription","valueMarkdown":"Patient is over 13 years old and has an encounter during the MP and has all three lab tests during the MP BEFORE  the encounter and lab result of Boolean Value true"}],"modifierExtension":[{"url":"http://hl7.org/fhir/us/cqfmeasures/StructureDefinition/cqfm-isTestCase","valueBoolean":true}],"status":"complete","type":"individual","measure":"https://madie.cms.gov/Measure/HIVSTITestingFHIR","period":{"start":"2025-01-01","end":"2025-12-31"},"group":[{"population":[{"code":{"coding":[{"system":"http://terminology.hl7.org/CodeSystem/measure-population","code":"initial-population","display":"Initial Population"}]},"count":1},{"code":{"coding":[{"system":"http://terminology.hl7.org/CodeSystem/measure-population","code":"denominator","display":"Denominator"}]},"count":1},{"code":{"coding":[{"system":"http://terminology.hl7.org/CodeSystem/measure-population","code":"numerator","display":"Numerator"}]},"count":1}]}]},"request":{"method":"PUT","url":"MeasureReport/81e591a4-c041-4a2d-86d2-138bde14b072"}}]}