{"resourceType":"Bundle","id":"tests-74ac3135-a328-4695-93aa-17368142976f-bundle","type":"transaction","entry":[{"fullUrl":"https://madie.cms.gov/Patient/74ac3135-a328-4695-93aa-17368142976f","resource":{"resourceType":"Patient","id":"74ac3135-a328-4695-93aa-17368142976f","meta":{"profile":["http://hl7.org/fhir/us/qicore/StructureDefinition/qicore-patient"]},"extension":[{"url":"http://hl7.org/fhir/us/core/StructureDefinition/us-core-race","extension":[{"url":"ombCategory","valueCoding":{"system":"urn:oid:2.16.840.1.113883.6.238","code":"2028-9","display":"Asian","userSelected":true}},{"url":"text","valueString":"Asian"}]},{"url":"http://hl7.org/fhir/us/core/StructureDefinition/us-core-ethnicity","extension":[{"url":"ombCategory","valueCoding":{"system":"urn:oid:2.16.840.1.113883.6.238","code":"2135-2","display":"Hispanic or Latino","userSelected":true}},{"url":"text","valueString":"Hispanic or Latino"}]}],"identifier":[{"type":{"coding":[{"system":"http://terminology.hl7.org/CodeSystem/v2-0203","code":"MR"}]},"system":"https://bonnie-fhir.healthit.gov/","value":"64a30614a6e663d06065269f"}],"name":[{"family":"NumPass","given":["MultipleOfAllLabTestsDuringMP"]}],"gender":"male","birthDate":"2000-02-04"},"request":{"method":"PUT","url":"Patient/74ac3135-a328-4695-93aa-17368142976f"}},{"fullUrl":"https://madie.cms.gov/Condition/hiv-26a0","resource":{"resourceType":"Condition","id":"a6366c56-491e-402e-834e-83ed3619d084","meta":{"profile":["http://hl7.org/fhir/us/qicore/StructureDefinition/qicore-condition"]},"clinicalStatus":{"coding":[{"system":"http://terminology.hl7.org/CodeSystem/condition-clinical","code":"active","display":"active","userSelected":true}]},"category":[{"coding":[{"system":"http://terminology.hl7.org/CodeSystem/condition-category","code":"problem-list-item","display":"Problem List Item"}]}],"code":{"coding":[{"system":"http://hl7.org/fhir/sid/icd-9-cm","version":"2013","code":"042","display":"Human immunodeficiency virus [HIV] disease","userSelected":true},{"system":"http://snomed.info/sct","code":"165816005","userSelected":true}]},"subject":{"reference":"Patient/74ac3135-a328-4695-93aa-17368142976f"},"onsetDateTime":"2017-09-28T08:00:00.000+00:00","recordedDate":"2017-09-28T08:00:00.000+00:00"},"request":{"method":"PUT","url":"Condition/a6366c56-491e-402e-834e-83ed3619d084"}},{"fullUrl":"https://madie.cms.gov/Encounter/preventive-care-established-office-visit-0-to-17-26a1","resource":{"resourceType":"Encounter","id":"26493ce2-34a0-4800-bf64-cfb5a5597851","meta":{"profile":["http://hl7.org/fhir/us/qicore/StructureDefinition/qicore-encounter"]},"status":"finished","class":{"system":"http://terminology.hl7.org/CodeSystem/v3-ActCode","code":"AMB","display":"ambulatory"},"type":[{"coding":[{"system":"http://www.ama-assn.org/go/cpt","version":"2023","code":"99391","display":"Periodic comprehensive preventive medicine reevaluation and management of an individual including an age and gender appropriate history, examination, counseling/anticipatory guidance/risk factor reduction interventions, and the ordering of laboratory/diagnostic procedures, established patient; infant (age younger than 1 year)","userSelected":true}]}],"subject":{"reference":"Patient/74ac3135-a328-4695-93aa-17368142976f"},"period":{"start":"2025-09-29T08:00:00.000+00:00","end":"2025-09-29T08:30:00.000+00:00"}},"request":{"method":"PUT","url":"Encounter/26493ce2-34a0-4800-bf64-cfb5a5597851"}},{"fullUrl":"https://madie.cms.gov/Observation/syphilis-tests-26a2","resource":{"resourceType":"Observation","id":"430133a5-4330-41f2-85e9-f350a61aec13","meta":{"profile":["http://hl7.org/fhir/us/qicore/StructureDefinition/qicore-observation"]},"status":"final","category":[{"coding":[{"system":"http://terminology.hl7.org/CodeSystem/observation-category"}]}],"code":{"coding":[{"system":"http://loinc.org","version":"2.73","code":"11084-1","display":"Reagin Ab [Titer] in Serum","userSelected":true}]},"subject":{"reference":"Patient/74ac3135-a328-4695-93aa-17368142976f"},"effectivePeriod":{"start":"2025-08-30T08:00:00.000+00:00","end":"2025-08-30T08:15:00.000+00:00"},"issued":"2025-08-30T08:00:00.000+00:00","valueQuantity":{"value":12.3}},"request":{"method":"PUT","url":"Observation/430133a5-4330-41f2-85e9-f350a61aec13"}},{"fullUrl":"https://madie.cms.gov/Observation/gonorrhea-screening-26a3","resource":{"resourceType":"Observation","id":"c32dc542-05ff-46d4-a4cb-2b37a83060aa","meta":{"profile":["http://hl7.org/fhir/us/qicore/StructureDefinition/qicore-observation"]},"status":"final","category":[{"coding":[{"system":"http://terminology.hl7.org/CodeSystem/observation-category"}]}],"code":{"coding":[{"system":"http://loinc.org","version":"2.73","code":"21414-8","display":"Neisseria gonorrhoeae DNA [Presence] in Cervical mucus by NAA with probe detection","userSelected":true}]},"subject":{"reference":"Patient/74ac3135-a328-4695-93aa-17368142976f"},"effectivePeriod":{"start":"2025-08-30T08:00:00.000+00:00","end":"2025-08-30T08:15:00.000+00:00"},"issued":"2025-08-30T08:00:00.000+00:00","valueQuantity":{"value":15}},"request":{"method":"PUT","url":"Observation/c32dc542-05ff-46d4-a4cb-2b37a83060aa"}},{"fullUrl":"https://madie.cms.gov/Observation/chlamydia-screening-26a4","resource":{"resourceType":"Observation","id":"117b81b3-6a04-4e2f-a151-734a03c116a8","meta":{"profile":["http://hl7.org/fhir/us/qicore/StructureDefinition/qicore-observation"]},"status":"final","category":[{"coding":[{"system":"http://terminology.hl7.org/CodeSystem/observation-category"}]}],"code":{"coding":[{"system":"http://loinc.org","version":"2.73","code":"14463-4","display":"Chlamydia trachomatis [Presence] in Cervix by Organism specific culture","userSelected":true}]},"subject":{"reference":"Patient/74ac3135-a328-4695-93aa-17368142976f"},"effectivePeriod":{"start":"2025-08-30T08:00:00.000+00:00","end":"2025-08-30T08:15:00.000+00:00"},"issued":"2025-08-30T08:00:00.000+00:00","valueQuantity":{"value":16}},"request":{"method":"PUT","url":"Observation/117b81b3-6a04-4e2f-a151-734a03c116a8"}},{"fullUrl":"https://madie.cms.gov/Observation/syphilis-tests-26a5","resource":{"resourceType":"Observation","id":"5b4af076-3ef7-4662-b9d5-49c7fde86d30","meta":{"profile":["http://hl7.org/fhir/us/qicore/StructureDefinition/qicore-observation"]},"status":"final","category":[{"coding":[{"system":"http://terminology.hl7.org/CodeSystem/observation-category"}]}],"code":{"coding":[{"system":"http://loinc.org","code":"22590-4","userSelected":true}]},"subject":{"reference":"Patient/74ac3135-a328-4695-93aa-17368142976f"},"effectiveDateTime":"2025-03-06T08:45:00.000+00:00","issued":"2025-03-06T08:45:00.000+00:00","valueQuantity":{"value":19}},"request":{"method":"PUT","url":"Observation/5b4af076-3ef7-4662-b9d5-49c7fde86d30"}},{"fullUrl":"https://madie.cms.gov/Observation/gonorrhea-screening-26a6","resource":{"resourceType":"Observation","id":"a6d441f9-9435-478e-91c8-27042a68b902","meta":{"profile":["http://hl7.org/fhir/us/qicore/StructureDefinition/qicore-observation"]},"status":"final","category":[{"coding":[{"system":"http://terminology.hl7.org/CodeSystem/observation-category"}]}],"code":{"coding":[{"system":"http://loinc.org","version":"2.73","code":"21415-5","display":"Neisseria gonorrhoeae DNA [Presence] in Cervical mucus by NAA with probe detection","userSelected":true}]},"subject":{"reference":"Patient/74ac3135-a328-4695-93aa-17368142976f"},"effectiveDateTime":"2025-03-06T08:47:00.000+00:00","issued":"2025-03-06T08:47:00.000+00:00","valueQuantity":{"value":19}},"request":{"method":"PUT","url":"Observation/a6d441f9-9435-478e-91c8-27042a68b902"}},{"fullUrl":"https://madie.cms.gov/Observation/chlamydia-screening-26a7","resource":{"resourceType":"Observation","id":"ccedaa17-3c4f-45a4-aa33-6ac359676382","meta":{"profile":["http://hl7.org/fhir/us/qicore/StructureDefinition/qicore-observation"]},"status":"final","category":[{"coding":[{"system":"http://terminology.hl7.org/CodeSystem/observation-category"}]}],"code":{"coding":[{"system":"http://loinc.org","code":"34710-4","userSelected":true}]},"subject":{"reference":"Patient/74ac3135-a328-4695-93aa-17368142976f"},"effectiveDateTime":"2025-03-06T08:48:00.000+00:00","issued":"2025-03-06T08:48:00.000+00:00","valueQuantity":{"value":19}},"request":{"method":"PUT","url":"Observation/ccedaa17-3c4f-45a4-aa33-6ac359676382"}},{"fullUrl":"https://madie.cms.gov/Coverage/1","resource":{"resourceType":"Coverage","id":"c2734ee5-f0b3-4965-8719-9c8f7d3f644a","meta":{"profile":["http://hl7.org/fhir/us/qicore/StructureDefinition/qicore-coverage"]},"status":"active","beneficiary":{"reference":"Patient/74ac3135-a328-4695-93aa-17368142976f"},"payor":[{"reference":"Organization/607fdef9-3983-4cef-ab1a-95434d29b463"}]},"request":{"method":"PUT","url":"Coverage/c2734ee5-f0b3-4965-8719-9c8f7d3f644a"}},{"fullUrl":"https://madie.cms.gov/Organization/123456","resource":{"resourceType":"Organization","id":"607fdef9-3983-4cef-ab1a-95434d29b463","meta":{"profile":["http://hl7.org/fhir/us/qicore/StructureDefinition/qicore-organization"]},"identifier":[{"use":"temp","system":"urn:oid:2.16.840.1.113883.4.4","value":"21-3259825"}],"active":true,"type":[{"coding":[{"system":"http://terminology.hl7.org/CodeSystem/organization-type","code":"pay","display":"Payer"}]}],"name":"Blue Cross Blue Shield of Texas","telecom":[{"system":"phone","value":"(+1) 972-766-6900"}],"address":[{"use":"billing","type":"postal","line":["P.O. Box 660044"],"city":"Dallas","state":"TX","postalCode":"75266-0044","country":"USA"}]},"request":{"method":"PUT","url":"Organization/607fdef9-3983-4cef-ab1a-95434d29b463"}},{"fullUrl":"https://madie.cms.gov/Practitioner/practitioner-123456","resource":{"resourceType":"Practitioner","id":"4da4b44e-9b08-4720-811f-3cbfe6f28156","meta":{"profile":["http://hl7.org/fhir/us/qicore/StructureDefinition/qicore-practitioner"]},"identifier":[{"system":"http://hl7.org/fhir/sid/us-npi","value":"123456"}],"name":[{"family":"Evil","prefix":["Dr"]}]},"request":{"method":"PUT","url":"Practitioner/4da4b44e-9b08-4720-811f-3cbfe6f28156"}},{"fullUrl":"https://madie.cms.gov/MeasureReport/a087fc0a-f554-4cc0-a0b6-01b2df56b711","resource":{"resourceType":"MeasureReport","id":"a087fc0a-f554-4cc0-a0b6-01b2df56b711","meta":{"profile":["http://hl7.org/fhir/us/cqfmeasures/StructureDefinition/test-case-cqfm"]},"contained":[{"resourceType":"Parameters","id":"4dd18866-05f6-417c-9431-c6774db0da58-parameters","parameter":[{"name":"subject","valueString":"74ac3135-a328-4695-93aa-17368142976f"}]}],"extension":[{"url":"http://hl7.org/fhir/us/cqfmeasures/StructureDefinition/cqfm-inputParameters","valueReference":{"reference":"#4dd18866-05f6-417c-9431-c6774db0da58-parameters"}},{"url":"http://hl7.org/fhir/us/cqfmeasures/StructureDefinition/cqfm-testCaseDescription","valueMarkdown":"Patient is over 13 years old and has an encounter during the MP and has all three lab tests performed multiple times during the MP "}],"modifierExtension":[{"url":"http://hl7.org/fhir/us/cqfmeasures/StructureDefinition/cqfm-isTestCase","valueBoolean":true}],"status":"complete","type":"individual","measure":"https://madie.cms.gov/Measure/HIVSTITestingFHIR","period":{"start":"2025-01-01","end":"2025-12-31"},"group":[{"population":[{"code":{"coding":[{"system":"http://terminology.hl7.org/CodeSystem/measure-population","code":"initial-population","display":"Initial Population"}]},"count":1},{"code":{"coding":[{"system":"http://terminology.hl7.org/CodeSystem/measure-population","code":"denominator","display":"Denominator"}]},"count":1},{"code":{"coding":[{"system":"http://terminology.hl7.org/CodeSystem/measure-population","code":"numerator","display":"Numerator"}]},"count":1}]}]},"request":{"method":"PUT","url":"MeasureReport/a087fc0a-f554-4cc0-a0b6-01b2df56b711"}}]}