{"resourceType":"Bundle","id":"tests-3aa2678e-0a9c-4233-9634-daae7e0e31e9-bundle","type":"transaction","entry":[{"fullUrl":"https://madie.cms.gov/Patient/3aa2678e-0a9c-4233-9634-daae7e0e31e9","resource":{"resourceType":"Patient","id":"3aa2678e-0a9c-4233-9634-daae7e0e31e9","meta":{"profile":["http://hl7.org/fhir/us/qicore/StructureDefinition/qicore-patient"]},"extension":[{"url":"http://hl7.org/fhir/us/core/StructureDefinition/us-core-race","extension":[{"url":"ombCategory","valueCoding":{"system":"urn:oid:2.16.840.1.113883.6.238","code":"2054-5","display":"Black or African American","userSelected":true}},{"url":"text","valueString":"Black or African American"}]},{"url":"http://hl7.org/fhir/us/core/StructureDefinition/us-core-ethnicity","extension":[{"url":"ombCategory","valueCoding":{"system":"urn:oid:2.16.840.1.113883.6.238","code":"2186-5","display":"Not Hispanic or Latino","userSelected":true}},{"url":"text","valueString":"Not Hispanic or Latino"}]}],"identifier":[{"type":{"coding":[{"system":"http://terminology.hl7.org/CodeSystem/v2-0203","code":"MR"}]},"system":"https://bonnie-fhir.healthit.gov/","value":"64a2f1af41237ac3c42036b6"}],"name":[{"family":"NumPass","given":["AllLabTestsAfterEncReleventPeriod"]}],"gender":"unknown","birthDate":"2000-02-04"},"request":{"method":"PUT","url":"Patient/3aa2678e-0a9c-4233-9634-daae7e0e31e9"}},{"fullUrl":"https://madie.cms.gov/Condition/hiv-36b7","resource":{"resourceType":"Condition","id":"1e9b1348-ee07-4d53-b086-7067306e430c","meta":{"profile":["http://hl7.org/fhir/us/qicore/StructureDefinition/qicore-condition"]},"clinicalStatus":{"coding":[{"system":"http://terminology.hl7.org/CodeSystem/condition-clinical","code":"active","display":"active","userSelected":true}]},"category":[{"coding":[{"system":"http://terminology.hl7.org/CodeSystem/condition-category","code":"problem-list-item","display":"Problem List Item"}]}],"code":{"coding":[{"system":"http://hl7.org/fhir/sid/icd-9-cm","version":"2013","code":"042","display":"Human immunodeficiency virus [HIV] disease","userSelected":true},{"system":"http://snomed.info/sct","code":"165816005","userSelected":true}]},"subject":{"reference":"Patient/3aa2678e-0a9c-4233-9634-daae7e0e31e9"},"onsetDateTime":"2017-09-28T08:00:00.000+00:00","recordedDate":"2017-09-28T08:00:00.000+00:00"},"request":{"method":"PUT","url":"Condition/1e9b1348-ee07-4d53-b086-7067306e430c"}},{"fullUrl":"https://madie.cms.gov/Encounter/preventive-care-established-office-visit-0-to-17-36b8","resource":{"resourceType":"Encounter","id":"8a77a088-f711-43ef-824b-551b9d70b55a","meta":{"profile":["http://hl7.org/fhir/us/qicore/StructureDefinition/qicore-encounter"]},"status":"finished","class":{"system":"http://terminology.hl7.org/CodeSystem/v3-ActCode","code":"AMB","display":"ambulatory"},"type":[{"coding":[{"system":"http://www.ama-assn.org/go/cpt","version":"2023","code":"99391","display":"Periodic comprehensive preventive medicine reevaluation and management of an individual including an age and gender appropriate history, examination, counseling/anticipatory guidance/risk factor reduction interventions, and the ordering of laboratory/diagnostic procedures, established patient; infant (age younger than 1 year)","userSelected":true}]}],"subject":{"reference":"Patient/3aa2678e-0a9c-4233-9634-daae7e0e31e9"},"period":{"start":"2025-09-29T08:00:00.000+00:00","end":"2025-09-29T08:30:00.000+00:00"}},"request":{"method":"PUT","url":"Encounter/8a77a088-f711-43ef-824b-551b9d70b55a"}},{"fullUrl":"https://madie.cms.gov/Observation/syphilis-tests-36b9","resource":{"resourceType":"Observation","id":"36f612e4-211e-481d-b14e-48edb831f190","meta":{"profile":["http://hl7.org/fhir/us/qicore/StructureDefinition/qicore-observation"]},"status":"final","category":[{"coding":[{"system":"http://terminology.hl7.org/CodeSystem/observation-category"}]}],"code":{"coding":[{"system":"http://loinc.org","version":"2.73","code":"11084-1","display":"Reagin Ab [Titer] in Serum","userSelected":true}]},"subject":{"reference":"Patient/3aa2678e-0a9c-4233-9634-daae7e0e31e9"},"effectivePeriod":{"start":"2025-09-30T08:00:00.000+00:00","end":"2025-09-30T08:15:00.000+00:00"},"issued":"2025-09-30T08:00:00.000+00:00","valueQuantity":{"value":12.3}},"request":{"method":"PUT","url":"Observation/36f612e4-211e-481d-b14e-48edb831f190"}},{"fullUrl":"https://madie.cms.gov/Observation/chlamydia-screening-36ba","resource":{"resourceType":"Observation","id":"5d2c1a21-c293-44dd-b092-30d91023e9c8","meta":{"profile":["http://hl7.org/fhir/us/qicore/StructureDefinition/qicore-observation"]},"status":"final","category":[{"coding":[{"system":"http://terminology.hl7.org/CodeSystem/observation-category"}]}],"code":{"coding":[{"system":"http://loinc.org","version":"2.73","code":"14463-4","display":"Chlamydia trachomatis [Presence] in Cervix by Organism specific culture","userSelected":true}]},"subject":{"reference":"Patient/3aa2678e-0a9c-4233-9634-daae7e0e31e9"},"effectivePeriod":{"start":"2025-09-30T08:00:00.000+00:00","end":"2025-09-30T08:15:00.000+00:00"},"issued":"2025-09-30T08:00:00.000+00:00","valueQuantity":{"value":16}},"request":{"method":"PUT","url":"Observation/5d2c1a21-c293-44dd-b092-30d91023e9c8"}},{"fullUrl":"https://madie.cms.gov/Observation/gonorrhea-screening-36bb","resource":{"resourceType":"Observation","id":"75efa978-ea7b-496a-8a9f-4ccd448693dc","meta":{"profile":["http://hl7.org/fhir/us/qicore/StructureDefinition/qicore-observation"]},"status":"final","category":[{"coding":[{"system":"http://terminology.hl7.org/CodeSystem/observation-category"}]}],"code":{"coding":[{"system":"http://loinc.org","version":"2.73","code":"21415-5","display":"Neisseria gonorrhoeae DNA [Presence] in Cervical mucus by NAA with probe detection","userSelected":true}]},"subject":{"reference":"Patient/3aa2678e-0a9c-4233-9634-daae7e0e31e9"},"effectivePeriod":{"start":"2025-09-30T08:00:00.000+00:00","end":"2025-09-30T08:15:00.000+00:00"},"issued":"2025-09-30T08:00:00.000+00:00","valueQuantity":{"value":14}},"request":{"method":"PUT","url":"Observation/75efa978-ea7b-496a-8a9f-4ccd448693dc"}},{"fullUrl":"https://madie.cms.gov/Coverage/1","resource":{"resourceType":"Coverage","id":"6b45dc5c-a739-4ad7-84d0-41ea6bfeeb4d","meta":{"profile":["http://hl7.org/fhir/us/qicore/StructureDefinition/qicore-coverage"]},"status":"active","beneficiary":{"reference":"Patient/3aa2678e-0a9c-4233-9634-daae7e0e31e9"},"payor":[{"reference":"Organization/806b0255-13cb-4f2b-9412-571554dd2169"}]},"request":{"method":"PUT","url":"Coverage/6b45dc5c-a739-4ad7-84d0-41ea6bfeeb4d"}},{"fullUrl":"https://madie.cms.gov/Organization/123456","resource":{"resourceType":"Organization","id":"806b0255-13cb-4f2b-9412-571554dd2169","meta":{"profile":["http://hl7.org/fhir/us/qicore/StructureDefinition/qicore-organization"]},"identifier":[{"use":"temp","system":"urn:oid:2.16.840.1.113883.4.4","value":"21-3259825"}],"active":true,"type":[{"coding":[{"system":"http://terminology.hl7.org/CodeSystem/organization-type","code":"pay","display":"Payer"}]}],"name":"Blue Cross Blue Shield of Texas","telecom":[{"system":"phone","value":"(+1) 972-766-6900"}],"address":[{"use":"billing","type":"postal","line":["P.O. Box 660044"],"city":"Dallas","state":"TX","postalCode":"75266-0044","country":"USA"}]},"request":{"method":"PUT","url":"Organization/806b0255-13cb-4f2b-9412-571554dd2169"}},{"fullUrl":"https://madie.cms.gov/Practitioner/practitioner-123456","resource":{"resourceType":"Practitioner","id":"3c919efa-e01e-4549-902a-a76622392264","meta":{"profile":["http://hl7.org/fhir/us/qicore/StructureDefinition/qicore-practitioner"]},"identifier":[{"system":"http://hl7.org/fhir/sid/us-npi","value":"123456"}],"name":[{"family":"Evil","prefix":["Dr"]}]},"request":{"method":"PUT","url":"Practitioner/3c919efa-e01e-4549-902a-a76622392264"}},{"fullUrl":"https://madie.cms.gov/MeasureReport/ae9c8538-a3c7-48a8-a959-d1739b33647b","resource":{"resourceType":"MeasureReport","id":"ae9c8538-a3c7-48a8-a959-d1739b33647b","meta":{"profile":["http://hl7.org/fhir/us/cqfmeasures/StructureDefinition/test-case-cqfm"]},"contained":[{"resourceType":"Parameters","id":"09ab043b-bad3-42ae-bbf8-c09f37105449-parameters","parameter":[{"name":"subject","valueString":"3aa2678e-0a9c-4233-9634-daae7e0e31e9"}]}],"extension":[{"url":"http://hl7.org/fhir/us/cqfmeasures/StructureDefinition/cqfm-inputParameters","valueReference":{"reference":"#09ab043b-bad3-42ae-bbf8-c09f37105449-parameters"}},{"url":"http://hl7.org/fhir/us/cqfmeasures/StructureDefinition/cqfm-testCaseDescription","valueMarkdown":"Patient is over 13 years old and has an encounter during the MP and has all three lab tests during the MP AFTER the encounter"}],"modifierExtension":[{"url":"http://hl7.org/fhir/us/cqfmeasures/StructureDefinition/cqfm-isTestCase","valueBoolean":true}],"status":"complete","type":"individual","measure":"https://madie.cms.gov/Measure/HIVSTITestingFHIR","period":{"start":"2025-01-01","end":"2025-12-31"},"group":[{"population":[{"code":{"coding":[{"system":"http://terminology.hl7.org/CodeSystem/measure-population","code":"initial-population","display":"Initial Population"}]},"count":1},{"code":{"coding":[{"system":"http://terminology.hl7.org/CodeSystem/measure-population","code":"denominator","display":"Denominator"}]},"count":1},{"code":{"coding":[{"system":"http://terminology.hl7.org/CodeSystem/measure-population","code":"numerator","display":"Numerator"}]},"count":1}]}]},"request":{"method":"PUT","url":"MeasureReport/ae9c8538-a3c7-48a8-a959-d1739b33647b"}}]}