{"resourceType":"Bundle","id":"tests-1734084f-7e87-43cb-9376-2261e94d3f09-bundle","type":"transaction","entry":[{"fullUrl":"https://madie.cms.gov/Patient/1734084f-7e87-43cb-9376-2261e94d3f09","resource":{"resourceType":"Patient","id":"1734084f-7e87-43cb-9376-2261e94d3f09","meta":{"profile":["http://hl7.org/fhir/us/qicore/StructureDefinition/qicore-patient"]},"extension":[{"url":"http://hl7.org/fhir/us/core/ValueSet/omb-race-category","extension":[{"url":"ombCategory","valueCoding":{"system":"urn:oid:2.16.840.1.113883.6.238","code":"2131-1","display":"Other Race","userSelected":true}},{"url":"text","valueString":"Other Race"}]},{"url":"http://hl7.org/fhir/us/core/StructureDefinition/us-core-ethnicity","extension":[{"url":"ombCategory","valueCoding":{"system":"urn:oid:2.16.840.1.113883.6.238","code":"2186-5","display":"Not Hispanic or Latino","userSelected":true}},{"url":"text","valueString":"Not Hispanic or Latino"}]}],"identifier":[{"type":{"coding":[{"system":"http://terminology.hl7.org/CodeSystem/v2-0203","code":"MR"}]},"system":"https://bonnie-fhir.healthit.gov/","value":"64a302f797502c2facaa5f23"}],"name":[{"family":"NumPass","given":["ComboGonorrheaANDChlamydiaCode"]}],"gender":"female","birthDate":"2000-02-04"},"request":{"method":"PUT","url":"Patient/1734084f-7e87-43cb-9376-2261e94d3f09"}},{"fullUrl":"https://madie.cms.gov/Condition/hiv-5f24","resource":{"resourceType":"Condition","id":"382fea10-31b2-45c6-b4ca-004078cdd80c","meta":{"profile":["http://hl7.org/fhir/us/qicore/StructureDefinition/qicore-condition"]},"clinicalStatus":{"coding":[{"system":"http://terminology.hl7.org/CodeSystem/condition-clinical","code":"active","display":"active","userSelected":true}]},"category":[{"coding":[{"system":"http://terminology.hl7.org/CodeSystem/condition-category","code":"problem-list-item","display":"Problem List Item"}]}],"code":{"coding":[{"system":"http://hl7.org/fhir/sid/icd-9-cm","version":"2013","code":"042","display":"Human immunodeficiency virus [HIV] disease","userSelected":true},{"system":"http://snomed.info/sct","code":"165816005","userSelected":true}]},"subject":{"reference":"Patient/1734084f-7e87-43cb-9376-2261e94d3f09"},"onsetDateTime":"2017-09-28T08:00:00.000+00:00","recordedDate":"2017-09-28T08:00:00.000+00:00"},"request":{"method":"PUT","url":"Condition/382fea10-31b2-45c6-b4ca-004078cdd80c"}},{"fullUrl":"https://madie.cms.gov/Encounter/preventive-care-established-office-visit-0-to-17-5f26","resource":{"resourceType":"Encounter","id":"e860fc31-5fb9-4a34-830d-40e281e20b2e","meta":{"profile":["http://hl7.org/fhir/us/qicore/StructureDefinition/qicore-encounter"]},"status":"finished","class":{"system":"http://terminology.hl7.org/CodeSystem/v3-ActCode","code":"AMB","display":"ambulatory"},"type":[{"coding":[{"system":"http://www.ama-assn.org/go/cpt","version":"2023","code":"99391","display":"Periodic comprehensive preventive medicine reevaluation and management of an individual including an age and gender appropriate history, examination, counseling/anticipatory guidance/risk factor reduction interventions, and the ordering of laboratory/diagnostic procedures, established patient; infant (age younger than 1 year)","userSelected":true}]}],"subject":{"reference":"Patient/1734084f-7e87-43cb-9376-2261e94d3f09"},"period":{"start":"2025-09-29T08:00:00.000+00:00","end":"2025-09-29T08:30:00.000+00:00"}},"request":{"method":"PUT","url":"Encounter/e860fc31-5fb9-4a34-830d-40e281e20b2e"}},{"fullUrl":"https://madie.cms.gov/Observation/syphilis-tests-5f27","resource":{"resourceType":"Observation","id":"3e2b9d41-b15a-4d6f-b93b-debf642be41c","meta":{"profile":["http://hl7.org/fhir/us/qicore/StructureDefinition/qicore-observation"]},"status":"final","category":[{"coding":[{"system":"http://terminology.hl7.org/CodeSystem/observation-category"}]}],"code":{"coding":[{"system":"http://loinc.org","version":"2.73","code":"11084-1","display":"Reagin Ab [Titer] in Serum","userSelected":true}]},"subject":{"reference":"Patient/1734084f-7e87-43cb-9376-2261e94d3f09"},"effectivePeriod":{"start":"2025-08-30T08:00:00.000+00:00","end":"2025-08-30T08:15:00.000+00:00"},"issued":"2025-08-30T08:00:00.000+00:00","valueQuantity":{"value":16.0}},"request":{"method":"PUT","url":"Observation/3e2b9d41-b15a-4d6f-b93b-debf642be41c"}},{"fullUrl":"https://madie.cms.gov/Observation/gonorrhea-screening-5f28","resource":{"resourceType":"Observation","id":"6730bb25-3f4a-4daf-b14d-e3def88ac752","meta":{"profile":["http://hl7.org/fhir/us/qicore/StructureDefinition/qicore-observation"]},"status":"final","category":[{"coding":[{"system":"http://terminology.hl7.org/CodeSystem/observation-category"}]}],"code":{"coding":[{"system":"http://loinc.org","code":"45069-2","userSelected":true}]},"subject":{"reference":"Patient/1734084f-7e87-43cb-9376-2261e94d3f09"},"effectiveDateTime":"2025-08-30T08:00:00.000+00:00","issued":"2025-08-30T08:00:00.000+00:00","valueQuantity":{"value":17.0}},"request":{"method":"PUT","url":"Observation/6730bb25-3f4a-4daf-b14d-e3def88ac752"}},{"fullUrl":"https://madie.cms.gov/Coverage/1","resource":{"resourceType":"Coverage","id":"c605462f-3b22-4be9-aa75-dcdcbab526f0","meta":{"profile":["http://hl7.org/fhir/us/qicore/StructureDefinition/qicore-coverage"]},"status":"active","beneficiary":{"reference":"Patient/1734084f-7e87-43cb-9376-2261e94d3f09"},"payor":[{"reference":"Organization/18ca435c-cae6-4c34-8033-af717477f9fc"}]},"request":{"method":"PUT","url":"Coverage/c605462f-3b22-4be9-aa75-dcdcbab526f0"}},{"fullUrl":"https://madie.cms.gov/Organization/123456","resource":{"resourceType":"Organization","id":"18ca435c-cae6-4c34-8033-af717477f9fc","meta":{"profile":["http://hl7.org/fhir/us/qicore/StructureDefinition/qicore-organization"]},"identifier":[{"use":"temp","system":"urn:oid:2.16.840.1.113883.4.4","value":"21-3259825"}],"active":true,"type":[{"coding":[{"system":"http://terminology.hl7.org/CodeSystem/organization-type","code":"pay","display":"Payer"}]}],"name":"Blue Cross Blue Shield of Texas","telecom":[{"system":"phone","value":"(+1) 972-766-6900"}],"address":[{"use":"billing","type":"postal","line":["P.O. Box 660044"],"city":"Dallas","state":"TX","postalCode":"75266-0044","country":"USA"}]},"request":{"method":"PUT","url":"Organization/18ca435c-cae6-4c34-8033-af717477f9fc"}},{"fullUrl":"https://madie.cms.gov/Practitioner/practitioner-123456","resource":{"resourceType":"Practitioner","id":"b7c7aeef-8c80-46c5-aa6d-322eeaf3993d","meta":{"profile":["http://hl7.org/fhir/us/qicore/StructureDefinition/qicore-practitioner"]},"identifier":[{"system":"http://hl7.org/fhir/sid/us-npi","value":"123456"}],"name":[{"family":"Evil","prefix":["Dr"]}]},"request":{"method":"PUT","url":"Practitioner/b7c7aeef-8c80-46c5-aa6d-322eeaf3993d"}},{"fullUrl":"https://madie.cms.gov/MeasureReport/7d46388a-8a71-43e0-8e50-39f037284d2b","resource":{"resourceType":"MeasureReport","id":"7d46388a-8a71-43e0-8e50-39f037284d2b","meta":{"profile":["http://hl7.org/fhir/us/cqfmeasures/StructureDefinition/test-case-cqfm"]},"contained":[{"resourceType":"Parameters","id":"4542ad7c-ea03-41e1-9cda-1c1c47924f97-parameters","parameter":[{"name":"subject","valueString":"1734084f-7e87-43cb-9376-2261e94d3f09"}]}],"extension":[{"url":"http://hl7.org/fhir/us/cqfmeasures/StructureDefinition/cqfm-inputParameters","valueReference":{"reference":"#4542ad7c-ea03-41e1-9cda-1c1c47924f97-parameters"}},{"url":"http://hl7.org/fhir/us/cqfmeasures/StructureDefinition/cqfm-testCaseDescription","valueMarkdown":"Patient is over 13 years old and has an encounter during the MP and has a syphilis test and a combo gonorrhea/chlamydia test (single code meeting both logic) during the MP BEFORE the encounter"}],"modifierExtension":[{"url":"http://hl7.org/fhir/us/cqfmeasures/StructureDefinition/cqfm-isTestCase","valueBoolean":true}],"status":"complete","type":"individual","measure":"https://madie.cms.gov/Measure/HIVSTITestingFHIR","period":{"start":"2025-01-01","end":"2025-12-31"},"group":[{"population":[{"code":{"coding":[{"system":"http://terminology.hl7.org/CodeSystem/measure-population","code":"initial-population","display":"Initial Population"}]},"count":1},{"code":{"coding":[{"system":"http://terminology.hl7.org/CodeSystem/measure-population","code":"denominator","display":"Denominator"}]},"count":1},{"code":{"coding":[{"system":"http://terminology.hl7.org/CodeSystem/measure-population","code":"numerator","display":"Numerator"}]},"count":1}]}]},"request":{"method":"PUT","url":"MeasureReport/7d46388a-8a71-43e0-8e50-39f037284d2b"}}]}