{"resourceType":"Bundle","id":"tests-74ac3135-a328-4695-93aa-17368142976f-bundle","type":"transaction","entry":[{"fullUrl":"https://madie.cms.gov/Patient/74ac3135-a328-4695-93aa-17368142976f","resource":{"resourceType":"Patient","id":"74ac3135-a328-4695-93aa-17368142976f","meta":{"profile":["http://hl7.org/fhir/us/qicore/StructureDefinition/qicore-patient"]},"extension":[{"url":"http://hl7.org/fhir/us/core/StructureDefinition/us-core-race","extension":[{"url":"ombCategory","valueCoding":{"system":"urn:oid:2.16.840.1.113883.6.238","code":"2028-9","display":"Asian","userSelected":true}},{"url":"text","valueString":"Asian"}]},{"url":"http://hl7.org/fhir/us/core/StructureDefinition/us-core-ethnicity","extension":[{"url":"ombCategory","valueCoding":{"system":"urn:oid:2.16.840.1.113883.6.238","code":"2135-2","display":"Hispanic or Latino","userSelected":true}},{"url":"text","valueString":"Hispanic or Latino"}]}],"identifier":[{"type":{"coding":[{"system":"http://terminology.hl7.org/CodeSystem/v2-0203","code":"MR"}]},"system":"https://bonnie-fhir.healthit.gov/","value":"64a30614a6e663d06065269f"}],"name":[{"family":"NumPass","given":["MultipleOfAllLabTestsDuringMP"]}],"gender":"male","birthDate":"2000-02-04"},"request":{"method":"PUT","url":"Patient/74ac3135-a328-4695-93aa-17368142976f"}},{"fullUrl":"https://madie.cms.gov/Condition/hiv-26a0","resource":{"resourceType":"Condition","id":"2d3fab85-f4af-445f-8058-231d1130fb14","meta":{"profile":["http://hl7.org/fhir/us/qicore/StructureDefinition/qicore-condition"]},"clinicalStatus":{"coding":[{"system":"http://terminology.hl7.org/CodeSystem/condition-clinical","code":"active","display":"active","userSelected":true}]},"category":[{"coding":[{"system":"http://terminology.hl7.org/CodeSystem/condition-category","code":"problem-list-item","display":"Problem List Item"}]}],"code":{"coding":[{"system":"http://hl7.org/fhir/sid/icd-9-cm","version":"2013","code":"042","display":"Human immunodeficiency virus [HIV] disease","userSelected":true},{"system":"http://snomed.info/sct","code":"165816005","userSelected":true}]},"subject":{"reference":"Patient/74ac3135-a328-4695-93aa-17368142976f"},"onsetDateTime":"2017-09-28T08:00:00.000+00:00","recordedDate":"2017-09-28T08:00:00.000+00:00"},"request":{"method":"PUT","url":"Condition/2d3fab85-f4af-445f-8058-231d1130fb14"}},{"fullUrl":"https://madie.cms.gov/Encounter/preventive-care-established-office-visit-0-to-17-26a1","resource":{"resourceType":"Encounter","id":"add712e8-3a65-4420-905b-522838f9c519","meta":{"profile":["http://hl7.org/fhir/us/qicore/StructureDefinition/qicore-encounter"]},"status":"finished","class":{"system":"http://terminology.hl7.org/CodeSystem/v3-ActCode","code":"AMB","display":"ambulatory"},"type":[{"coding":[{"system":"http://www.ama-assn.org/go/cpt","version":"2023","code":"99391","display":"Periodic comprehensive preventive medicine reevaluation and management of an individual including an age and gender appropriate history, examination, counseling/anticipatory guidance/risk factor reduction interventions, and the ordering of laboratory/diagnostic procedures, established patient; infant (age younger than 1 year)","userSelected":true}]}],"subject":{"reference":"Patient/74ac3135-a328-4695-93aa-17368142976f"},"period":{"start":"2025-09-29T08:00:00.000+00:00","end":"2025-09-29T08:30:00.000+00:00"}},"request":{"method":"PUT","url":"Encounter/add712e8-3a65-4420-905b-522838f9c519"}},{"fullUrl":"https://madie.cms.gov/Observation/syphilis-tests-26a2","resource":{"resourceType":"Observation","id":"1b652a2a-5d27-4186-b251-87b1ac32563e","meta":{"profile":["http://hl7.org/fhir/us/qicore/StructureDefinition/qicore-observation"]},"status":"final","category":[{"coding":[{"system":"http://terminology.hl7.org/CodeSystem/observation-category"}]}],"code":{"coding":[{"system":"http://loinc.org","version":"2.73","code":"11084-1","display":"Reagin Ab [Titer] in Serum","userSelected":true}]},"subject":{"reference":"Patient/74ac3135-a328-4695-93aa-17368142976f"},"effectivePeriod":{"start":"2025-08-30T08:00:00.000+00:00","end":"2025-08-30T08:15:00.000+00:00"},"issued":"2025-08-30T08:00:00.000+00:00","valueQuantity":{"value":12.3}},"request":{"method":"PUT","url":"Observation/1b652a2a-5d27-4186-b251-87b1ac32563e"}},{"fullUrl":"https://madie.cms.gov/Observation/gonorrhea-screening-26a3","resource":{"resourceType":"Observation","id":"40d4e301-04c3-4d6d-91ae-855e8478c0b1","meta":{"profile":["http://hl7.org/fhir/us/qicore/StructureDefinition/qicore-observation"]},"status":"final","category":[{"coding":[{"system":"http://terminology.hl7.org/CodeSystem/observation-category"}]}],"code":{"coding":[{"system":"http://loinc.org","version":"2.73","code":"21414-8","display":"Neisseria gonorrhoeae DNA [Presence] in Cervical mucus by NAA with probe detection","userSelected":true}]},"subject":{"reference":"Patient/74ac3135-a328-4695-93aa-17368142976f"},"effectivePeriod":{"start":"2025-08-30T08:00:00.000+00:00","end":"2025-08-30T08:15:00.000+00:00"},"issued":"2025-08-30T08:00:00.000+00:00","valueQuantity":{"value":15}},"request":{"method":"PUT","url":"Observation/40d4e301-04c3-4d6d-91ae-855e8478c0b1"}},{"fullUrl":"https://madie.cms.gov/Observation/chlamydia-screening-26a4","resource":{"resourceType":"Observation","id":"cc3d3d35-854b-4abc-bc56-19fa9116771b","meta":{"profile":["http://hl7.org/fhir/us/qicore/StructureDefinition/qicore-observation"]},"status":"final","category":[{"coding":[{"system":"http://terminology.hl7.org/CodeSystem/observation-category"}]}],"code":{"coding":[{"system":"http://loinc.org","version":"2.73","code":"14463-4","display":"Chlamydia trachomatis [Presence] in Cervix by Organism specific culture","userSelected":true}]},"subject":{"reference":"Patient/74ac3135-a328-4695-93aa-17368142976f"},"effectivePeriod":{"start":"2025-08-30T08:00:00.000+00:00","end":"2025-08-30T08:15:00.000+00:00"},"issued":"2025-08-30T08:00:00.000+00:00","valueQuantity":{"value":16}},"request":{"method":"PUT","url":"Observation/cc3d3d35-854b-4abc-bc56-19fa9116771b"}},{"fullUrl":"https://madie.cms.gov/Observation/syphilis-tests-26a5","resource":{"resourceType":"Observation","id":"d0f12f9b-9e5c-4ba2-be2a-825592cc318e","meta":{"profile":["http://hl7.org/fhir/us/qicore/StructureDefinition/qicore-observation"]},"status":"final","category":[{"coding":[{"system":"http://terminology.hl7.org/CodeSystem/observation-category"}]}],"code":{"coding":[{"system":"http://loinc.org","code":"22590-4","userSelected":true}]},"subject":{"reference":"Patient/74ac3135-a328-4695-93aa-17368142976f"},"effectiveDateTime":"2025-03-06T08:45:00.000+00:00","issued":"2025-03-06T08:45:00.000+00:00","valueQuantity":{"value":19}},"request":{"method":"PUT","url":"Observation/d0f12f9b-9e5c-4ba2-be2a-825592cc318e"}},{"fullUrl":"https://madie.cms.gov/Observation/gonorrhea-screening-26a6","resource":{"resourceType":"Observation","id":"62211363-3d93-47d6-bd66-e6b7343b7d26","meta":{"profile":["http://hl7.org/fhir/us/qicore/StructureDefinition/qicore-observation"]},"status":"final","category":[{"coding":[{"system":"http://terminology.hl7.org/CodeSystem/observation-category"}]}],"code":{"coding":[{"system":"http://loinc.org","version":"2.73","code":"21415-5","display":"Neisseria gonorrhoeae DNA [Presence] in Cervical mucus by NAA with probe detection","userSelected":true}]},"subject":{"reference":"Patient/74ac3135-a328-4695-93aa-17368142976f"},"effectiveDateTime":"2025-03-06T08:47:00.000+00:00","issued":"2025-03-06T08:47:00.000+00:00","valueQuantity":{"value":19}},"request":{"method":"PUT","url":"Observation/62211363-3d93-47d6-bd66-e6b7343b7d26"}},{"fullUrl":"https://madie.cms.gov/Observation/chlamydia-screening-26a7","resource":{"resourceType":"Observation","id":"ed467ab6-8fb0-4d26-882b-57cdc91a6f3d","meta":{"profile":["http://hl7.org/fhir/us/qicore/StructureDefinition/qicore-observation"]},"status":"final","category":[{"coding":[{"system":"http://terminology.hl7.org/CodeSystem/observation-category"}]}],"code":{"coding":[{"system":"http://loinc.org","code":"34710-4","userSelected":true}]},"subject":{"reference":"Patient/74ac3135-a328-4695-93aa-17368142976f"},"effectiveDateTime":"2025-03-06T08:48:00.000+00:00","issued":"2025-03-06T08:48:00.000+00:00","valueQuantity":{"value":19}},"request":{"method":"PUT","url":"Observation/ed467ab6-8fb0-4d26-882b-57cdc91a6f3d"}},{"fullUrl":"https://madie.cms.gov/Coverage/1","resource":{"resourceType":"Coverage","id":"ee733390-9be2-4be7-83cf-e7ace1e4af50","meta":{"profile":["http://hl7.org/fhir/us/qicore/StructureDefinition/qicore-coverage"]},"status":"active","beneficiary":{"reference":"Patient/74ac3135-a328-4695-93aa-17368142976f"},"payor":[{"reference":"Organization/aeb2c6be-6577-4bba-a6b6-6eab95111f1b"}]},"request":{"method":"PUT","url":"Coverage/ee733390-9be2-4be7-83cf-e7ace1e4af50"}},{"fullUrl":"https://madie.cms.gov/Organization/123456","resource":{"resourceType":"Organization","id":"aeb2c6be-6577-4bba-a6b6-6eab95111f1b","meta":{"profile":["http://hl7.org/fhir/us/qicore/StructureDefinition/qicore-organization"]},"identifier":[{"use":"temp","system":"urn:oid:2.16.840.1.113883.4.4","value":"21-3259825"}],"active":true,"type":[{"coding":[{"system":"http://terminology.hl7.org/CodeSystem/organization-type","code":"pay","display":"Payer"}]}],"name":"Blue Cross Blue Shield of Texas","telecom":[{"system":"phone","value":"(+1) 972-766-6900"}],"address":[{"use":"billing","type":"postal","line":["P.O. Box 660044"],"city":"Dallas","state":"TX","postalCode":"75266-0044","country":"USA"}]},"request":{"method":"PUT","url":"Organization/aeb2c6be-6577-4bba-a6b6-6eab95111f1b"}},{"fullUrl":"https://madie.cms.gov/Practitioner/practitioner-123456","resource":{"resourceType":"Practitioner","id":"73dfb215-32cc-47ca-886d-147a566b9d8c","meta":{"profile":["http://hl7.org/fhir/us/qicore/StructureDefinition/qicore-practitioner"]},"identifier":[{"system":"http://hl7.org/fhir/sid/us-npi","value":"123456"}],"name":[{"family":"Evil","prefix":["Dr"]}]},"request":{"method":"PUT","url":"Practitioner/73dfb215-32cc-47ca-886d-147a566b9d8c"}},{"fullUrl":"https://madie.cms.gov/MeasureReport/a087fc0a-f554-4cc0-a0b6-01b2df56b711","resource":{"resourceType":"MeasureReport","id":"a087fc0a-f554-4cc0-a0b6-01b2df56b711","meta":{"profile":["http://hl7.org/fhir/us/cqfmeasures/StructureDefinition/test-case-cqfm"]},"contained":[{"resourceType":"Parameters","id":"4dd18866-05f6-417c-9431-c6774db0da58-parameters","parameter":[{"name":"subject","valueString":"74ac3135-a328-4695-93aa-17368142976f"}]}],"extension":[{"url":"http://hl7.org/fhir/us/cqfmeasures/StructureDefinition/cqfm-inputParameters","valueReference":{"reference":"#4dd18866-05f6-417c-9431-c6774db0da58-parameters"}},{"url":"http://hl7.org/fhir/us/cqfmeasures/StructureDefinition/cqfm-testCaseDescription","valueMarkdown":"Patient is over 13 years old and has an encounter during the MP and has all three lab tests performed multiple times during the MP "}],"modifierExtension":[{"url":"http://hl7.org/fhir/us/cqfmeasures/StructureDefinition/cqfm-isTestCase","valueBoolean":true}],"status":"complete","type":"individual","measure":"https://madie.cms.gov/Measure/HIVSTITestingFHIR","period":{"start":"2025-01-01","end":"2025-12-31"},"group":[{"population":[{"code":{"coding":[{"system":"http://terminology.hl7.org/CodeSystem/measure-population","code":"initial-population","display":"Initial Population"}]},"count":1},{"code":{"coding":[{"system":"http://terminology.hl7.org/CodeSystem/measure-population","code":"denominator","display":"Denominator"}]},"count":1},{"code":{"coding":[{"system":"http://terminology.hl7.org/CodeSystem/measure-population","code":"numerator","display":"Numerator"}]},"count":1}]}]},"request":{"method":"PUT","url":"MeasureReport/a087fc0a-f554-4cc0-a0b6-01b2df56b711"}}]}