{
  "resourceType": "Bundle",
  "id": "a1f044ef3e654daa2267",
  "type": "transaction",
  "entry": [ {
    "fullUrl": "https://madie.cms.gov/Patient/f4df05b5-547b-45d2-bc18-8fcbd5afbaf7",
    "resource": {
      "resourceType": "Patient",
      "id": "f4df05b5-547b-45d2-bc18-8fcbd5afbaf7",
      "meta": {
        "profile": [ "http://hl7.org/fhir/us/qicore/StructureDefinition/qicore-patient" ]
      },
      "extension": [ {
        "url": "http://hl7.org/fhir/us/core/StructureDefinition/us-core-race",
        "extension": [ {
          "url": "ombCategory",
          "valueCoding": {
            "system": "urn:oid:2.16.840.1.113883.6.238",
            "code": "1002-5",
            "display": "American Indian or Alaska Native",
            "userSelected": true
          }
        }, {
          "url": "text",
          "valueString": "American Indian or Alaska Native"
        } ]
      }, {
        "url": "http://hl7.org/fhir/us/core/StructureDefinition/us-core-ethnicity",
        "extension": [ {
          "url": "ombCategory",
          "valueCoding": {
            "system": "urn:oid:2.16.840.1.113883.6.238",
            "code": "2135-2",
            "display": "Hispanic or Latino",
            "userSelected": true
          }
        }, {
          "url": "text",
          "valueString": "Hispanic or Latino"
        } ]
      } ],
      "identifier": [ {
        "type": {
          "coding": [ {
            "system": "http://terminology.hl7.org/CodeSystem/v2-0203",
            "code": "MR"
          } ]
        },
        "system": "https://bonnie-fhir.healthit.gov/",
        "value": "e8c93f97-87ac-4b54-b22f-5e1ecda79091"
      } ],
      "name": [ {
        "family": "DENEXCL11PASS",
        "given": [ "HospiceAssessmentOverlapsED" ]
      } ],
      "gender": "female",
      "birthDate": "1968-12-12"
    },
    "request": {
      "method": "PUT",
      "url": "Patient/f4df05b5-547b-45d2-bc18-8fcbd5afbaf7"
    }
  }, {
    "fullUrl": "https://madie.cms.gov/Encounter/c0c7b651-76d4-45c1-b9b7-2fe2bdcfc177",
    "resource": {
      "resourceType": "Encounter",
      "id": "c0c7b651-76d4-45c1-b9b7-2fe2bdcfc177",
      "meta": {
        "profile": [ "http://hl7.org/fhir/us/qicore/StructureDefinition/qicore-encounter" ]
      },
      "status": "finished",
      "class": {
        "system": "http://terminology.hl7.org/CodeSystem/v3-ActCode",
        "code": "EMER",
        "display": "emergency",
        "userSelected": true
      },
      "type": [ {
        "coding": [ {
          "system": "http://snomed.info/sct",
          "version": "2020-09",
          "code": "4525004",
          "display": "Emergency department patient visit",
          "userSelected": true
        } ]
      } ],
      "subject": {
        "reference": "Patient/f4df05b5-547b-45d2-bc18-8fcbd5afbaf7"
      },
      "period": {
        "start": "2026-10-09T05:00:00.000+00:00",
        "end": "2026-10-13T17:00:00.000+00:00"
      },
      "reasonCode": [ {
        "coding": [ {
          "system": "http://hl7.org/fhir/sid/icd-10-cm",
          "code": "I21.21",
          "display": "ST elevation (STEMI) myocardial infarction involving left circumflex coronary artery",
          "userSelected": true
        } ]
      } ]
    },
    "request": {
      "method": "PUT",
      "url": "Encounter/c0c7b651-76d4-45c1-b9b7-2fe2bdcfc177"
    }
  }, {
    "fullUrl": "https://madie.cms.gov/Observation/41a8b44a-66a8-476d-8d8c-eb4a008ab40e",
    "resource": {
      "resourceType": "Observation",
      "id": "41a8b44a-66a8-476d-8d8c-eb4a008ab40e",
      "meta": {
        "profile": [ "http://hl7.org/fhir/us/qicore/StructureDefinition/qicore-observation" ]
      },
      "status": "final",
      "category": [ {
        "coding": [ {
          "system": "http://terminology.hl7.org/CodeSystem/observation-category",
          "code": "survey",
          "display": "Survey",
          "userSelected": true
        } ]
      } ],
      "code": {
        "coding": [ {
          "system": "http://loinc.org",
          "code": "45755-6",
          "display": "Hospice care [Minimum Data Set]",
          "userSelected": true
        } ]
      },
      "subject": {
        "reference": "Patient/f4df05b5-547b-45d2-bc18-8fcbd5afbaf7"
      },
      "effectivePeriod": {
        "start": "2026-09-16T02:00:00.000+00:00"
      },
      "valueCodeableConcept": {
        "coding": [ {
          "system": "http://snomed.info/sct",
          "code": "373066001",
          "display": "Yes (qualifier value)",
          "userSelected": true
        } ]
      }
    },
    "request": {
      "method": "PUT",
      "url": "Observation/41a8b44a-66a8-476d-8d8c-eb4a008ab40e"
    }
  }, {
    "fullUrl": "https://madie.cms.gov/MeasureReport/20355be3-56cc-42b1-bf96-ea371827958e",
    "resource": {
      "resourceType": "MeasureReport",
      "id": "20355be3-56cc-42b1-bf96-ea371827958e",
      "meta": {
        "profile": [ "http://hl7.org/fhir/us/cqfmeasures/StructureDefinition/test-case-cqfm" ]
      },
      "contained": [ {
        "resourceType": "Parameters",
        "id": "9bb1597c-d76e-41a2-b223-f76e2c90187f-parameters",
        "parameter": [ {
          "name": "subject",
          "valueString": "f4df05b5-547b-45d2-bc18-8fcbd5afbaf7"
        } ]
      } ],
      "extension": [ {
        "url": "http://hl7.org/fhir/us/cqfmeasures/StructureDefinition/cqfm-inputParameters",
        "valueReference": {
          "reference": "#9bb1597c-d76e-41a2-b223-f76e2c90187f-parameters"
        }
      }, {
        "url": "http://hl7.org/fhir/us/cqfmeasures/StructureDefinition/cqfm-testCaseDescription",
        "valueMarkdown": "Hospice Assessment overlaps ED stay (missing assessment end)"
      } ],
      "modifierExtension": [ {
        "url": "http://hl7.org/fhir/us/cqfmeasures/StructureDefinition/cqfm-isTestCase",
        "valueBoolean": true
      } ],
      "status": "complete",
      "type": "individual",
      "measure": "https://madie.cms.gov/Measure/CMS996FHIRAptTxforSTEMI",
      "period": {
        "start": "2026-01-01",
        "end": "2026-12-31"
      },
      "group": [ {
        "population": [ {
          "code": {
            "coding": [ {
              "system": "http://terminology.hl7.org/CodeSystem/measure-population",
              "code": "initial-population",
              "display": "Initial Population"
            } ]
          },
          "count": 1
        }, {
          "code": {
            "coding": [ {
              "system": "http://terminology.hl7.org/CodeSystem/measure-population",
              "code": "denominator",
              "display": "Denominator"
            } ]
          },
          "count": 1
        }, {
          "code": {
            "coding": [ {
              "system": "http://terminology.hl7.org/CodeSystem/measure-population",
              "code": "denominator-exclusion",
              "display": "Denominator Exclusion"
            } ]
          },
          "count": 1
        }, {
          "code": {
            "coding": [ {
              "system": "http://terminology.hl7.org/CodeSystem/measure-population",
              "code": "numerator",
              "display": "Numerator"
            } ]
          },
          "count": 0
        }, {
          "code": {
            "coding": [ {
              "system": "http://terminology.hl7.org/CodeSystem/measure-population",
              "code": "denominator-exception",
              "display": "Denominator Exception"
            } ]
          },
          "count": 0
        } ]
      } ],
      "evaluatedResource": [ {
        "reference": "Patient/f4df05b5-547b-45d2-bc18-8fcbd5afbaf7"
      }, {
        "reference": "Encounter/c0c7b651-76d4-45c1-b9b7-2fe2bdcfc177"
      }, {
        "reference": "Observation/41a8b44a-66a8-476d-8d8c-eb4a008ab40e"
      } ]
    },
    "request": {
      "method": "PUT",
      "url": "MeasureReport/20355be3-56cc-42b1-bf96-ea371827958e"
    }
  } ]
}