{
  "resourceType": "Bundle",
  "id": "6359776b6aee9629c8298235",
  "type": "transaction",
  "entry": [ {
    "fullUrl": "https://madie.cms.gov/Patient/313f7916-7e09-40d2-bcb3-06cdf149cc79",
    "resource": {
      "resourceType": "Patient",
      "id": "313f7916-7e09-40d2-bcb3-06cdf149cc79",
      "meta": {
        "profile": [ "http://hl7.org/fhir/us/qicore/StructureDefinition/qicore-patient" ]
      },
      "text": {
        "status": "generated",
        "div": "<div xmlns=\"http://www.w3.org/1999/xhtml\"><div class=\"hapiHeaderText\">RISKHct24hours1MinB4EDOTTriageEnc  <b>RISKFail </b></div><table class=\"hapiPropertyTable\"><tbody><tr><td>Date of birth</td><td><span>01 February 2004</span></td></tr></tbody></table></div>"
      },
      "extension": [ {
        "url": "http://hl7.org/fhir/us/core/StructureDefinition/us-core-race",
        "extension": [ {
          "url": "ombCategory",
          "valueCoding": {
            "system": "urn:oid:2.16.840.1.113883.6.238",
            "code": "1002-5",
            "display": "American Indian or Alaska Native",
            "userSelected": true
          }
        }, {
          "url": "text",
          "valueString": "American Indian or Alaska Native"
        } ]
      }, {
        "url": "http://hl7.org/fhir/us/core/StructureDefinition/us-core-ethnicity",
        "extension": [ {
          "url": "ombCategory",
          "valueCoding": {
            "system": "urn:oid:2.16.840.1.113883.6.238",
            "code": "2135-2",
            "display": "Hispanic or Latino",
            "userSelected": true
          }
        }, {
          "url": "text",
          "valueString": "Hispanic or Latino"
        } ]
      } ],
      "identifier": [ {
        "type": {
          "coding": [ {
            "system": "http://terminology.hl7.org/CodeSystem/v2-0203",
            "code": "MR"
          } ]
        },
        "system": "https://bonnie-fhir.healthit.gov/",
        "value": "6359776b6aee9629c8298235"
      } ],
      "active": true,
      "name": [ {
        "use": "usual",
        "family": "RiskFail",
        "given": [ "RISKHct24hours1MinB4EDOTTriageEnc" ]
      } ],
      "gender": "female",
      "birthDate": "2004-02-01"
    },
    "request": {
      "method": "PUT",
      "url": "Patient/313f7916-7e09-40d2-bcb3-06cdf149cc79"
    }
  }, {
    "fullUrl": "https://madie.cms.gov/Observation/b4148461-a073-44f8-a3c8-dd71355c39af",
    "resource": {
      "resourceType": "Observation",
      "id": "b4148461-a073-44f8-a3c8-dd71355c39af",
      "meta": {
        "profile": [ "http://hl7.org/fhir/us/qicore/StructureDefinition/qicore-observation" ]
      },
      "status": "final",
      "category": [ {
        "coding": [ {
          "system": "http://terminology.hl7.org/CodeSystem/observation-category",
          "code": "exam",
          "display": "exam",
          "userSelected": true
        } ]
      } ],
      "code": {
        "coding": [ {
          "system": "http://loinc.org",
          "code": "93857-1"
        } ]
      },
      "subject": {
        "reference": "Patient/313f7916-7e09-40d2-bcb3-06cdf149cc79"
      },
      "effectiveDateTime": "2025-02-01T08:00:00.000+00:00",
      "valueDateTime": "2025-02-01T08:00:00+00:00"
    },
    "request": {
      "method": "PUT",
      "url": "Observation/b4148461-a073-44f8-a3c8-dd71355c39af"
    }
  }, {
    "fullUrl": "https://madie.cms.gov/Observation/85ce14c1-0ff8-4a48-93ce-c33258fbc597",
    "resource": {
      "resourceType": "Observation",
      "id": "85ce14c1-0ff8-4a48-93ce-c33258fbc597",
      "meta": {
        "profile": [ "http://hl7.org/fhir/us/qicore/StructureDefinition/qicore-observation" ]
      },
      "status": "final",
      "category": [ {
        "coding": [ {
          "system": "http://terminology.hl7.org/CodeSystem/observation-category",
          "code": "exam",
          "display": "exam",
          "userSelected": true
        } ]
      } ],
      "code": {
        "coding": [ {
          "system": "http://loinc.org",
          "code": "11884-4"
        } ]
      },
      "subject": {
        "reference": "Patient/313f7916-7e09-40d2-bcb3-06cdf149cc79"
      },
      "effectiveDateTime": "2025-02-01T08:00:00.000+00:00",
      "valueQuantity": {
        "value": 21,
        "system": "http://unitsofmeasure.org",
        "code": "wk"
      }
    },
    "request": {
      "method": "PUT",
      "url": "Observation/85ce14c1-0ff8-4a48-93ce-c33258fbc597"
    }
  }, {
    "fullUrl": "https://madie.cms.gov/Encounter/fbaa2c6a-8d05-4d0b-a38a-35d4297aefe3",
    "resource": {
      "resourceType": "Encounter",
      "id": "fbaa2c6a-8d05-4d0b-a38a-35d4297aefe3",
      "meta": {
        "profile": [ "http://hl7.org/fhir/us/qicore/StructureDefinition/qicore-encounter" ]
      },
      "status": "finished",
      "class": {
        "system": "http://terminology.hl7.org/CodeSystem/v3-ActCode",
        "code": "IMP",
        "display": "inpatient encounter"
      },
      "type": [ {
        "coding": [ {
          "system": "http://snomed.info/sct",
          "code": "183452005"
        } ]
      } ],
      "subject": {
        "reference": "Patient/313f7916-7e09-40d2-bcb3-06cdf149cc79"
      },
      "period": {
        "start": "2025-02-01T08:00:00.000+00:00",
        "end": "2025-02-05T08:15:00.000+00:00"
      }
    },
    "request": {
      "method": "PUT",
      "url": "Encounter/fbaa2c6a-8d05-4d0b-a38a-35d4297aefe3"
    }
  }, {
    "fullUrl": "https://madie.cms.gov/Encounter/07dae727-5508-4d91-9c45-26a2fa5c35ab",
    "resource": {
      "resourceType": "Encounter",
      "id": "07dae727-5508-4d91-9c45-26a2fa5c35ab",
      "meta": {
        "profile": [ "http://hl7.org/fhir/us/qicore/StructureDefinition/qicore-encounter" ]
      },
      "status": "finished",
      "class": {
        "system": "http://terminology.hl7.org/CodeSystem/v3-ActCode",
        "code": "EMER",
        "display": "emergency"
      },
      "type": [ {
        "coding": [ {
          "system": "http://snomed.info/sct",
          "code": "4525004"
        } ]
      } ],
      "subject": {
        "reference": "Patient/313f7916-7e09-40d2-bcb3-06cdf149cc79"
      },
      "period": {
        "start": "2025-02-01T07:00:00.000+00:00",
        "end": "2025-02-01T07:59:00.000+00:00"
      }
    },
    "request": {
      "method": "PUT",
      "url": "Encounter/07dae727-5508-4d91-9c45-26a2fa5c35ab"
    }
  }, {
    "fullUrl": "https://madie.cms.gov/Procedure/af3b39d8-542d-4a7c-864e-84cc5d3ac149",
    "resource": {
      "resourceType": "Procedure",
      "id": "af3b39d8-542d-4a7c-864e-84cc5d3ac149",
      "meta": {
        "profile": [ "http://hl7.org/fhir/us/qicore/StructureDefinition/qicore-procedure" ]
      },
      "extension": [ {
        "url": "http://hl7.org/fhir/us/qicore/StructureDefinition/qicore-recorded",
        "valueDateTime": "2025-02-04T09:35:00-04:00"
      } ],
      "status": "completed",
      "code": {
        "coding": [ {
          "system": "http://snomed.info/sct",
          "code": "10745001"
        } ]
      },
      "subject": {
        "reference": "Patient/313f7916-7e09-40d2-bcb3-06cdf149cc79"
      },
      "performedPeriod": {
        "start": "2025-02-01T08:00:00.000+00:00",
        "end": "2025-02-05T08:15:00.000+00:00"
      }
    },
    "request": {
      "method": "PUT",
      "url": "Procedure/af3b39d8-542d-4a7c-864e-84cc5d3ac149"
    }
  }, {
    "fullUrl": "https://madie.cms.gov/Observation/1ccd1319-d2d6-4ac9-bab3-ff2b66a6a44a",
    "resource": {
      "resourceType": "Observation",
      "id": "1ccd1319-d2d6-4ac9-bab3-ff2b66a6a44a",
      "meta": {
        "profile": [ "http://hl7.org/fhir/us/core/StructureDefinition/us-core-observation-lab" ]
      },
      "status": "final",
      "category": [ {
        "coding": [ {
          "system": "http://terminology.hl7.org/CodeSystem/observation-category",
          "code": "laboratory",
          "display": "laboratory",
          "userSelected": true
        } ]
      } ],
      "code": {
        "coding": [ {
          "system": "http://loinc.org",
          "version": "2.73",
          "code": "20570-8",
          "display": "Hematocrit [Volume Fraction] in Blood",
          "userSelected": true
        } ]
      },
      "subject": {
        "reference": "Patient/313f7916-7e09-40d2-bcb3-06cdf149cc79"
      },
      "effectiveDateTime": "2025-01-31T06:59:00.000+00:00",
      "issued": "2025-01-31T06:59:00.000+00:00",
      "valueQuantity": {
        "value": 20,
        "unit": "%"
      }
    },
    "request": {
      "method": "PUT",
      "url": "Observation/1ccd1319-d2d6-4ac9-bab3-ff2b66a6a44a"
    }
  }, {
    "fullUrl": "https://madie.cms.gov/MeasureReport/e376a894-c73f-46b2-a721-8ac1622e5f36",
    "resource": {
      "resourceType": "MeasureReport",
      "id": "e376a894-c73f-46b2-a721-8ac1622e5f36",
      "meta": {
        "profile": [ "http://hl7.org/fhir/us/cqfmeasures/StructureDefinition/test-case-cqfm" ]
      },
      "contained": [ {
        "resourceType": "Parameters",
        "id": "86b11e0b-8aa5-49f0-9eeb-73b07c057ea6-parameters",
        "parameter": [ {
          "name": "subject",
          "valueString": "313f7916-7e09-40d2-bcb3-06cdf149cc79"
        } ]
      } ],
      "extension": [ {
        "url": "http://hl7.org/fhir/us/cqfmeasures/StructureDefinition/cqfm-inputParameters",
        "valueReference": {
          "reference": "#86b11e0b-8aa5-49f0-9eeb-73b07c057ea6-parameters"
        }
      }, {
        "url": "http://hl7.org/fhir/us/cqfmeasures/StructureDefinition/cqfm-testCaseDescription",
        "valueMarkdown": "Patient with hematocrit that starts 24 hours and 1 minute before ED OB Triage encounter.\n"
      } ],
      "modifierExtension": [ {
        "url": "http://hl7.org/fhir/us/cqfmeasures/StructureDefinition/cqfm-isTestCase",
        "valueBoolean": true
      } ],
      "status": "complete",
      "type": "individual",
      "measure": "https://madie.cms.gov/Measure/CMS1028FHIRPCSevereOBComps",
      "period": {
        "start": "2025-01-01",
        "end": "2025-12-31"
      },
      "group": [ {
        "population": [ {
          "code": {
            "coding": [ {
              "system": "http://terminology.hl7.org/CodeSystem/measure-population",
              "code": "initial-population",
              "display": "Initial Population"
            } ]
          },
          "count": 1
        }, {
          "code": {
            "coding": [ {
              "system": "http://terminology.hl7.org/CodeSystem/measure-population",
              "code": "denominator",
              "display": "Denominator"
            } ]
          },
          "count": 1
        }, {
          "code": {
            "coding": [ {
              "system": "http://terminology.hl7.org/CodeSystem/measure-population",
              "code": "numerator",
              "display": "Numerator"
            } ]
          },
          "count": 0
        }, {
          "code": {
            "coding": [ {
              "system": "http://terminology.hl7.org/CodeSystem/measure-population",
              "code": "numerator-exclusion",
              "display": "Numerator Exclusion"
            } ]
          },
          "count": 0
        } ]
      }, {
        "population": [ {
          "code": {
            "coding": [ {
              "system": "http://terminology.hl7.org/CodeSystem/measure-population",
              "code": "initial-population",
              "display": "Initial Population"
            } ]
          },
          "count": 1
        }, {
          "code": {
            "coding": [ {
              "system": "http://terminology.hl7.org/CodeSystem/measure-population",
              "code": "denominator",
              "display": "Denominator"
            } ]
          },
          "count": 1
        }, {
          "code": {
            "coding": [ {
              "system": "http://terminology.hl7.org/CodeSystem/measure-population",
              "code": "numerator",
              "display": "Numerator"
            } ]
          },
          "count": 0
        }, {
          "code": {
            "coding": [ {
              "system": "http://terminology.hl7.org/CodeSystem/measure-population",
              "code": "numerator-exclusion",
              "display": "Numerator Exclusion"
            } ]
          },
          "count": 0
        } ]
      } ],
      "evaluatedResource": [ {
        "reference": "Patient/313f7916-7e09-40d2-bcb3-06cdf149cc79"
      }, {
        "reference": "Observation/b4148461-a073-44f8-a3c8-dd71355c39af"
      }, {
        "reference": "Observation/85ce14c1-0ff8-4a48-93ce-c33258fbc597"
      }, {
        "reference": "Encounter/fbaa2c6a-8d05-4d0b-a38a-35d4297aefe3"
      }, {
        "reference": "Encounter/07dae727-5508-4d91-9c45-26a2fa5c35ab"
      }, {
        "reference": "Procedure/af3b39d8-542d-4a7c-864e-84cc5d3ac149"
      }, {
        "reference": "Observation/1ccd1319-d2d6-4ac9-bab3-ff2b66a6a44a"
      } ]
    },
    "request": {
      "method": "PUT",
      "url": "MeasureReport/e376a894-c73f-46b2-a721-8ac1622e5f36"
    }
  } ]
}