{
  "resourceType": "Bundle",
  "id": "633b3f9f0968f80122503cde",
  "type": "transaction",
  "entry": [ {
    "fullUrl": "https://madie.cms.gov/Patient/996cc735-1136-404d-9664-bd7912aafe9b",
    "resource": {
      "resourceType": "Patient",
      "id": "996cc735-1136-404d-9664-bd7912aafe9b",
      "meta": {
        "profile": [ "http://hl7.org/fhir/us/qicore/StructureDefinition/qicore-patient" ]
      },
      "text": {
        "status": "generated",
        "div": "<div xmlns=\"http://www.w3.org/1999/xhtml\"><div class=\"hapiHeaderText\">LastAssPrfEGARelvTm_00Hr00Min00Sec_EQLastTmDELRsltDtTime <b>DENOMPASS </b></div><table class=\"hapiPropertyTable\"><tbody><tr><td>Date of birth</td><td><span>01 February 2004</span></td></tr></tbody></table></div>"
      },
      "extension": [ {
        "url": "http://hl7.org/fhir/us/core/StructureDefinition/us-core-race",
        "extension": [ {
          "url": "ombCategory",
          "valueCoding": {
            "system": "urn:oid:2.16.840.1.113883.6.238",
            "code": "1002-5",
            "display": "American Indian or Alaska Native",
            "userSelected": true
          }
        }, {
          "url": "text",
          "valueString": "American Indian or Alaska Native"
        } ]
      }, {
        "url": "http://hl7.org/fhir/us/core/StructureDefinition/us-core-ethnicity",
        "extension": [ {
          "url": "ombCategory",
          "valueCoding": {
            "system": "urn:oid:2.16.840.1.113883.6.238",
            "code": "2135-2",
            "display": "Hispanic or Latino",
            "userSelected": true
          }
        }, {
          "url": "text",
          "valueString": "Hispanic or Latino"
        } ]
      } ],
      "identifier": [ {
        "type": {
          "coding": [ {
            "system": "http://terminology.hl7.org/CodeSystem/v2-0203",
            "code": "MR"
          } ]
        },
        "system": "https://bonnie-fhir.healthit.gov/",
        "value": "633b3f9f0968f80122503cde"
      } ],
      "active": true,
      "name": [ {
        "use": "usual",
        "family": "DENOMPass",
        "given": [ "LastAssPrfEGARelvTm_00Hr00Min00Sec_EQLastTmDELRsltDtTime" ]
      } ],
      "gender": "female",
      "birthDate": "2004-02-01"
    },
    "request": {
      "method": "PUT",
      "url": "Patient/996cc735-1136-404d-9664-bd7912aafe9b"
    }
  }, {
    "fullUrl": "https://madie.cms.gov/Observation/94c54904-da20-4808-b1b2-739803cef2df",
    "resource": {
      "resourceType": "Observation",
      "id": "94c54904-da20-4808-b1b2-739803cef2df",
      "meta": {
        "profile": [ "http://hl7.org/fhir/us/qicore/StructureDefinition/qicore-observation" ]
      },
      "status": "final",
      "category": [ {
        "coding": [ {
          "system": "http://terminology.hl7.org/CodeSystem/observation-category",
          "code": "exam",
          "display": "exam",
          "userSelected": true
        } ]
      } ],
      "code": {
        "coding": [ {
          "system": "http://loinc.org",
          "code": "93857-1"
        } ]
      },
      "subject": {
        "reference": "Patient/996cc735-1136-404d-9664-bd7912aafe9b"
      },
      "effectiveDateTime": "2025-02-01T08:00:00.000+00:00",
      "valueDateTime": "2025-02-01T08:00:00+00:00"
    },
    "request": {
      "method": "PUT",
      "url": "Observation/94c54904-da20-4808-b1b2-739803cef2df"
    }
  }, {
    "fullUrl": "https://madie.cms.gov/Observation/c153202f-e7d8-4234-910d-80e88073f6f9",
    "resource": {
      "resourceType": "Observation",
      "id": "c153202f-e7d8-4234-910d-80e88073f6f9",
      "meta": {
        "profile": [ "http://hl7.org/fhir/us/qicore/StructureDefinition/qicore-observation" ]
      },
      "status": "final",
      "category": [ {
        "coding": [ {
          "system": "http://terminology.hl7.org/CodeSystem/observation-category",
          "code": "exam",
          "display": "exam",
          "userSelected": true
        } ]
      } ],
      "code": {
        "coding": [ {
          "system": "http://loinc.org",
          "code": "11778-8"
        } ]
      },
      "subject": {
        "reference": "Patient/996cc735-1136-404d-9664-bd7912aafe9b"
      },
      "effectiveDateTime": "2025-02-01T08:00:00.000+00:00",
      "valueDateTime": "2025-02-01T08:00:00.000+00:00"
    },
    "request": {
      "method": "PUT",
      "url": "Observation/c153202f-e7d8-4234-910d-80e88073f6f9"
    }
  }, {
    "fullUrl": "https://madie.cms.gov/Encounter/b5eed913-9aed-462a-a28f-642c8fe5379b",
    "resource": {
      "resourceType": "Encounter",
      "id": "b5eed913-9aed-462a-a28f-642c8fe5379b",
      "meta": {
        "profile": [ "http://hl7.org/fhir/us/qicore/StructureDefinition/qicore-encounter" ]
      },
      "status": "finished",
      "class": {
        "system": "http://terminology.hl7.org/CodeSystem/v3-ActCode",
        "code": "IMP",
        "display": "inpatient encounter"
      },
      "type": [ {
        "coding": [ {
          "system": "http://snomed.info/sct",
          "code": "183452005"
        } ]
      } ],
      "subject": {
        "reference": "Patient/996cc735-1136-404d-9664-bd7912aafe9b"
      },
      "period": {
        "start": "2025-02-01T08:00:00.000Z",
        "end": "2025-02-05T08:15:00.000Z"
      }
    },
    "request": {
      "method": "PUT",
      "url": "Encounter/b5eed913-9aed-462a-a28f-642c8fe5379b"
    }
  }, {
    "fullUrl": "https://madie.cms.gov/Procedure/da35f187-9c69-43c0-ab59-82c9bd009604",
    "resource": {
      "resourceType": "Procedure",
      "id": "da35f187-9c69-43c0-ab59-82c9bd009604",
      "meta": {
        "profile": [ "http://hl7.org/fhir/us/qicore/StructureDefinition/qicore-procedure" ]
      },
      "extension": [ {
        "url": "http://hl7.org/fhir/us/qicore/StructureDefinition/qicore-recorded",
        "valueDateTime": "2013-04-05T09:35:00-04:00"
      } ],
      "status": "completed",
      "code": {
        "coding": [ {
          "system": "http://snomed.info/sct",
          "code": "10745001"
        } ]
      },
      "subject": {
        "reference": "Patient/996cc735-1136-404d-9664-bd7912aafe9b"
      },
      "performedPeriod": {
        "start": "2025-02-01T08:00:00.000Z",
        "end": "2025-02-05T08:15:00.000Z"
      }
    },
    "request": {
      "method": "PUT",
      "url": "Procedure/da35f187-9c69-43c0-ab59-82c9bd009604"
    }
  }, {
    "fullUrl": "https://madie.cms.gov/Coverage/04ff876d-6926-4d65-8a59-3e008eb76a1a",
    "resource": {
      "resourceType": "Coverage",
      "id": "04ff876d-6926-4d65-8a59-3e008eb76a1a",
      "meta": {
        "profile": [ "http://hl7.org/fhir/us/qicore/StructureDefinition/qicore-coverage" ]
      },
      "status": "active",
      "beneficiary": {
        "reference": "Patient/996cc735-1136-404d-9664-bd7912aafe9b"
      },
      "payor": [ {
        "reference": "Organization/53a46d0b-7597-4308-afbf-b964d9ea89b1"
      } ]
    },
    "request": {
      "method": "PUT",
      "url": "Coverage/04ff876d-6926-4d65-8a59-3e008eb76a1a"
    }
  }, {
    "fullUrl": "https://madie.cms.gov/Organization/53a46d0b-7597-4308-afbf-b964d9ea89b1",
    "resource": {
      "resourceType": "Organization",
      "id": "53a46d0b-7597-4308-afbf-b964d9ea89b1",
      "meta": {
        "profile": [ "http://hl7.org/fhir/us/qicore/StructureDefinition/qicore-organization" ]
      },
      "identifier": [ {
        "use": "temp",
        "system": "urn:oid:2.16.840.1.113883.4.4",
        "value": "21-3259825"
      } ],
      "active": true,
      "type": [ {
        "coding": [ {
          "system": "http://terminology.hl7.org/CodeSystem/organization-type",
          "code": "pay",
          "display": "Payer"
        } ]
      } ],
      "name": "Blue Cross Blue Shield of Texas",
      "telecom": [ {
        "system": "phone",
        "value": "(+1) 972-766-6900"
      } ],
      "address": [ {
        "use": "billing",
        "type": "postal",
        "line": [ "P.O. Box 660044" ],
        "city": "Dallas",
        "state": "TX",
        "postalCode": "75266-0044",
        "country": "USA"
      } ]
    },
    "request": {
      "method": "PUT",
      "url": "Organization/53a46d0b-7597-4308-afbf-b964d9ea89b1"
    }
  }, {
    "fullUrl": "https://madie.cms.gov/Practitioner/4aa2ee8b-4462-4e31-90d1-b51d3365ff7a",
    "resource": {
      "resourceType": "Practitioner",
      "id": "4aa2ee8b-4462-4e31-90d1-b51d3365ff7a",
      "identifier": [ {
        "system": "http://hl7.org/fhir/sid/us-npi",
        "value": "123456"
      } ],
      "name": [ {
        "family": "Evil",
        "prefix": [ "Dr" ]
      } ]
    },
    "request": {
      "method": "PUT",
      "url": "Practitioner/4aa2ee8b-4462-4e31-90d1-b51d3365ff7a"
    }
  }, {
    "fullUrl": "https://madie.cms.gov/MeasureReport/60c0b74b-ae40-45df-884b-217735a9c039",
    "resource": {
      "resourceType": "MeasureReport",
      "id": "60c0b74b-ae40-45df-884b-217735a9c039",
      "meta": {
        "profile": [ "http://hl7.org/fhir/us/cqfmeasures/StructureDefinition/test-case-cqfm" ]
      },
      "contained": [ {
        "resourceType": "Parameters",
        "id": "edf2ae4e-cdbf-4cd3-a72a-6d7f7b9473d9-parameters",
        "parameter": [ {
          "name": "subject",
          "valueString": "996cc735-1136-404d-9664-bd7912aafe9b"
        } ]
      } ],
      "extension": [ {
        "url": "http://hl7.org/fhir/us/cqfmeasures/StructureDefinition/cqfm-inputParameters",
        "valueReference": {
          "reference": "#edf2ae4e-cdbf-4cd3-a72a-6d7f7b9473d9-parameters"
        }
      }, {
        "url": "http://hl7.org/fhir/us/cqfmeasures/StructureDefinition/cqfm-testCaseDescription",
        "valueMarkdown": "Last assessment Performed, Estimated Delivery Date, Relevant time equal to  Delivery Result Date/Time\n"
      } ],
      "modifierExtension": [ {
        "url": "http://hl7.org/fhir/us/cqfmeasures/StructureDefinition/cqfm-isTestCase",
        "valueBoolean": true
      } ],
      "status": "complete",
      "type": "individual",
      "measure": "https://madie.cms.gov/Measure/CMS1028FHIRPCSevereOBComps",
      "period": {
        "start": "2025-01-01",
        "end": "2025-12-31"
      },
      "group": [ {
        "population": [ {
          "code": {
            "coding": [ {
              "system": "http://terminology.hl7.org/CodeSystem/measure-population",
              "code": "initial-population",
              "display": "Initial Population"
            } ]
          },
          "count": 1
        }, {
          "code": {
            "coding": [ {
              "system": "http://terminology.hl7.org/CodeSystem/measure-population",
              "code": "denominator",
              "display": "Denominator"
            } ]
          },
          "count": 1
        }, {
          "code": {
            "coding": [ {
              "system": "http://terminology.hl7.org/CodeSystem/measure-population",
              "code": "numerator",
              "display": "Numerator"
            } ]
          },
          "count": 0
        }, {
          "code": {
            "coding": [ {
              "system": "http://terminology.hl7.org/CodeSystem/measure-population",
              "code": "numerator-exclusion",
              "display": "Numerator Exclusion"
            } ]
          },
          "count": 0
        } ]
      }, {
        "population": [ {
          "code": {
            "coding": [ {
              "system": "http://terminology.hl7.org/CodeSystem/measure-population",
              "code": "initial-population",
              "display": "Initial Population"
            } ]
          },
          "count": 1
        }, {
          "code": {
            "coding": [ {
              "system": "http://terminology.hl7.org/CodeSystem/measure-population",
              "code": "denominator",
              "display": "Denominator"
            } ]
          },
          "count": 1
        }, {
          "code": {
            "coding": [ {
              "system": "http://terminology.hl7.org/CodeSystem/measure-population",
              "code": "numerator",
              "display": "Numerator"
            } ]
          },
          "count": 0
        }, {
          "code": {
            "coding": [ {
              "system": "http://terminology.hl7.org/CodeSystem/measure-population",
              "code": "numerator-exclusion",
              "display": "Numerator Exclusion"
            } ]
          },
          "count": 0
        } ]
      } ],
      "evaluatedResource": [ {
        "reference": "Patient/996cc735-1136-404d-9664-bd7912aafe9b"
      }, {
        "reference": "Observation/94c54904-da20-4808-b1b2-739803cef2df"
      }, {
        "reference": "Observation/c153202f-e7d8-4234-910d-80e88073f6f9"
      }, {
        "reference": "Encounter/b5eed913-9aed-462a-a28f-642c8fe5379b"
      }, {
        "reference": "Procedure/da35f187-9c69-43c0-ab59-82c9bd009604"
      }, {
        "reference": "Coverage/04ff876d-6926-4d65-8a59-3e008eb76a1a"
      }, {
        "reference": "Organization/53a46d0b-7597-4308-afbf-b964d9ea89b1"
      }, {
        "reference": "Practitioner/4aa2ee8b-4462-4e31-90d1-b51d3365ff7a"
      } ]
    },
    "request": {
      "method": "PUT",
      "url": "MeasureReport/60c0b74b-ae40-45df-884b-217735a9c039"
    }
  } ]
}