{
  "resourceType": "Bundle",
  "id": "NUMEXPass-2Encounters1Num1Exclusion",
  "type": "transaction",
  "entry": [ {
    "fullUrl": "https://madie.cms.gov/Encounter/0e065f11-66c0-4509-a8d9-d206e3817842",
    "resource": {
      "resourceType": "Encounter",
      "id": "0e065f11-66c0-4509-a8d9-d206e3817842",
      "meta": {
        "profile": [ "http://hl7.org/fhir/us/qicore/StructureDefinition/qicore-encounter" ]
      },
      "status": "finished",
      "class": {
        "system": "http://terminology.hl7.org/CodeSystem/v3-ActCode",
        "code": "IMP",
        "display": "inpatient encounter"
      },
      "type": [ {
        "coding": [ {
          "system": "http://snomed.info/sct",
          "code": "183452005"
        } ]
      } ],
      "subject": {
        "reference": "Patient/fd4ea84b-cd39-4d03-9641-9ca8d10bbe67"
      },
      "period": {
        "start": "2026-12-08T08:00:00+00:00",
        "end": "2026-12-12T08:15:00+00:00"
      },
      "diagnosis": [ {
        "extension": [ {
          "url": "http://hl7.org/fhir/us/qicore/StructureDefinition/qicore-encounter-diagnosisPresentOnAdmission",
          "valueCodeableConcept": {
            "coding": [ {
              "system": "https://www.cms.gov/Medicare/Medicare-Fee-for-Service-Payment/HospitalAcqCond/Coding",
              "code": "W"
            } ]
          }
        } ],
        "condition": {
          "reference": "Condition/c37d5a38-8fd7-43b7-8d2c-c4316cded4d1"
        }
      }, {
        "extension": [ {
          "url": "http://hl7.org/fhir/us/qicore/StructureDefinition/qicore-encounter-diagnosisPresentOnAdmission",
          "valueCodeableConcept": {
            "coding": [ {
              "system": "https://www.cms.gov/Medicare/Medicare-Fee-for-Service-Payment/HospitalAcqCond/Coding",
              "code": "N"
            } ]
          }
        } ],
        "condition": {
          "reference": "Condition/6ab3cedd-2d78-488d-b55b-458733981d5c"
        }
      } ]
    },
    "request": {
      "method": "PUT",
      "url": "Encounter/0e065f11-66c0-4509-a8d9-d206e3817842"
    }
  }, {
    "fullUrl": "https://madie.cms.gov/Encounter/f3a90b6a-2656-4b1c-a6f9-d4aa97a1e18d",
    "resource": {
      "resourceType": "Encounter",
      "id": "f3a90b6a-2656-4b1c-a6f9-d4aa97a1e18d",
      "meta": {
        "profile": [ "http://hl7.org/fhir/us/qicore/StructureDefinition/qicore-encounter" ]
      },
      "status": "finished",
      "class": {
        "system": "http://terminology.hl7.org/CodeSystem/v3-ActCode",
        "code": "IMP",
        "display": "inpatient encounter"
      },
      "type": [ {
        "coding": [ {
          "system": "http://snomed.info/sct",
          "code": "183452005"
        } ]
      } ],
      "subject": {
        "reference": "Patient/fd4ea84b-cd39-4d03-9641-9ca8d10bbe67"
      },
      "period": {
        "start": "2026-11-09T11:00:00+00:00",
        "end": "2026-11-12T08:15:00+00:00"
      },
      "diagnosis": [ {
        "extension": [ {
          "url": "http://hl7.org/fhir/us/qicore/StructureDefinition/qicore-encounter-diagnosisPresentOnAdmission",
          "valueCodeableConcept": {
            "coding": [ {
              "system": "https://www.cms.gov/Medicare/Medicare-Fee-for-Service-Payment/HospitalAcqCond/Coding",
              "code": "N"
            } ]
          }
        } ],
        "condition": {
          "reference": "Condition/e69eb8ab-64c5-4b6b-b45f-3922a00a4af4"
        }
      } ]
    },
    "request": {
      "method": "PUT",
      "url": "Encounter/f3a90b6a-2656-4b1c-a6f9-d4aa97a1e18d"
    }
  }, {
    "fullUrl": "https://madie.cms.gov/Condition/6ab3cedd-2d78-488d-b55b-458733981d5c",
    "resource": {
      "resourceType": "Condition",
      "id": "6ab3cedd-2d78-488d-b55b-458733981d5c",
      "meta": {
        "profile": [ "http://hl7.org/fhir/us/qicore/StructureDefinition/qicore-condition" ]
      },
      "clinicalStatus": {
        "coding": [ {
          "system": "http://terminology.hl7.org/CodeSystem/condition-clinical",
          "code": "active"
        } ]
      },
      "verificationStatus": {
        "coding": [ {
          "system": "http://terminology.hl7.org/CodeSystem/condition-ver-status",
          "code": "confirmed"
        } ]
      },
      "category": [ {
        "coding": [ {
          "system": "http://terminology.hl7.org/CodeSystem/condition-category",
          "code": "encounter-diagnosis",
          "display": "Encounter Diagnosis"
        } ]
      } ],
      "code": {
        "coding": [ {
          "system": "http://hl7.org/fhir/sid/icd-10-cm",
          "code": "M80.00XA"
        } ]
      },
      "subject": {
        "reference": "Patient/fd4ea84b-cd39-4d03-9641-9ca8d10bbe67"
      },
      "encounter": {
        "reference": "Encounter/0e065f11-66c0-4509-a8d9-d206e3817842"
      }
    },
    "request": {
      "method": "PUT",
      "url": "Condition/6ab3cedd-2d78-488d-b55b-458733981d5c"
    }
  }, {
    "fullUrl": "https://madie.cms.gov/Condition/c37d5a38-8fd7-43b7-8d2c-c4316cded4d1",
    "resource": {
      "resourceType": "Condition",
      "id": "c37d5a38-8fd7-43b7-8d2c-c4316cded4d1",
      "meta": {
        "profile": [ "http://hl7.org/fhir/us/qicore/StructureDefinition/qicore-condition" ]
      },
      "clinicalStatus": {
        "coding": [ {
          "system": "http://terminology.hl7.org/CodeSystem/condition-clinical",
          "code": "active"
        } ]
      },
      "verificationStatus": {
        "coding": [ {
          "system": "http://terminology.hl7.org/CodeSystem/condition-ver-status",
          "code": "confirmed"
        } ]
      },
      "category": [ {
        "coding": [ {
          "system": "http://terminology.hl7.org/CodeSystem/condition-category",
          "code": "encounter-diagnosis",
          "display": "Encounter Diagnosis"
        } ]
      } ],
      "code": {
        "coding": [ {
          "system": "http://hl7.org/fhir/sid/icd-10-cm",
          "code": "W01.0XXA"
        } ]
      },
      "subject": {
        "reference": "Patient/fd4ea84b-cd39-4d03-9641-9ca8d10bbe67"
      },
      "encounter": {
        "reference": "Encounter/0e065f11-66c0-4509-a8d9-d206e3817842"
      }
    },
    "request": {
      "method": "PUT",
      "url": "Condition/c37d5a38-8fd7-43b7-8d2c-c4316cded4d1"
    }
  }, {
    "fullUrl": "https://madie.cms.gov/Condition/e69eb8ab-64c5-4b6b-b45f-3922a00a4af4",
    "resource": {
      "resourceType": "Condition",
      "id": "e69eb8ab-64c5-4b6b-b45f-3922a00a4af4",
      "meta": {
        "profile": [ "http://hl7.org/fhir/us/qicore/StructureDefinition/qicore-condition" ]
      },
      "clinicalStatus": {
        "coding": [ {
          "system": "http://terminology.hl7.org/CodeSystem/condition-clinical",
          "code": "active"
        } ]
      },
      "verificationStatus": {
        "coding": [ {
          "system": "http://terminology.hl7.org/CodeSystem/condition-ver-status",
          "code": "confirmed"
        } ]
      },
      "category": [ {
        "coding": [ {
          "system": "http://terminology.hl7.org/CodeSystem/condition-category",
          "code": "encounter-diagnosis",
          "display": "Encounter Diagnosis"
        } ]
      } ],
      "code": {
        "coding": [ {
          "system": "http://hl7.org/fhir/sid/icd-10-cm",
          "code": "M80.00XA"
        } ]
      },
      "subject": {
        "reference": "Patient/fd4ea84b-cd39-4d03-9641-9ca8d10bbe67"
      },
      "encounter": {
        "reference": "Encounter/f3a90b6a-2656-4b1c-a6f9-d4aa97a1e18d"
      }
    },
    "request": {
      "method": "PUT",
      "url": "Condition/e69eb8ab-64c5-4b6b-b45f-3922a00a4af4"
    }
  }, {
    "fullUrl": "https://madie.cms.gov/Patient/fd4ea84b-cd39-4d03-9641-9ca8d10bbe67",
    "resource": {
      "resourceType": "Patient",
      "id": "fd4ea84b-cd39-4d03-9641-9ca8d10bbe67",
      "meta": {
        "profile": [ "http://hl7.org/fhir/us/qicore/StructureDefinition/qicore-patient" ]
      },
      "extension": [ {
        "url": "http://hl7.org/fhir/us/core/StructureDefinition/us-core-race",
        "extension": [ {
          "url": "ombCategory",
          "valueCoding": {
            "system": "urn:oid:2.16.840.1.113883.6.238",
            "code": "2054-5",
            "display": "Black or African American",
            "userSelected": true
          }
        }, {
          "url": "text",
          "valueString": "Black or African American"
        } ]
      }, {
        "url": "http://hl7.org/fhir/us/core/StructureDefinition/us-core-ethnicity",
        "extension": [ {
          "url": "ombCategory",
          "valueCoding": {
            "system": "urn:oid:2.16.840.1.113883.6.238",
            "code": "2186-5",
            "display": "Not Hispanic or Latino",
            "userSelected": true
          }
        }, {
          "url": "text",
          "valueString": "Not Hispanic or Latino"
        } ]
      } ],
      "identifier": [ {
        "type": {
          "coding": [ {
            "system": "http://terminology.hl7.org/CodeSystem/v2-0203",
            "code": "MR"
          } ]
        },
        "system": "https://bonnie-fhir.healthit.gov/",
        "value": "61152a3b98086b7a79cbd7c1"
      } ],
      "active": true,
      "name": [ {
        "use": "usual",
        "family": "NUMEXPass",
        "given": [ "2Encounters1Num1Exclusion" ]
      } ],
      "gender": "male",
      "birthDate": "1964-12-11"
    },
    "request": {
      "method": "PUT",
      "url": "Patient/fd4ea84b-cd39-4d03-9641-9ca8d10bbe67"
    }
  }, {
    "fullUrl": "https://madie.cms.gov/AdverseEvent/35fd22cb-6989-4478-941e-64cf1739fc48",
    "resource": {
      "resourceType": "AdverseEvent",
      "id": "35fd22cb-6989-4478-941e-64cf1739fc48",
      "meta": {
        "profile": [ "http://hl7.org/fhir/us/qicore/StructureDefinition/qicore-adverseevent" ]
      },
      "actuality": "actual",
      "event": {
        "coding": [ {
          "system": "http://hl7.org/fhir/sid/icd-10-cm",
          "code": "W01.0XXA"
        } ]
      },
      "subject": {
        "reference": "Patient/fd4ea84b-cd39-4d03-9641-9ca8d10bbe67"
      },
      "date": "2026-12-09T08:00:00+00:00"
    },
    "request": {
      "method": "PUT",
      "url": "AdverseEvent/35fd22cb-6989-4478-941e-64cf1739fc48"
    }
  }, {
    "fullUrl": "https://madie.cms.gov/AdverseEvent/aec520de-0e36-4f8f-9096-2f3dd34b2ebe",
    "resource": {
      "resourceType": "AdverseEvent",
      "id": "aec520de-0e36-4f8f-9096-2f3dd34b2ebe",
      "meta": {
        "profile": [ "http://hl7.org/fhir/us/qicore/StructureDefinition/qicore-adverseevent" ]
      },
      "actuality": "actual",
      "event": {
        "coding": [ {
          "system": "http://hl7.org/fhir/sid/icd-10-cm",
          "code": "W01.0XXA"
        } ]
      },
      "subject": {
        "reference": "Patient/fd4ea84b-cd39-4d03-9641-9ca8d10bbe67"
      },
      "date": "2026-11-09T08:00:00+00:00"
    },
    "request": {
      "method": "PUT",
      "url": "AdverseEvent/aec520de-0e36-4f8f-9096-2f3dd34b2ebe"
    }
  }, {
    "fullUrl": "https://madie.cms.gov/MeasureReport/d7c8ec4f-5be1-4c0c-9c28-e411ea455ec2",
    "resource": {
      "resourceType": "MeasureReport",
      "id": "d7c8ec4f-5be1-4c0c-9c28-e411ea455ec2",
      "meta": {
        "profile": [ "http://hl7.org/fhir/us/cqfmeasures/StructureDefinition/test-case-cqfm" ]
      },
      "contained": [ {
        "resourceType": "Parameters",
        "id": "12735c74-b0cb-4aab-8efc-6ef97bd0eba2-parameters",
        "parameter": [ {
          "name": "subject",
          "valueString": "fd4ea84b-cd39-4d03-9641-9ca8d10bbe67"
        } ]
      } ],
      "extension": [ {
        "url": "http://hl7.org/fhir/us/cqfmeasures/StructureDefinition/cqfm-inputParameters",
        "valueReference": {
          "reference": "#12735c74-b0cb-4aab-8efc-6ef97bd0eba2-parameters"
        }
      }, {
        "url": "http://hl7.org/fhir/us/cqfmeasures/StructureDefinition/cqfm-testCaseDescription",
        "valueMarkdown": "Enc 1: Adverse Event Fall in Observation. Injury NPOA. Meets Num. Num MO = 1, Den MO = 3 \nEnc 2:  Fall POA. Injury NPOA and adverse event Fall during encounter meets Num. But fall POA excludes from Num and Denom MOs. "
      } ],
      "modifierExtension": [ {
        "url": "http://hl7.org/fhir/us/cqfmeasures/StructureDefinition/cqfm-isTestCase",
        "valueBoolean": true
      } ],
      "status": "complete",
      "type": "individual",
      "measure": "https://madie.cms.gov/Measure/FallsWithInjuryFHIR",
      "period": {
        "start": "2026-01-01",
        "end": "2026-12-31"
      },
      "group": [ {
        "population": [ {
          "code": {
            "coding": [ {
              "system": "http://terminology.hl7.org/CodeSystem/measure-population",
              "code": "initial-population",
              "display": "Initial Population"
            } ]
          },
          "count": 2
        }, {
          "code": {
            "coding": [ {
              "system": "http://terminology.hl7.org/CodeSystem/measure-population",
              "code": "denominator",
              "display": "Denominator"
            } ]
          },
          "count": 2
        }, {
          "code": {
            "coding": [ {
              "system": "http://terminology.hl7.org/CodeSystem/measure-population",
              "code": "denominator-exclusion",
              "display": "Denominator Exclusion"
            } ]
          },
          "count": 1
        }, {
          "code": {
            "coding": [ {
              "system": "http://terminology.hl7.org/CodeSystem/measure-population",
              "code": "numerator",
              "display": "Numerator"
            } ]
          },
          "count": 1
        }, {
          "code": {
            "coding": [ {
              "system": "http://terminology.hl7.org/CodeSystem/measure-population",
              "code": "numerator-exclusion",
              "display": "Numerator Exclusion"
            } ]
          },
          "count": 1
        }, {
          "code": {
            "coding": [ {
              "system": "http://terminology.hl7.org/CodeSystem/measure-population",
              "code": "denominator-observation",
              "display": "DenominatorObservation"
            } ]
          },
          "count": 4
        } ]
      } ],
      "evaluatedResource": [ {
        "reference": "Encounter/0e065f11-66c0-4509-a8d9-d206e3817842"
      }, {
        "reference": "Encounter/f3a90b6a-2656-4b1c-a6f9-d4aa97a1e18d"
      }, {
        "reference": "Condition/6ab3cedd-2d78-488d-b55b-458733981d5c"
      }, {
        "reference": "Condition/c37d5a38-8fd7-43b7-8d2c-c4316cded4d1"
      }, {
        "reference": "Condition/e69eb8ab-64c5-4b6b-b45f-3922a00a4af4"
      }, {
        "reference": "Patient/fd4ea84b-cd39-4d03-9641-9ca8d10bbe67"
      }, {
        "reference": "AdverseEvent/35fd22cb-6989-4478-941e-64cf1739fc48"
      }, {
        "reference": "AdverseEvent/aec520de-0e36-4f8f-9096-2f3dd34b2ebe"
      } ]
    },
    "request": {
      "method": "PUT",
      "url": "MeasureReport/d7c8ec4f-5be1-4c0c-9c28-e411ea455ec2"
    }
  } ]
}