{
  "resourceType": "Bundle",
  "id": "617bfeac1289f5673c8ceffc",
  "type": "transaction",
  "entry": [ {
    "fullUrl": "https://madie.cms.gov/Patient/983dd667-8c61-4797-9b71-1fa56b2c0a0f",
    "resource": {
      "resourceType": "Patient",
      "id": "983dd667-8c61-4797-9b71-1fa56b2c0a0f",
      "meta": {
        "profile": [ "http://hl7.org/fhir/us/qicore/StructureDefinition/qicore-patient" ]
      },
      "extension": [ {
        "url": "http://hl7.org/fhir/us/core/StructureDefinition/us-core-race",
        "extension": [ {
          "url": "ombCategory",
          "valueCoding": {
            "system": "urn:oid:2.16.840.1.113883.6.238",
            "code": "2076-8",
            "display": "Native Hawaiian or Other Pacific Islander",
            "userSelected": true
          }
        }, {
          "url": "text",
          "valueString": "Native Hawaiian or Other Pacific Islander"
        } ]
      }, {
        "url": "http://hl7.org/fhir/us/core/StructureDefinition/us-core-ethnicity",
        "extension": [ {
          "url": "ombCategory",
          "valueCoding": {
            "system": "urn:oid:2.16.840.1.113883.6.238",
            "code": "2135-2",
            "display": "Hispanic or Latino",
            "userSelected": true
          }
        }, {
          "url": "text",
          "valueString": "Hispanic or Latino"
        } ]
      } ],
      "identifier": [ {
        "type": {
          "coding": [ {
            "system": "http://terminology.hl7.org/CodeSystem/v2-0203",
            "code": "MR"
          } ]
        },
        "system": "https://bonnie-fhir.healthit.gov/",
        "value": "617bfeac1289f5673c8ceffc"
      } ],
      "name": [ {
        "family": "DenExcl9Pass",
        "given": [ "AdverseEventStartsDuringED" ]
      } ],
      "gender": "female",
      "birthDate": "1985-12-02"
    },
    "request": {
      "method": "PUT",
      "url": "Patient/983dd667-8c61-4797-9b71-1fa56b2c0a0f"
    }
  }, {
    "fullUrl": "https://madie.cms.gov/Encounter/8ac6247f-6ef7-473e-9cd4-7ed7713ba07f",
    "resource": {
      "resourceType": "Encounter",
      "id": "8ac6247f-6ef7-473e-9cd4-7ed7713ba07f",
      "meta": {
        "profile": [ "http://hl7.org/fhir/us/qicore/StructureDefinition/qicore-encounter" ]
      },
      "status": "finished",
      "class": {
        "system": "http://terminology.hl7.org/CodeSystem/v3-ActCode",
        "code": "EMER",
        "display": "emergency",
        "userSelected": true
      },
      "type": [ {
        "coding": [ {
          "system": "http://snomed.info/sct",
          "version": "2020-09",
          "code": "4525004",
          "display": "Emergency department patient visit (procedure)",
          "userSelected": true
        } ]
      } ],
      "subject": {
        "reference": "Patient/983dd667-8c61-4797-9b71-1fa56b2c0a0f"
      },
      "period": {
        "start": "2026-10-09T08:05:00.000+00:00",
        "end": "2026-10-10T07:15:00.000+00:00"
      },
      "reasonCode": [ {
        "coding": [ {
          "system": "http://hl7.org/fhir/sid/icd-10-cm",
          "version": "2021",
          "code": "I21.21",
          "display": "ST elevation (STEMI) myocardial infarction involving left circumflex coronary artery",
          "userSelected": true
        } ]
      } ]
    },
    "request": {
      "method": "PUT",
      "url": "Encounter/8ac6247f-6ef7-473e-9cd4-7ed7713ba07f"
    }
  }, {
    "fullUrl": "https://madie.cms.gov/AdverseEvent/9d26a974-56c8-476c-8ad8-031b772d1111",
    "resource": {
      "resourceType": "AdverseEvent",
      "id": "9d26a974-56c8-476c-8ad8-031b772d1111",
      "meta": {
        "profile": [ "http://hl7.org/fhir/us/qicore/StructureDefinition/qicore-adverseevent" ]
      },
      "actuality": "actual",
      "event": {
        "coding": [ {
          "system": "http://snomed.info/sct",
          "code": "293572000",
          "display": "Urokinase adverse reaction (disorder)",
          "userSelected": true
        } ]
      },
      "subject": {
        "reference": "Patient/983dd667-8c61-4797-9b71-1fa56b2c0a0f"
      },
      "recordedDate": "2026-10-09T11:05:00.000+00:00"
    },
    "request": {
      "method": "PUT",
      "url": "AdverseEvent/9d26a974-56c8-476c-8ad8-031b772d1111"
    }
  }, {
    "fullUrl": "https://madie.cms.gov/MeasureReport/e83b5ba8-9d54-4025-9865-36e260c682b0",
    "resource": {
      "resourceType": "MeasureReport",
      "id": "e83b5ba8-9d54-4025-9865-36e260c682b0",
      "meta": {
        "profile": [ "http://hl7.org/fhir/us/cqfmeasures/StructureDefinition/test-case-cqfm" ]
      },
      "contained": [ {
        "resourceType": "Parameters",
        "id": "78d8db7e-2968-4d79-9a64-c619d16f22e0-parameters",
        "parameter": [ {
          "name": "subject",
          "valueString": "983dd667-8c61-4797-9b71-1fa56b2c0a0f"
        } ]
      } ],
      "extension": [ {
        "url": "http://hl7.org/fhir/us/cqfmeasures/StructureDefinition/cqfm-inputParameters",
        "valueReference": {
          "reference": "#78d8db7e-2968-4d79-9a64-c619d16f22e0-parameters"
        }
      }, {
        "url": "http://hl7.org/fhir/us/cqfmeasures/StructureDefinition/cqfm-testCaseDescription",
        "valueMarkdown": "Patient has adverse event starts during ED"
      } ],
      "modifierExtension": [ {
        "url": "http://hl7.org/fhir/us/cqfmeasures/StructureDefinition/cqfm-isTestCase",
        "valueBoolean": true
      } ],
      "status": "complete",
      "type": "individual",
      "measure": "https://madie.cms.gov/Measure/CMS996FHIRAptTxforSTEMI",
      "period": {
        "start": "2026-01-01",
        "end": "2026-12-31"
      },
      "group": [ {
        "population": [ {
          "code": {
            "coding": [ {
              "system": "http://terminology.hl7.org/CodeSystem/measure-population",
              "code": "initial-population",
              "display": "Initial Population"
            } ]
          },
          "count": 1
        }, {
          "code": {
            "coding": [ {
              "system": "http://terminology.hl7.org/CodeSystem/measure-population",
              "code": "denominator",
              "display": "Denominator"
            } ]
          },
          "count": 1
        }, {
          "code": {
            "coding": [ {
              "system": "http://terminology.hl7.org/CodeSystem/measure-population",
              "code": "denominator-exclusion",
              "display": "Denominator Exclusion"
            } ]
          },
          "count": 1
        }, {
          "code": {
            "coding": [ {
              "system": "http://terminology.hl7.org/CodeSystem/measure-population",
              "code": "numerator",
              "display": "Numerator"
            } ]
          },
          "count": 0
        }, {
          "code": {
            "coding": [ {
              "system": "http://terminology.hl7.org/CodeSystem/measure-population",
              "code": "denominator-exception",
              "display": "Denominator Exception"
            } ]
          },
          "count": 0
        } ]
      } ],
      "evaluatedResource": [ {
        "reference": "Patient/983dd667-8c61-4797-9b71-1fa56b2c0a0f"
      }, {
        "reference": "Encounter/8ac6247f-6ef7-473e-9cd4-7ed7713ba07f"
      }, {
        "reference": "AdverseEvent/9d26a974-56c8-476c-8ad8-031b772d1111"
      } ]
    },
    "request": {
      "method": "PUT",
      "url": "MeasureReport/e83b5ba8-9d54-4025-9865-36e260c682b0"
    }
  } ]
}