{"resourceType":"Bundle","id":"tests-1b578088-a482-48aa-8b18-1ffe878f3ab5-bundle","type":"transaction","entry":[{"fullUrl":"https://madie.cms.gov/Patient/1b578088-a482-48aa-8b18-1ffe878f3ab5","resource":{"resourceType":"Patient","id":"1b578088-a482-48aa-8b18-1ffe878f3ab5","meta":{"profile":["http://hl7.org/fhir/us/qicore/StructureDefinition/qicore-patient"]},"extension":[{"url":"http://hl7.org/fhir/us/core/StructureDefinition/us-core-race","extension":[{"url":"ombCategory","valueCoding":{"system":"urn:oid:2.16.840.1.113883.6.238","code":"2028-9","display":"Asian"}},{"url":"text","valueString":"Asian"}]},{"url":"http://hl7.org/fhir/us/core/StructureDefinition/us-core-ethnicity","extension":[{"url":"ombCategory","valueCoding":{"system":"urn:oid:2.16.840.1.113883.6.238","code":"2135-2","display":"Hispanic or Latino"}},{"url":"text","valueString":"Hispanic or Latino"}]}],"identifier":[{"system":"http://hospital.smarthealthit.org","value":"999999995"}],"name":[{"family":"Bertha","given":["Betty"]}],"gender":"female","birthDate":"2007-01-01"},"request":{"method":"PUT","url":"Patient/1b578088-a482-48aa-8b18-1ffe878f3ab5"}},{"fullUrl":"https://madie.cms.gov/Encounter/Encounter-18","resource":{"resourceType":"Encounter","id":"5636e153-0bff-4c03-8dcc-153195b3dc53","meta":{"profile":["http://hl7.org/fhir/us/qicore/StructureDefinition/qicore-encounter"]},"status":"finished","class":{"system":"http://terminology.hl7.org/CodeSystem/v3-ActCode","code":"AMB","display":"ambulatory"},"type":[{"coding":[{"system":"http://snomed.info/sct","code":"185317003","display":"Telephone encounter (procedure)"}]}],"subject":{"reference":"Patient/1b578088-a482-48aa-8b18-1ffe878f3ab5"},"period":{"start":"2025-01-01T01:00:00.000Z","end":"2025-01-01T01:15:00.000Z"}},"request":{"method":"PUT","url":"Encounter/5636e153-0bff-4c03-8dcc-153195b3dc53"}},{"fullUrl":"https://madie.cms.gov/Encounter/Encounter-19","resource":{"resourceType":"Encounter","id":"72a3b787-5d88-4ee6-92c5-2a0d2ea86723","meta":{"profile":["http://hl7.org/fhir/us/qicore/StructureDefinition/qicore-encounter"]},"status":"finished","class":{"system":"http://terminology.hl7.org/CodeSystem/v3-ActCode","code":"AMB","display":"ambulatory"},"type":[{"coding":[{"system":"http://snomed.info/sct","code":"185317003","display":"Telephone encounter (procedure)"}]}],"subject":{"reference":"Patient/1b578088-a482-48aa-8b18-1ffe878f3ab5"},"period":{"start":"2025-01-02T01:00:00.000Z","end":"2025-01-02T01:15:00.000Z"}},"request":{"method":"PUT","url":"Encounter/72a3b787-5d88-4ee6-92c5-2a0d2ea86723"}},{"fullUrl":"https://madie.cms.gov/Condition/Condition-9","resource":{"resourceType":"Condition","id":"d7fd5a81-aa37-4b74-a8ae-e573c9db07e1","meta":{"profile":["http://hl7.org/fhir/us/qicore/StructureDefinition/qicore-condition"]},"clinicalStatus":{"coding":[{"system":"http://terminology.hl7.org/CodeSystem/condition-clinical","code":"active"}]},"category":[{"coding":[{"system":"http://terminology.hl7.org/CodeSystem/condition-category","code":"problem-list-item","display":"Problem List Item"}]}],"code":{"coding":[{"system":"http://snomed.info/sct","code":"10091002","display":"High output heart failure (disorder)"}]},"subject":{"reference":"Patient/1b578088-a482-48aa-8b18-1ffe878f3ab5"},"onsetDateTime":"2024-12-31T23:59:00.000Z"},"request":{"method":"PUT","url":"Condition/d7fd5a81-aa37-4b74-a8ae-e573c9db07e1"}},{"fullUrl":"https://madie.cms.gov/Observation/Observation-22","resource":{"resourceType":"Observation","id":"1bce37b1-d0f3-4a55-aa71-1b4d9c6987ab","meta":{"profile":["http://hl7.org/fhir/us/qicore/StructureDefinition/qicore-observation"]},"status":"final","category":[{"coding":[{"system":"http://terminology.hl7.org/CodeSystem/observation-category","code":"survey","display":"survey"}],"text":"survey"}],"code":{"coding":[{"system":"http://loinc.org","code":"72026-8","display":"VR-12 Mental component summary (MCS) score - oblique method T-score"}]},"subject":{"reference":"Patient/1b578088-a482-48aa-8b18-1ffe878f3ab5"},"effectivePeriod":{"start":"2025-01-01T23:00:00.000Z","end":"2025-01-01T23:59:00.000Z"},"valueInteger":4},"request":{"method":"PUT","url":"Observation/1bce37b1-d0f3-4a55-aa71-1b4d9c6987ab"}},{"fullUrl":"https://madie.cms.gov/Observation/Observation-23","resource":{"resourceType":"Observation","id":"35ec4244-e132-48e7-83dc-728b087e6e21","meta":{"profile":["http://hl7.org/fhir/us/qicore/StructureDefinition/qicore-observation"]},"status":"final","category":[{"coding":[{"system":"http://terminology.hl7.org/CodeSystem/observation-category","code":"survey","display":"survey"}],"text":"survey"}],"code":{"coding":[{"system":"http://loinc.org","code":"72026-8","display":"VR-12 Mental component summary (MCS) score - oblique method T-score"}]},"subject":{"reference":"Patient/1b578088-a482-48aa-8b18-1ffe878f3ab5"},"effectivePeriod":{"start":"2025-01-31T23:00:00.000Z","end":"2025-01-31T23:59:00.000Z"},"valueInteger":4},"request":{"method":"PUT","url":"Observation/35ec4244-e132-48e7-83dc-728b087e6e21"}},{"fullUrl":"https://madie.cms.gov/Observation/Observation-24","resource":{"resourceType":"Observation","id":"74e1794e-bf2c-464d-ade3-4149154d4402","meta":{"profile":["http://hl7.org/fhir/us/qicore/StructureDefinition/qicore-observation"]},"status":"final","category":[{"coding":[{"system":"http://terminology.hl7.org/CodeSystem/observation-category","code":"survey","display":"survey"}],"text":"survey"}],"code":{"coding":[{"system":"http://loinc.org","code":"72025-0","display":"VR-12 Physical component summary (PCS) score - oblique method T-score"}]},"subject":{"reference":"Patient/1b578088-a482-48aa-8b18-1ffe878f3ab5"},"effectivePeriod":{"start":"2025-01-01T23:00:00.000Z","end":"2025-01-01T23:59:00.000Z"},"valueInteger":4},"request":{"method":"PUT","url":"Observation/74e1794e-bf2c-464d-ade3-4149154d4402"}},{"fullUrl":"https://madie.cms.gov/Observation/Observation-25","resource":{"resourceType":"Observation","id":"41d8b860-c3b9-491a-8205-d6d9486d3041","meta":{"profile":["http://hl7.org/fhir/us/qicore/StructureDefinition/qicore-observation"]},"status":"final","category":[{"coding":[{"system":"http://terminology.hl7.org/CodeSystem/observation-category","code":"survey","display":"survey"}],"text":"survey"}],"code":{"coding":[{"system":"http://loinc.org","code":"72025-0","display":"VR-12 Physical component summary (PCS) score - oblique method T-score"}]},"subject":{"reference":"Patient/1b578088-a482-48aa-8b18-1ffe878f3ab5"},"effectivePeriod":{"start":"2025-01-31T23:00:00.000Z","end":"2025-01-31T23:59:00.000Z"},"valueInteger":4},"request":{"method":"PUT","url":"Observation/41d8b860-c3b9-491a-8205-d6d9486d3041"}},{"fullUrl":"https://madie.cms.gov/MeasureReport/9c322d19-9a52-4be6-9d91-5a25930a6c14","resource":{"resourceType":"MeasureReport","id":"9c322d19-9a52-4be6-9d91-5a25930a6c14","meta":{"profile":["http://hl7.org/fhir/us/cqfmeasures/StructureDefinition/test-case-cqfm"]},"contained":[{"resourceType":"Parameters","id":"9a2bb563-2dfa-418b-8bc8-a9be555ad7d1-parameters","parameter":[{"name":"subject","valueString":"1b578088-a482-48aa-8b18-1ffe878f3ab5"}]}],"extension":[{"url":"http://hl7.org/fhir/us/cqfmeasures/StructureDefinition/cqfm-inputParameters","valueReference":{"reference":"#9a2bb563-2dfa-418b-8bc8-a9be555ad7d1-parameters"}},{"url":"http://hl7.org/fhir/us/cqfmeasures/StructureDefinition/cqfm-testCaseDescription","valueMarkdown":"Patient has all VR12 Oblique results during the correct timeframe."}],"modifierExtension":[{"url":"http://hl7.org/fhir/us/cqfmeasures/StructureDefinition/cqfm-isTestCase","valueBoolean":true}],"status":"complete","type":"individual","measure":"https://madie.cms.gov/Measure/FunctionalStatusAssessmentsforHeartFailureFHIR","period":{"start":"2025-01-01","end":"2025-12-31"},"group":[{"population":[{"code":{"coding":[{"system":"http://terminology.hl7.org/CodeSystem/measure-population","code":"initial-population","display":"Initial Population"}]},"count":1},{"code":{"coding":[{"system":"http://terminology.hl7.org/CodeSystem/measure-population","code":"denominator","display":"Denominator"}]},"count":1},{"code":{"coding":[{"system":"http://terminology.hl7.org/CodeSystem/measure-population","code":"denominator-exclusion","display":"Denominator Exclusion"}]},"count":0},{"code":{"coding":[{"system":"http://terminology.hl7.org/CodeSystem/measure-population","code":"numerator","display":"Numerator"}]},"count":1}]}]},"request":{"method":"PUT","url":"MeasureReport/9c322d19-9a52-4be6-9d91-5a25930a6c14"}}]}