{"resourceType":"Bundle","id":"tests-ed4a1e1b-c0c7-473b-a685-284b1ae08afb-bundle","type":"transaction","entry":[{"fullUrl":"https://madie.cms.gov/Patient/ed4a1e1b-c0c7-473b-a685-284b1ae08afb","resource":{"resourceType":"Patient","id":"ed4a1e1b-c0c7-473b-a685-284b1ae08afb","meta":{"profile":["http://hl7.org/fhir/us/qicore/StructureDefinition/qicore-patient"]},"extension":[{"url":"http://hl7.org/fhir/us/core/StructureDefinition/us-core-race","extension":[{"url":"ombCategory","valueCoding":{"system":"urn:oid:2.16.840.1.113883.6.238","code":"2028-9","display":"Asian"}},{"url":"text","valueString":"Asian"}]},{"url":"http://hl7.org/fhir/us/core/StructureDefinition/us-core-ethnicity","extension":[{"url":"ombCategory","valueCoding":{"system":"urn:oid:2.16.840.1.113883.6.238","code":"2135-2","display":"Hispanic or Latino"}},{"url":"text","valueString":"Hispanic or Latino"}]}],"identifier":[{"system":"http://hospital.smarthealthit.org","value":"999999995"}],"name":[{"family":"Bertha","given":["Betty"]}],"gender":"female","birthDate":"2007-01-01"},"request":{"method":"PUT","url":"Patient/ed4a1e1b-c0c7-473b-a685-284b1ae08afb"}},{"fullUrl":"https://madie.cms.gov/Encounter/Encounter-36","resource":{"resourceType":"Encounter","id":"6bc55173-8bb2-400b-a6b5-568a33c2dace","meta":{"profile":["http://hl7.org/fhir/us/qicore/StructureDefinition/qicore-encounter"]},"status":"finished","class":{"system":"http://terminology.hl7.org/CodeSystem/v3-ActCode","code":"AMB","display":"ambulatory"},"type":[{"coding":[{"system":"http://snomed.info/sct","code":"185317003","display":"Telephone encounter (procedure)"}]}],"subject":{"reference":"Patient/ed4a1e1b-c0c7-473b-a685-284b1ae08afb"},"period":{"start":"2025-01-01T01:00:00.000Z","end":"2025-01-01T01:15:00.000Z"}},"request":{"method":"PUT","url":"Encounter/6bc55173-8bb2-400b-a6b5-568a33c2dace"}},{"fullUrl":"https://madie.cms.gov/Encounter/Encounter-37","resource":{"resourceType":"Encounter","id":"b2a9600c-a07d-4208-bc79-a5fb3cdfeb4d","meta":{"profile":["http://hl7.org/fhir/us/qicore/StructureDefinition/qicore-encounter"]},"status":"finished","class":{"system":"http://terminology.hl7.org/CodeSystem/v3-ActCode","code":"AMB","display":"ambulatory"},"type":[{"coding":[{"system":"http://snomed.info/sct","code":"185317003","display":"Telephone encounter (procedure)"}]}],"subject":{"reference":"Patient/ed4a1e1b-c0c7-473b-a685-284b1ae08afb"},"period":{"start":"2025-01-02T01:00:00.000Z","end":"2025-01-02T01:15:00.000Z"}},"request":{"method":"PUT","url":"Encounter/b2a9600c-a07d-4208-bc79-a5fb3cdfeb4d"}},{"fullUrl":"https://madie.cms.gov/Condition/Condition-18","resource":{"resourceType":"Condition","id":"040aeb0b-06f3-44e2-99b3-b7928a174477","meta":{"profile":["http://hl7.org/fhir/us/qicore/StructureDefinition/qicore-condition"]},"clinicalStatus":{"coding":[{"system":"http://terminology.hl7.org/CodeSystem/condition-clinical","code":"active"}]},"category":[{"coding":[{"system":"http://terminology.hl7.org/CodeSystem/condition-category","code":"problem-list-item","display":"Problem List Item"}]}],"code":{"coding":[{"system":"http://snomed.info/sct","code":"10091002","display":"High output heart failure (disorder)"}]},"subject":{"reference":"Patient/ed4a1e1b-c0c7-473b-a685-284b1ae08afb"},"onsetDateTime":"2024-12-31T23:59:00.000Z"},"request":{"method":"PUT","url":"Condition/040aeb0b-06f3-44e2-99b3-b7928a174477"}},{"fullUrl":"https://madie.cms.gov/Observation/Observation-53","resource":{"resourceType":"Observation","id":"9a2e8ab1-6f0d-4055-a5c7-6dd4a6c62f84","meta":{"profile":["http://hl7.org/fhir/us/qicore/StructureDefinition/qicore-observation"]},"status":"final","category":[{"coding":[{"system":"http://terminology.hl7.org/CodeSystem/observation-category","code":"survey","display":"survey"}],"text":"survey"}],"code":{"coding":[{"system":"http://loinc.org","code":"86923-0","display":"Kansas City Cardiomyopathy Questionnaire - 12 item [KCCQ-12]"}]},"subject":{"reference":"Patient/ed4a1e1b-c0c7-473b-a685-284b1ae08afb"},"effectivePeriod":{"start":"2025-01-01T23:00:00.000Z","end":"2025-01-01T23:59:00.000Z"},"valueInteger":4},"request":{"method":"PUT","url":"Observation/9a2e8ab1-6f0d-4055-a5c7-6dd4a6c62f84"}},{"fullUrl":"https://madie.cms.gov/Observation/Observation-54","resource":{"resourceType":"Observation","id":"15a2bc69-005d-4f0b-8eb6-b6d8a4884758","meta":{"profile":["http://hl7.org/fhir/us/qicore/StructureDefinition/qicore-observation"]},"status":"final","category":[{"coding":[{"system":"http://terminology.hl7.org/CodeSystem/observation-category","code":"survey","display":"survey"}],"text":"survey"}],"code":{"coding":[{"system":"http://loinc.org","code":"86923-0","display":"Kansas City Cardiomyopathy Questionnaire - 12 item [KCCQ-12]"}]},"subject":{"reference":"Patient/ed4a1e1b-c0c7-473b-a685-284b1ae08afb"},"effectivePeriod":{"start":"2025-01-31T23:00:00.000Z","end":"2025-01-31T23:59:00.000Z"},"valueInteger":4},"request":{"method":"PUT","url":"Observation/15a2bc69-005d-4f0b-8eb6-b6d8a4884758"}},{"fullUrl":"https://madie.cms.gov/Observation/Observation-55","resource":{"resourceType":"Observation","id":"b0e44603-2481-42d7-8ce0-e7360a1adfe5","meta":{"profile":["http://hl7.org/fhir/us/qicore/StructureDefinition/qicore-observation"]},"status":"final","category":[{"coding":[{"system":"http://terminology.hl7.org/CodeSystem/observation-category","code":"survey","display":"survey"}],"text":"survey"}],"code":{"coding":[{"system":"http://loinc.org","code":"86924-8","display":"Overall summary score [KCCQ-12]"}]},"subject":{"reference":"Patient/ed4a1e1b-c0c7-473b-a685-284b1ae08afb"},"effectivePeriod":{"start":"2025-01-01T23:00:00.000Z","end":"2025-01-01T23:59:00.000Z"},"valueInteger":4},"request":{"method":"PUT","url":"Observation/b0e44603-2481-42d7-8ce0-e7360a1adfe5"}},{"fullUrl":"https://madie.cms.gov/Observation/Observation-56","resource":{"resourceType":"Observation","id":"65b415b5-537f-491c-a707-f3c07b18b2bd","meta":{"profile":["http://hl7.org/fhir/us/qicore/StructureDefinition/qicore-observation"]},"status":"final","category":[{"coding":[{"system":"http://terminology.hl7.org/CodeSystem/observation-category","code":"survey","display":"survey"}],"text":"survey"}],"code":{"coding":[{"system":"http://loinc.org","code":"86924-8","display":"Overall summary score [KCCQ-12]"}]},"subject":{"reference":"Patient/ed4a1e1b-c0c7-473b-a685-284b1ae08afb"},"effectivePeriod":{"start":"2025-01-31T23:00:00.000Z","end":"2025-01-31T23:59:00.000Z"},"valueInteger":4},"request":{"method":"PUT","url":"Observation/65b415b5-537f-491c-a707-f3c07b18b2bd"}},{"fullUrl":"https://madie.cms.gov/MeasureReport/9bcb2081-54bb-4e9f-8239-ab1026365b0a","resource":{"resourceType":"MeasureReport","id":"9bcb2081-54bb-4e9f-8239-ab1026365b0a","meta":{"profile":["http://hl7.org/fhir/us/cqfmeasures/StructureDefinition/test-case-cqfm"]},"contained":[{"resourceType":"Parameters","id":"101163a8-54b1-4f6e-a826-9653527cf339-parameters","parameter":[{"name":"subject","valueString":"ed4a1e1b-c0c7-473b-a685-284b1ae08afb"}]}],"extension":[{"url":"http://hl7.org/fhir/us/cqfmeasures/StructureDefinition/cqfm-inputParameters","valueReference":{"reference":"#101163a8-54b1-4f6e-a826-9653527cf339-parameters"}},{"url":"http://hl7.org/fhir/us/cqfmeasures/StructureDefinition/cqfm-testCaseDescription","valueMarkdown":"Patient has all KCCQ12 Assessments with results during the correct timeframe"}],"modifierExtension":[{"url":"http://hl7.org/fhir/us/cqfmeasures/StructureDefinition/cqfm-isTestCase","valueBoolean":true}],"status":"complete","type":"individual","measure":"https://madie.cms.gov/Measure/FunctionalStatusAssessmentsforHeartFailureFHIR","period":{"start":"2025-01-01","end":"2025-12-31"},"group":[{"population":[{"code":{"coding":[{"system":"http://terminology.hl7.org/CodeSystem/measure-population","code":"initial-population","display":"Initial Population"}]},"count":1},{"code":{"coding":[{"system":"http://terminology.hl7.org/CodeSystem/measure-population","code":"denominator","display":"Denominator"}]},"count":1},{"code":{"coding":[{"system":"http://terminology.hl7.org/CodeSystem/measure-population","code":"denominator-exclusion","display":"Denominator Exclusion"}]},"count":0},{"code":{"coding":[{"system":"http://terminology.hl7.org/CodeSystem/measure-population","code":"numerator","display":"Numerator"}]},"count":1}]}]},"request":{"method":"PUT","url":"MeasureReport/9bcb2081-54bb-4e9f-8239-ab1026365b0a"}}]}