{"resourceType":"Bundle","id":"tests-1df58f4a-37fb-46e6-b20d-fc4a8b57d77e-bundle","type":"transaction","entry":[{"fullUrl":"https://madie.cms.gov/Patient/1df58f4a-37fb-46e6-b20d-fc4a8b57d77e","resource":{"resourceType":"Patient","id":"1df58f4a-37fb-46e6-b20d-fc4a8b57d77e","meta":{"profile":["http://hl7.org/fhir/us/qicore/StructureDefinition/qicore-patient"]},"extension":[{"url":"http://hl7.org/fhir/us/core/StructureDefinition/us-core-race","extension":[{"url":"ombCategory","valueCoding":{"system":"urn:oid:2.16.840.1.113883.6.238","code":"2028-9","display":"Asian"}},{"url":"text","valueString":"Asian"}]},{"url":"http://hl7.org/fhir/us/core/StructureDefinition/us-core-ethnicity","extension":[{"url":"ombCategory","valueCoding":{"system":"urn:oid:2.16.840.1.113883.6.238","code":"2135-2","display":"Hispanic or Latino"}},{"url":"text","valueString":"Hispanic or Latino"}]}],"identifier":[{"system":"http://hospital.smarthealthit.org","value":"999999995"}],"name":[{"family":"Bertha","given":["Betty"]}],"gender":"female","birthDate":"2007-01-01"},"request":{"method":"PUT","url":"Patient/1df58f4a-37fb-46e6-b20d-fc4a8b57d77e"}},{"fullUrl":"https://madie.cms.gov/Encounter/Encounter-47","resource":{"resourceType":"Encounter","id":"84504c46-1fd5-4d0e-839e-d27fb786cb9d","meta":{"profile":["http://hl7.org/fhir/us/qicore/StructureDefinition/qicore-encounter"]},"status":"finished","class":{"system":"http://terminology.hl7.org/CodeSystem/v3-ActCode","code":"AMB","display":"ambulatory"},"type":[{"coding":[{"system":"http://snomed.info/sct","code":"185317003","display":"Telephone encounter (procedure)"}]}],"subject":{"reference":"Patient/1df58f4a-37fb-46e6-b20d-fc4a8b57d77e"},"period":{"start":"2025-01-01T01:00:00.000Z","end":"2025-01-01T01:15:00.000Z"}},"request":{"method":"PUT","url":"Encounter/84504c46-1fd5-4d0e-839e-d27fb786cb9d"}},{"fullUrl":"https://madie.cms.gov/Encounter/Encounter-48","resource":{"resourceType":"Encounter","id":"0cd04da0-2a7c-478e-ae31-19da01774bfc","meta":{"profile":["http://hl7.org/fhir/us/qicore/StructureDefinition/qicore-encounter"]},"status":"finished","class":{"system":"http://terminology.hl7.org/CodeSystem/v3-ActCode","code":"AMB","display":"ambulatory"},"type":[{"coding":[{"system":"http://snomed.info/sct","code":"185317003","display":"Telephone encounter (procedure)"}]}],"subject":{"reference":"Patient/1df58f4a-37fb-46e6-b20d-fc4a8b57d77e"},"period":{"start":"2025-01-02T01:00:00.000Z","end":"2025-01-02T01:15:00.000Z"}},"request":{"method":"PUT","url":"Encounter/0cd04da0-2a7c-478e-ae31-19da01774bfc"}},{"fullUrl":"https://madie.cms.gov/Condition/Condition-21","resource":{"resourceType":"Condition","id":"2c05999a-b8af-41e1-975e-41d9bc6abf60","meta":{"profile":["http://hl7.org/fhir/us/qicore/StructureDefinition/qicore-condition"]},"clinicalStatus":{"coding":[{"system":"http://terminology.hl7.org/CodeSystem/condition-clinical","code":"active"}]},"category":[{"coding":[{"system":"http://terminology.hl7.org/CodeSystem/condition-category","code":"problem-list-item","display":"Problem List Item"}]}],"code":{"coding":[{"system":"http://snomed.info/sct","code":"10091002","display":"High output heart failure (disorder)"}]},"subject":{"reference":"Patient/1df58f4a-37fb-46e6-b20d-fc4a8b57d77e"},"onsetDateTime":"2024-12-31T23:59:00.000Z"},"request":{"method":"PUT","url":"Condition/2c05999a-b8af-41e1-975e-41d9bc6abf60"}},{"fullUrl":"https://madie.cms.gov/Observation/Observation-65","resource":{"resourceType":"Observation","id":"de905a19-f9a5-47f4-9dad-b26db59488c4","meta":{"profile":["http://hl7.org/fhir/us/qicore/StructureDefinition/qicore-observation"]},"status":"final","category":[{"coding":[{"system":"http://terminology.hl7.org/CodeSystem/observation-category","code":"survey","display":"survey"}],"text":"survey"}],"code":{"coding":[{"system":"http://loinc.org","code":"72189-4","display":"Quality of life score [KCCQ]"}]},"subject":{"reference":"Patient/1df58f4a-37fb-46e6-b20d-fc4a8b57d77e"},"effectivePeriod":{"start":"2025-01-01T23:00:00.000Z","end":"2025-01-01T23:59:00.000Z"},"valueInteger":4},"request":{"method":"PUT","url":"Observation/de905a19-f9a5-47f4-9dad-b26db59488c4"}},{"fullUrl":"https://madie.cms.gov/Observation/Observation-66","resource":{"resourceType":"Observation","id":"80102707-a921-41d8-b093-e67caa2af184","meta":{"profile":["http://hl7.org/fhir/us/qicore/StructureDefinition/qicore-observation"]},"status":"final","category":[{"coding":[{"system":"http://terminology.hl7.org/CodeSystem/observation-category","code":"survey","display":"survey"}],"text":"survey"}],"code":{"coding":[{"system":"http://loinc.org","code":"72189-4","display":"Quality of life score [KCCQ]"}]},"subject":{"reference":"Patient/1df58f4a-37fb-46e6-b20d-fc4a8b57d77e"},"effectivePeriod":{"start":"2025-07-03T23:00:00.000Z","end":"2025-07-03T23:59:00.000Z"},"valueInteger":4},"request":{"method":"PUT","url":"Observation/80102707-a921-41d8-b093-e67caa2af184"}},{"fullUrl":"https://madie.cms.gov/Observation/Observation-67","resource":{"resourceType":"Observation","id":"bc5c457c-05df-4164-9e76-475eab53fe5e","meta":{"profile":["http://hl7.org/fhir/us/qicore/StructureDefinition/qicore-observation"]},"status":"final","category":[{"coding":[{"system":"http://terminology.hl7.org/CodeSystem/observation-category","code":"survey","display":"survey"}],"text":"survey"}],"code":{"coding":[{"system":"http://loinc.org","code":"72194-4","display":"Symptom stability score [KCCQ]"}]},"subject":{"reference":"Patient/1df58f4a-37fb-46e6-b20d-fc4a8b57d77e"},"effectivePeriod":{"start":"2025-01-01T23:00:00.000Z","end":"2025-01-01T23:59:00.000Z"},"valueInteger":4},"request":{"method":"PUT","url":"Observation/bc5c457c-05df-4164-9e76-475eab53fe5e"}},{"fullUrl":"https://madie.cms.gov/Observation/Observation-68","resource":{"resourceType":"Observation","id":"390ff70b-2f60-40cc-be10-5dd912506ecb","meta":{"profile":["http://hl7.org/fhir/us/qicore/StructureDefinition/qicore-observation"]},"status":"final","category":[{"coding":[{"system":"http://terminology.hl7.org/CodeSystem/observation-category","code":"survey","display":"survey"}],"text":"survey"}],"code":{"coding":[{"system":"http://loinc.org","code":"72194-4","display":"Symptom stability score [KCCQ]"}]},"subject":{"reference":"Patient/1df58f4a-37fb-46e6-b20d-fc4a8b57d77e"},"effectivePeriod":{"start":"2025-06-30T23:00:00.000Z","end":"2025-06-30T23:59:00.000Z"},"valueInteger":4},"request":{"method":"PUT","url":"Observation/390ff70b-2f60-40cc-be10-5dd912506ecb"}},{"fullUrl":"https://madie.cms.gov/Observation/Observation-69","resource":{"resourceType":"Observation","id":"b9df1fe8-cf72-4651-a52f-5acd9b408959","meta":{"profile":["http://hl7.org/fhir/us/qicore/StructureDefinition/qicore-observation"]},"status":"final","category":[{"coding":[{"system":"http://terminology.hl7.org/CodeSystem/observation-category","code":"survey","display":"survey"}],"text":"survey"}],"code":{"coding":[{"system":"http://loinc.org","code":"72190-2","display":"Self-efficacy score [KCCQ]"}]},"subject":{"reference":"Patient/1df58f4a-37fb-46e6-b20d-fc4a8b57d77e"},"effectivePeriod":{"start":"2025-01-01T23:00:00.000Z","end":"2025-01-01T23:59:00.000Z"},"valueInteger":4},"request":{"method":"PUT","url":"Observation/b9df1fe8-cf72-4651-a52f-5acd9b408959"}},{"fullUrl":"https://madie.cms.gov/Observation/Observation-70","resource":{"resourceType":"Observation","id":"20924f5c-bbe1-420f-9563-7f1149f40548","meta":{"profile":["http://hl7.org/fhir/us/qicore/StructureDefinition/qicore-observation"]},"status":"final","category":[{"coding":[{"system":"http://terminology.hl7.org/CodeSystem/observation-category","code":"survey","display":"survey"}],"text":"survey"}],"code":{"coding":[{"system":"http://loinc.org","code":"72190-2","display":"Self-efficacy score [KCCQ]"}]},"subject":{"reference":"Patient/1df58f4a-37fb-46e6-b20d-fc4a8b57d77e"},"effectivePeriod":{"start":"2025-06-30T23:00:00.000Z","end":"2025-06-30T23:59:00.000Z"},"valueInteger":4},"request":{"method":"PUT","url":"Observation/20924f5c-bbe1-420f-9563-7f1149f40548"}},{"fullUrl":"https://madie.cms.gov/Observation/Observation-71","resource":{"resourceType":"Observation","id":"802b724f-3456-4458-8399-91f71f289928","meta":{"profile":["http://hl7.org/fhir/us/qicore/StructureDefinition/qicore-observation"]},"status":"final","category":[{"coding":[{"system":"http://terminology.hl7.org/CodeSystem/observation-category","code":"survey","display":"survey"}],"text":"survey"}],"code":{"coding":[{"system":"http://loinc.org","code":"72191-0","display":"Total symptom score [KCCQ]"}]},"subject":{"reference":"Patient/1df58f4a-37fb-46e6-b20d-fc4a8b57d77e"},"effectivePeriod":{"start":"2025-01-01T23:00:00.000Z","end":"2025-01-01T23:59:00.000Z"},"valueInteger":4},"request":{"method":"PUT","url":"Observation/802b724f-3456-4458-8399-91f71f289928"}},{"fullUrl":"https://madie.cms.gov/Observation/Observation-72","resource":{"resourceType":"Observation","id":"7985b7f9-3d35-4ac3-a961-4fd3de0145eb","meta":{"profile":["http://hl7.org/fhir/us/qicore/StructureDefinition/qicore-observation"]},"status":"final","category":[{"coding":[{"system":"http://terminology.hl7.org/CodeSystem/observation-category","code":"survey","display":"survey"}],"text":"survey"}],"code":{"coding":[{"system":"http://loinc.org","code":"72191-0","display":"Total symptom score [KCCQ]"}]},"subject":{"reference":"Patient/1df58f4a-37fb-46e6-b20d-fc4a8b57d77e"},"effectivePeriod":{"start":"2025-06-30T23:00:00.000Z","end":"2025-06-30T23:59:00.000Z"},"valueInteger":4},"request":{"method":"PUT","url":"Observation/7985b7f9-3d35-4ac3-a961-4fd3de0145eb"}},{"fullUrl":"https://madie.cms.gov/Observation/Observation-73","resource":{"resourceType":"Observation","id":"39834a2d-a875-40fb-a964-c7a6fff7f88b","meta":{"profile":["http://hl7.org/fhir/us/qicore/StructureDefinition/qicore-observation"]},"status":"final","category":[{"coding":[{"system":"http://terminology.hl7.org/CodeSystem/observation-category","code":"survey","display":"survey"}],"text":"survey"}],"code":{"coding":[{"system":"http://loinc.org","code":"72195-1","display":"Physical limitation score [KCCQ]"}]},"subject":{"reference":"Patient/1df58f4a-37fb-46e6-b20d-fc4a8b57d77e"},"effectivePeriod":{"start":"2025-01-01T23:00:00.000Z","end":"2025-01-01T23:59:00.000Z"},"valueInteger":4},"request":{"method":"PUT","url":"Observation/39834a2d-a875-40fb-a964-c7a6fff7f88b"}},{"fullUrl":"https://madie.cms.gov/Observation/Observation-74","resource":{"resourceType":"Observation","id":"48354a23-e467-4216-b3cf-074f6717ac43","meta":{"profile":["http://hl7.org/fhir/us/qicore/StructureDefinition/qicore-observation"]},"status":"final","category":[{"coding":[{"system":"http://terminology.hl7.org/CodeSystem/observation-category","code":"survey","display":"survey"}],"text":"survey"}],"code":{"coding":[{"system":"http://loinc.org","code":"72195-1","display":"Physical limitation score [KCCQ]"}]},"subject":{"reference":"Patient/1df58f4a-37fb-46e6-b20d-fc4a8b57d77e"},"effectivePeriod":{"start":"2025-06-30T23:00:00.000Z","end":"2025-06-30T23:59:00.000Z"},"valueInteger":4},"request":{"method":"PUT","url":"Observation/48354a23-e467-4216-b3cf-074f6717ac43"}},{"fullUrl":"https://madie.cms.gov/Observation/Observation-75","resource":{"resourceType":"Observation","id":"eb01660a-638e-4c85-9c2f-01c8d3124d39","meta":{"profile":["http://hl7.org/fhir/us/qicore/StructureDefinition/qicore-observation"]},"status":"final","category":[{"coding":[{"system":"http://terminology.hl7.org/CodeSystem/observation-category","code":"survey","display":"survey"}],"text":"survey"}],"code":{"coding":[{"system":"http://loinc.org","code":"72196-9","display":"Social limitation score [KCCQ]"}]},"subject":{"reference":"Patient/1df58f4a-37fb-46e6-b20d-fc4a8b57d77e"},"effectivePeriod":{"start":"2025-01-01T23:00:00.000Z","end":"2025-01-01T23:59:00.000Z"},"valueInteger":4},"request":{"method":"PUT","url":"Observation/eb01660a-638e-4c85-9c2f-01c8d3124d39"}},{"fullUrl":"https://madie.cms.gov/Observation/Observation-76","resource":{"resourceType":"Observation","id":"516855c4-bb38-43a9-a70b-8e3487528790","meta":{"profile":["http://hl7.org/fhir/us/qicore/StructureDefinition/qicore-observation"]},"status":"final","category":[{"coding":[{"system":"http://terminology.hl7.org/CodeSystem/observation-category","code":"survey","display":"survey"}],"text":"survey"}],"code":{"coding":[{"system":"http://loinc.org","code":"72196-9","display":"Social limitation score [KCCQ]"}]},"subject":{"reference":"Patient/1df58f4a-37fb-46e6-b20d-fc4a8b57d77e"},"effectivePeriod":{"start":"2025-06-30T23:00:00.000Z","end":"2025-06-30T23:59:00.000Z"},"valueInteger":4},"request":{"method":"PUT","url":"Observation/516855c4-bb38-43a9-a70b-8e3487528790"}},{"fullUrl":"https://madie.cms.gov/MeasureReport/7db0611d-1ec7-44fe-8d26-d263b3a62076","resource":{"resourceType":"MeasureReport","id":"7db0611d-1ec7-44fe-8d26-d263b3a62076","meta":{"profile":["http://hl7.org/fhir/us/cqfmeasures/StructureDefinition/test-case-cqfm"]},"contained":[{"resourceType":"Parameters","id":"4dfa22bb-3243-4239-a4b6-a8d6408a7ae7-parameters","parameter":[{"name":"subject","valueString":"1df58f4a-37fb-46e6-b20d-fc4a8b57d77e"}]}],"extension":[{"url":"http://hl7.org/fhir/us/cqfmeasures/StructureDefinition/cqfm-inputParameters","valueReference":{"reference":"#4dfa22bb-3243-4239-a4b6-a8d6408a7ae7-parameters"}},{"url":"http://hl7.org/fhir/us/cqfmeasures/StructureDefinition/cqfm-testCaseDescription","valueMarkdown":"Patient has one KCCQ Domain assessments that is 181 days after their initial FSA."}],"modifierExtension":[{"url":"http://hl7.org/fhir/us/cqfmeasures/StructureDefinition/cqfm-isTestCase","valueBoolean":true}],"status":"complete","type":"individual","measure":"https://madie.cms.gov/Measure/FunctionalStatusAssessmentsforHeartFailureFHIR","period":{"start":"2025-01-01","end":"2025-12-31"},"group":[{"population":[{"code":{"coding":[{"system":"http://terminology.hl7.org/CodeSystem/measure-population","code":"initial-population","display":"Initial Population"}]},"count":1},{"code":{"coding":[{"system":"http://terminology.hl7.org/CodeSystem/measure-population","code":"denominator","display":"Denominator"}]},"count":1},{"code":{"coding":[{"system":"http://terminology.hl7.org/CodeSystem/measure-population","code":"denominator-exclusion","display":"Denominator Exclusion"}]},"count":0},{"code":{"coding":[{"system":"http://terminology.hl7.org/CodeSystem/measure-population","code":"numerator","display":"Numerator"}]},"count":0}]}]},"request":{"method":"PUT","url":"MeasureReport/7db0611d-1ec7-44fe-8d26-d263b3a62076"}}]}