{"resourceType":"Bundle","id":"tests-eec4814e-d102-4430-b4f8-4be611800a8c-bundle","type":"transaction","entry":[{"fullUrl":"https://madie.cms.gov/Patient/eec4814e-d102-4430-b4f8-4be611800a8c","resource":{"resourceType":"Patient","id":"eec4814e-d102-4430-b4f8-4be611800a8c","meta":{"profile":["http://hl7.org/fhir/us/qicore/StructureDefinition/qicore-patient"]},"extension":[{"url":"http://hl7.org/fhir/us/core/StructureDefinition/us-core-race","extension":[{"url":"ombCategory","valueCoding":{"system":"urn:oid:2.16.840.1.113883.6.238","code":"2028-9","display":"Asian"}},{"url":"text","valueString":"Asian"}]},{"url":"http://hl7.org/fhir/us/core/StructureDefinition/us-core-ethnicity","extension":[{"url":"ombCategory","valueCoding":{"system":"urn:oid:2.16.840.1.113883.6.238","code":"2135-2","display":"Hispanic or Latino"}},{"url":"text","valueString":"Hispanic or Latino"}]}],"identifier":[{"system":"http://hospital.smarthealthit.org","value":"999999995"}],"name":[{"family":"Bertha","given":["Betty"]}],"gender":"female","birthDate":"2007-01-01"},"request":{"method":"PUT","url":"Patient/eec4814e-d102-4430-b4f8-4be611800a8c"}},{"fullUrl":"https://madie.cms.gov/Encounter/Encounter-20","resource":{"resourceType":"Encounter","id":"b0aad2ad-0a4b-47ed-84d1-32e4d01f42ad","meta":{"profile":["http://hl7.org/fhir/us/qicore/StructureDefinition/qicore-encounter"]},"status":"finished","class":{"system":"http://terminology.hl7.org/CodeSystem/v3-ActCode","code":"AMB","display":"ambulatory"},"type":[{"coding":[{"system":"http://snomed.info/sct","code":"185317003","display":"Telephone encounter (procedure)"}]}],"subject":{"reference":"Patient/eec4814e-d102-4430-b4f8-4be611800a8c"},"period":{"start":"2025-01-01T01:00:00.000Z","end":"2025-01-01T01:15:00.000Z"}},"request":{"method":"PUT","url":"Encounter/b0aad2ad-0a4b-47ed-84d1-32e4d01f42ad"}},{"fullUrl":"https://madie.cms.gov/Encounter/Encounter-21","resource":{"resourceType":"Encounter","id":"8970eef0-de53-4ff9-b1bd-7a1c48f52805","meta":{"profile":["http://hl7.org/fhir/us/qicore/StructureDefinition/qicore-encounter"]},"status":"finished","class":{"system":"http://terminology.hl7.org/CodeSystem/v3-ActCode","code":"AMB","display":"ambulatory"},"type":[{"coding":[{"system":"http://snomed.info/sct","code":"185317003","display":"Telephone encounter (procedure)"}]}],"subject":{"reference":"Patient/eec4814e-d102-4430-b4f8-4be611800a8c"},"period":{"start":"2025-01-02T01:00:00.000Z","end":"2025-01-02T01:15:00.000Z"}},"request":{"method":"PUT","url":"Encounter/8970eef0-de53-4ff9-b1bd-7a1c48f52805"}},{"fullUrl":"https://madie.cms.gov/Condition/Condition-10","resource":{"resourceType":"Condition","id":"21523f1f-acf7-436b-ae51-7803c40a15c1","meta":{"profile":["http://hl7.org/fhir/us/qicore/StructureDefinition/qicore-condition"]},"clinicalStatus":{"coding":[{"system":"http://terminology.hl7.org/CodeSystem/condition-clinical","code":"active"}]},"category":[{"coding":[{"system":"http://terminology.hl7.org/CodeSystem/condition-category","code":"problem-list-item","display":"Problem List Item"}]}],"code":{"coding":[{"system":"http://snomed.info/sct","code":"10091002","display":"High output heart failure (disorder)"}]},"subject":{"reference":"Patient/eec4814e-d102-4430-b4f8-4be611800a8c"},"onsetDateTime":"2024-12-31T23:59:00.000Z"},"request":{"method":"PUT","url":"Condition/21523f1f-acf7-436b-ae51-7803c40a15c1"}},{"fullUrl":"https://madie.cms.gov/Observation/Observation-26","resource":{"resourceType":"Observation","id":"a220745f-7a55-487a-8b88-00e761b12177","meta":{"profile":["http://hl7.org/fhir/us/qicore/StructureDefinition/qicore-observation"]},"status":"final","category":[{"coding":[{"system":"http://terminology.hl7.org/CodeSystem/observation-category","code":"survey","display":"survey"}],"text":"survey"}],"code":{"coding":[{"system":"http://loinc.org","code":"72026-8","display":"VR-12 Mental component summary (MCS) score - oblique method T-score"}]},"subject":{"reference":"Patient/eec4814e-d102-4430-b4f8-4be611800a8c"},"effectivePeriod":{"start":"2025-01-01T23:00:00.000Z","end":"2025-01-01T23:59:00.000Z"},"valueInteger":4},"request":{"method":"PUT","url":"Observation/a220745f-7a55-487a-8b88-00e761b12177"}},{"fullUrl":"https://madie.cms.gov/Observation/Observation-27","resource":{"resourceType":"Observation","id":"01e0104f-7150-4c26-ab52-f187f8529525","meta":{"profile":["http://hl7.org/fhir/us/qicore/StructureDefinition/qicore-observation"]},"status":"final","category":[{"coding":[{"system":"http://terminology.hl7.org/CodeSystem/observation-category","code":"survey","display":"survey"}],"text":"survey"}],"code":{"coding":[{"system":"http://loinc.org","code":"72026-8","display":"VR-12 Mental component summary (MCS) score - oblique method T-score"}]},"subject":{"reference":"Patient/eec4814e-d102-4430-b4f8-4be611800a8c"},"effectivePeriod":{"start":"2025-01-31T23:00:00.000Z","end":"2025-01-31T23:59:00.000Z"},"valueInteger":4},"request":{"method":"PUT","url":"Observation/01e0104f-7150-4c26-ab52-f187f8529525"}},{"fullUrl":"https://madie.cms.gov/Observation/Observation-28","resource":{"resourceType":"Observation","id":"ecc279a6-19ec-4704-8ddc-de2f904a602b","meta":{"profile":["http://hl7.org/fhir/us/qicore/StructureDefinition/qicore-observation"]},"status":"final","category":[{"coding":[{"system":"http://terminology.hl7.org/CodeSystem/observation-category","code":"survey","display":"survey"}],"text":"survey"}],"code":{"coding":[{"system":"http://loinc.org","code":"72025-0","display":"VR-12 Physical component summary (PCS) score - oblique method T-score"}]},"subject":{"reference":"Patient/eec4814e-d102-4430-b4f8-4be611800a8c"},"effectivePeriod":{"start":"2025-01-01T23:00:00.000Z","end":"2025-01-01T23:59:00.000Z"},"valueInteger":4},"request":{"method":"PUT","url":"Observation/ecc279a6-19ec-4704-8ddc-de2f904a602b"}},{"fullUrl":"https://madie.cms.gov/Observation/Observation-29","resource":{"resourceType":"Observation","id":"5b051913-13ad-49e8-8a71-ecbbc5456d8f","meta":{"profile":["http://hl7.org/fhir/us/qicore/StructureDefinition/qicore-observation"]},"status":"final","category":[{"coding":[{"system":"http://terminology.hl7.org/CodeSystem/observation-category","code":"survey","display":"survey"}],"text":"survey"}],"code":{"coding":[{"system":"http://loinc.org","code":"72025-0","display":"VR-12 Physical component summary (PCS) score - oblique method T-score"}]},"subject":{"reference":"Patient/eec4814e-d102-4430-b4f8-4be611800a8c"},"effectivePeriod":{"start":"2025-01-31T23:00:00.000Z","end":"2025-01-31T23:59:00.000Z"}},"request":{"method":"PUT","url":"Observation/5b051913-13ad-49e8-8a71-ecbbc5456d8f"}},{"fullUrl":"https://madie.cms.gov/MeasureReport/053545fd-bcb6-421a-ad96-311791efe6da","resource":{"resourceType":"MeasureReport","id":"053545fd-bcb6-421a-ad96-311791efe6da","meta":{"profile":["http://hl7.org/fhir/us/cqfmeasures/StructureDefinition/test-case-cqfm"]},"contained":[{"resourceType":"Parameters","id":"c7ad9564-a745-49c1-adec-e0d0b153ab07-parameters","parameter":[{"name":"subject","valueString":"eec4814e-d102-4430-b4f8-4be611800a8c"}]}],"extension":[{"url":"http://hl7.org/fhir/us/cqfmeasures/StructureDefinition/cqfm-inputParameters","valueReference":{"reference":"#c7ad9564-a745-49c1-adec-e0d0b153ab07-parameters"}},{"url":"http://hl7.org/fhir/us/cqfmeasures/StructureDefinition/cqfm-testCaseDescription","valueMarkdown":"Patient has all VR12 Oblique during the correct timeframe but VR-12 Physical component summary (PCS) score - oblique method T-score is missing result."}],"modifierExtension":[{"url":"http://hl7.org/fhir/us/cqfmeasures/StructureDefinition/cqfm-isTestCase","valueBoolean":true}],"status":"complete","type":"individual","measure":"https://madie.cms.gov/Measure/FunctionalStatusAssessmentsforHeartFailureFHIR","period":{"start":"2025-01-01","end":"2025-12-31"},"group":[{"population":[{"code":{"coding":[{"system":"http://terminology.hl7.org/CodeSystem/measure-population","code":"initial-population","display":"Initial Population"}]},"count":1},{"code":{"coding":[{"system":"http://terminology.hl7.org/CodeSystem/measure-population","code":"denominator","display":"Denominator"}]},"count":1},{"code":{"coding":[{"system":"http://terminology.hl7.org/CodeSystem/measure-population","code":"denominator-exclusion","display":"Denominator Exclusion"}]},"count":0},{"code":{"coding":[{"system":"http://terminology.hl7.org/CodeSystem/measure-population","code":"numerator","display":"Numerator"}]},"count":0}]}]},"request":{"method":"PUT","url":"MeasureReport/053545fd-bcb6-421a-ad96-311791efe6da"}}]}