{"resourceType":"Bundle","id":"tests-55e09746-2203-47d9-89d0-e96f71300720-bundle","type":"transaction","entry":[{"fullUrl":"https://madie.cms.gov/Patient/55e09746-2203-47d9-89d0-e96f71300720","resource":{"resourceType":"Patient","id":"55e09746-2203-47d9-89d0-e96f71300720","meta":{"profile":["http://hl7.org/fhir/us/qicore/StructureDefinition/qicore-patient"]},"extension":[{"url":"http://hl7.org/fhir/us/core/StructureDefinition/us-core-race","extension":[{"url":"ombCategory","valueCoding":{"system":"urn:oid:2.16.840.1.113883.6.238","code":"2028-9","display":"Asian"}},{"url":"text","valueString":"Asian"}]},{"url":"http://hl7.org/fhir/us/core/StructureDefinition/us-core-ethnicity","extension":[{"url":"ombCategory","valueCoding":{"system":"urn:oid:2.16.840.1.113883.6.238","code":"2135-2","display":"Hispanic or Latino"}},{"url":"text","valueString":"Hispanic or Latino"}]}],"identifier":[{"system":"http://hospital.smarthealthit.org","value":"999999995"}],"name":[{"family":"Bertha","given":["Betty"]}],"gender":"female","birthDate":"2007-01-01"},"request":{"method":"PUT","url":"Patient/55e09746-2203-47d9-89d0-e96f71300720"}},{"fullUrl":"https://madie.cms.gov/Encounter/Encounter-15","resource":{"resourceType":"Encounter","id":"d1417465-94b0-4956-9f9b-116866ccfbc1","meta":{"profile":["http://hl7.org/fhir/us/qicore/StructureDefinition/qicore-encounter"]},"status":"finished","class":{"system":"http://terminology.hl7.org/CodeSystem/v3-ActCode","code":"AMB","display":"ambulatory"},"type":[{"coding":[{"system":"http://snomed.info/sct","code":"185317003","display":"Telephone encounter (procedure)"}]}],"subject":{"reference":"Patient/55e09746-2203-47d9-89d0-e96f71300720"},"period":{"start":"2025-01-01T01:00:00.000Z","end":"2025-01-01T01:15:00.000Z"}},"request":{"method":"PUT","url":"Encounter/d1417465-94b0-4956-9f9b-116866ccfbc1"}},{"fullUrl":"https://madie.cms.gov/Encounter/Encounter-16","resource":{"resourceType":"Encounter","id":"5a3b1c57-bfbe-4039-af71-91d659f42cc0","meta":{"profile":["http://hl7.org/fhir/us/qicore/StructureDefinition/qicore-encounter"]},"status":"finished","class":{"system":"http://terminology.hl7.org/CodeSystem/v3-ActCode","code":"AMB","display":"ambulatory"},"type":[{"coding":[{"system":"http://snomed.info/sct","code":"185317003","display":"Telephone encounter (procedure)"}]}],"subject":{"reference":"Patient/55e09746-2203-47d9-89d0-e96f71300720"},"period":{"start":"2025-01-02T01:00:00.000Z","end":"2025-01-02T01:15:00.000Z"}},"request":{"method":"PUT","url":"Encounter/5a3b1c57-bfbe-4039-af71-91d659f42cc0"}},{"fullUrl":"https://madie.cms.gov/Condition/Condition-7","resource":{"resourceType":"Condition","id":"dca3ccf2-a870-45f0-b350-d88500a18f99","meta":{"profile":["http://hl7.org/fhir/us/qicore/StructureDefinition/qicore-condition"]},"clinicalStatus":{"coding":[{"system":"http://terminology.hl7.org/CodeSystem/condition-clinical","code":"active"}]},"category":[{"coding":[{"system":"http://terminology.hl7.org/CodeSystem/condition-category","code":"problem-list-item","display":"Problem List Item"}]}],"code":{"coding":[{"system":"http://snomed.info/sct","code":"10091002","display":"High output heart failure (disorder)"}]},"subject":{"reference":"Patient/55e09746-2203-47d9-89d0-e96f71300720"},"onsetDateTime":"2024-12-31T23:59:00.000Z"},"request":{"method":"PUT","url":"Condition/dca3ccf2-a870-45f0-b350-d88500a18f99"}},{"fullUrl":"https://madie.cms.gov/Observation/Observation-9","resource":{"resourceType":"Observation","id":"c14d72d1-2d15-402a-be0b-49305a5c86b9","meta":{"profile":["http://hl7.org/fhir/us/qicore/StructureDefinition/qicore-observation"]},"status":"final","category":[{"coding":[{"system":"http://terminology.hl7.org/CodeSystem/observation-category","code":"survey","display":"survey"}],"text":"survey"}],"code":{"coding":[{"system":"http://loinc.org","code":"71955-9","display":"PROMIS-29 Sleep disturbance score T-score"}]},"subject":{"reference":"Patient/55e09746-2203-47d9-89d0-e96f71300720"},"effectivePeriod":{"start":"2025-01-01T23:00:00.000Z","end":"2025-01-01T23:59:00.000Z"},"valueInteger":1},"request":{"method":"PUT","url":"Observation/c14d72d1-2d15-402a-be0b-49305a5c86b9"}},{"fullUrl":"https://madie.cms.gov/Observation/Observation-10","resource":{"resourceType":"Observation","id":"b2c2080f-c438-4bba-9ec0-85173d487837","meta":{"profile":["http://hl7.org/fhir/us/qicore/StructureDefinition/qicore-observation"]},"status":"final","category":[{"coding":[{"system":"http://terminology.hl7.org/CodeSystem/observation-category","code":"survey","display":"survey"}],"text":"survey"}],"code":{"coding":[{"system":"http://loinc.org","code":"71957-5","display":"PROMIS-29 Satisfaction with participation in social roles score T-score"}]},"subject":{"reference":"Patient/55e09746-2203-47d9-89d0-e96f71300720"},"effectivePeriod":{"start":"2025-01-01T23:00:00.000Z","end":"2025-01-01T23:59:00.000Z"},"valueInteger":2},"request":{"method":"PUT","url":"Observation/b2c2080f-c438-4bba-9ec0-85173d487837"}},{"fullUrl":"https://madie.cms.gov/Observation/Observation-11","resource":{"resourceType":"Observation","id":"5a3043eb-5012-40e9-9680-bca7db2fa5ff","meta":{"profile":["http://hl7.org/fhir/us/qicore/StructureDefinition/qicore-observation"]},"status":"final","category":[{"coding":[{"system":"http://terminology.hl7.org/CodeSystem/observation-category","code":"survey","display":"survey"}],"text":"survey"}],"code":{"coding":[{"system":"http://loinc.org","code":"71955-9","display":"PROMIS-29 Sleep disturbance score T-score"}]},"subject":{"reference":"Patient/55e09746-2203-47d9-89d0-e96f71300720"},"effectivePeriod":{"start":"2025-01-31T23:00:00.000Z","end":"2025-01-31T23:59:00.000Z"},"valueInteger":3},"request":{"method":"PUT","url":"Observation/5a3043eb-5012-40e9-9680-bca7db2fa5ff"}},{"fullUrl":"https://madie.cms.gov/Observation/Observation-12","resource":{"resourceType":"Observation","id":"4bddf1b5-2c4a-4b7d-ac72-f8a423d1b163","meta":{"profile":["http://hl7.org/fhir/us/qicore/StructureDefinition/qicore-observation"]},"status":"final","category":[{"coding":[{"system":"http://terminology.hl7.org/CodeSystem/observation-category","code":"survey","display":"survey"}],"text":"survey"}],"code":{"coding":[{"system":"http://loinc.org","code":"71957-5","display":"PROMIS-29 Satisfaction with participation in social roles score T-score"}]},"subject":{"reference":"Patient/55e09746-2203-47d9-89d0-e96f71300720"},"effectivePeriod":{"start":"2025-01-31T23:00:00.000Z","end":"2025-01-31T23:59:00.000Z"},"valueInteger":4},"request":{"method":"PUT","url":"Observation/4bddf1b5-2c4a-4b7d-ac72-f8a423d1b163"}},{"fullUrl":"https://madie.cms.gov/Observation/Observation-13","resource":{"resourceType":"Observation","id":"4f0c9021-fe28-4ec7-85cf-187ec81b33d7","meta":{"profile":["http://hl7.org/fhir/us/qicore/StructureDefinition/qicore-observation"]},"status":"final","category":[{"coding":[{"system":"http://terminology.hl7.org/CodeSystem/observation-category","code":"survey","display":"survey"}],"text":"survey"}],"code":{"coding":[{"system":"http://loinc.org","code":"71959-1","display":"PROMIS-29 Physical function score T-score"}]},"subject":{"reference":"Patient/55e09746-2203-47d9-89d0-e96f71300720"},"effectivePeriod":{"start":"2025-01-01T23:00:00.000Z","end":"2025-01-01T23:59:00.000Z"},"valueInteger":4},"request":{"method":"PUT","url":"Observation/4f0c9021-fe28-4ec7-85cf-187ec81b33d7"}},{"fullUrl":"https://madie.cms.gov/Observation/Observation-14","resource":{"resourceType":"Observation","id":"44922b7b-e134-4c5a-99ef-c44fc11dce38","meta":{"profile":["http://hl7.org/fhir/us/qicore/StructureDefinition/qicore-observation"]},"status":"final","category":[{"coding":[{"system":"http://terminology.hl7.org/CodeSystem/observation-category","code":"survey","display":"survey"}],"text":"survey"}],"code":{"coding":[{"system":"http://loinc.org","code":"71959-1","display":"PROMIS-29 Physical function score T-score"}]},"subject":{"reference":"Patient/55e09746-2203-47d9-89d0-e96f71300720"},"effectivePeriod":{"start":"2025-01-31T23:00:00.000Z","end":"2025-01-31T23:59:00.000Z"},"valueInteger":4},"request":{"method":"PUT","url":"Observation/44922b7b-e134-4c5a-99ef-c44fc11dce38"}},{"fullUrl":"https://madie.cms.gov/Observation/Observation-15","resource":{"resourceType":"Observation","id":"50cdba77-0303-4d52-9dda-d7196304c33b","meta":{"profile":["http://hl7.org/fhir/us/qicore/StructureDefinition/qicore-observation"]},"status":"final","category":[{"coding":[{"system":"http://terminology.hl7.org/CodeSystem/observation-category","code":"survey","display":"survey"}],"text":"survey"}],"code":{"coding":[{"system":"http://loinc.org","code":"71961-7","display":"PROMIS-29 Pain interference score T-score"}]},"subject":{"reference":"Patient/55e09746-2203-47d9-89d0-e96f71300720"},"effectivePeriod":{"start":"2025-01-01T23:00:00.000Z","end":"2025-01-01T23:59:00.000Z"},"valueInteger":4},"request":{"method":"PUT","url":"Observation/50cdba77-0303-4d52-9dda-d7196304c33b"}},{"fullUrl":"https://madie.cms.gov/Observation/Observation-16","resource":{"resourceType":"Observation","id":"7d834983-0ff1-45b3-a108-1f0fa5280a79","meta":{"profile":["http://hl7.org/fhir/us/qicore/StructureDefinition/qicore-observation"]},"status":"final","category":[{"coding":[{"system":"http://terminology.hl7.org/CodeSystem/observation-category","code":"survey","display":"survey"}],"text":"survey"}],"code":{"coding":[{"system":"http://loinc.org","code":"71961-7","display":"PROMIS-29 Pain interference score T-score"}]},"subject":{"reference":"Patient/55e09746-2203-47d9-89d0-e96f71300720"},"effectivePeriod":{"start":"2025-01-31T23:00:00.000Z","end":"2025-01-31T23:59:00.000Z"},"valueInteger":4},"request":{"method":"PUT","url":"Observation/7d834983-0ff1-45b3-a108-1f0fa5280a79"}},{"fullUrl":"https://madie.cms.gov/Observation/Observation-17","resource":{"resourceType":"Observation","id":"186c7b8f-b146-407b-8966-8a71b7e0b380","meta":{"profile":["http://hl7.org/fhir/us/qicore/StructureDefinition/qicore-observation"]},"status":"final","category":[{"coding":[{"system":"http://terminology.hl7.org/CodeSystem/observation-category","code":"survey","display":"survey"}],"text":"survey"}],"code":{"coding":[{"system":"http://loinc.org","code":"71963-3","display":"PROMIS-29 Fatigue score T-score"}]},"subject":{"reference":"Patient/55e09746-2203-47d9-89d0-e96f71300720"},"effectivePeriod":{"start":"2025-01-01T23:00:00.000Z","end":"2025-01-01T23:59:00.000Z"},"valueInteger":4},"request":{"method":"PUT","url":"Observation/186c7b8f-b146-407b-8966-8a71b7e0b380"}},{"fullUrl":"https://madie.cms.gov/Observation/Observation-18","resource":{"resourceType":"Observation","id":"933b3e4f-4837-43af-a8d9-5a0e92d4be64","meta":{"profile":["http://hl7.org/fhir/us/qicore/StructureDefinition/qicore-observation"]},"status":"final","category":[{"coding":[{"system":"http://terminology.hl7.org/CodeSystem/observation-category","code":"survey","display":"survey"}],"text":"survey"}],"code":{"coding":[{"system":"http://loinc.org","code":"71963-3","display":"PROMIS-29 Fatigue score T-score"}]},"subject":{"reference":"Patient/55e09746-2203-47d9-89d0-e96f71300720"},"effectivePeriod":{"start":"2025-01-31T23:00:00.000Z","end":"2025-01-31T23:59:00.000Z"},"valueInteger":4},"request":{"method":"PUT","url":"Observation/933b3e4f-4837-43af-a8d9-5a0e92d4be64"}},{"fullUrl":"https://madie.cms.gov/Observation/Observation-19","resource":{"resourceType":"Observation","id":"8654f2ea-73fb-4b9c-8ec4-cbf6eb070d78","meta":{"profile":["http://hl7.org/fhir/us/qicore/StructureDefinition/qicore-observation"]},"status":"final","category":[{"coding":[{"system":"http://terminology.hl7.org/CodeSystem/observation-category","code":"survey","display":"survey"}],"text":"survey"}],"code":{"coding":[{"system":"http://loinc.org","code":"71965-8","display":"PROMIS-29 Depression score T-score"}]},"subject":{"reference":"Patient/55e09746-2203-47d9-89d0-e96f71300720"},"effectivePeriod":{"start":"2025-01-01T23:00:00.000Z","end":"2025-01-01T23:59:00.000Z"},"valueInteger":4},"request":{"method":"PUT","url":"Observation/8654f2ea-73fb-4b9c-8ec4-cbf6eb070d78"}},{"fullUrl":"https://madie.cms.gov/Observation/Observation-20","resource":{"resourceType":"Observation","id":"4d0ed9b0-f5d0-4327-8373-51fae518a6f5","meta":{"profile":["http://hl7.org/fhir/us/qicore/StructureDefinition/qicore-observation"]},"status":"final","category":[{"coding":[{"system":"http://terminology.hl7.org/CodeSystem/observation-category","code":"survey","display":"survey"}],"text":"survey"}],"code":{"coding":[{"system":"http://loinc.org","code":"71965-8","display":"PROMIS-29 Depression score T-score"}]},"subject":{"reference":"Patient/55e09746-2203-47d9-89d0-e96f71300720"},"effectivePeriod":{"start":"2025-01-31T23:00:00.000Z","end":"2025-01-31T23:59:00.000Z"},"valueInteger":4},"request":{"method":"PUT","url":"Observation/4d0ed9b0-f5d0-4327-8373-51fae518a6f5"}},{"fullUrl":"https://madie.cms.gov/Observation/Observation-21","resource":{"resourceType":"Observation","id":"5af8935e-363d-439a-9de6-c49a298fcd91","meta":{"profile":["http://hl7.org/fhir/us/qicore/StructureDefinition/qicore-observation"]},"status":"final","category":[{"coding":[{"system":"http://terminology.hl7.org/CodeSystem/observation-category","code":"survey","display":"survey"}],"text":"survey"}],"code":{"coding":[{"system":"http://loinc.org","code":"71967-4","display":"PROMIS-29 Anxiety score T-score"}]},"subject":{"reference":"Patient/55e09746-2203-47d9-89d0-e96f71300720"},"effectivePeriod":{"start":"2025-01-01T23:00:00.000Z","end":"2025-01-01T23:59:00.000Z"},"valueInteger":4},"request":{"method":"PUT","url":"Observation/5af8935e-363d-439a-9de6-c49a298fcd91"}},{"fullUrl":"https://madie.cms.gov/Observation/Observation-22","resource":{"resourceType":"Observation","id":"294334ae-adb4-423e-b0ad-fbffa4931fb5","meta":{"profile":["http://hl7.org/fhir/us/qicore/StructureDefinition/qicore-observation"]},"status":"final","category":[{"coding":[{"system":"http://terminology.hl7.org/CodeSystem/observation-category","code":"survey","display":"survey"}],"text":"survey"}],"code":{"coding":[{"system":"http://loinc.org","code":"71967-4","display":"PROMIS-29 Anxiety score T-score"}]},"subject":{"reference":"Patient/55e09746-2203-47d9-89d0-e96f71300720"},"effectivePeriod":{"start":"2025-01-31T23:00:00.000Z","end":"2025-01-31T23:59:00.000Z"},"valueInteger":4},"request":{"method":"PUT","url":"Observation/294334ae-adb4-423e-b0ad-fbffa4931fb5"}},{"fullUrl":"https://madie.cms.gov/MeasureReport/80ffdf0a-b9b5-4f87-92ce-ef75bafd0b54","resource":{"resourceType":"MeasureReport","id":"80ffdf0a-b9b5-4f87-92ce-ef75bafd0b54","meta":{"profile":["http://hl7.org/fhir/us/cqfmeasures/StructureDefinition/test-case-cqfm"]},"contained":[{"resourceType":"Parameters","id":"ba513f49-ae2f-4df0-95eb-d49dec7e5b57-parameters","parameter":[{"name":"subject","valueString":"55e09746-2203-47d9-89d0-e96f71300720"}]}],"extension":[{"url":"http://hl7.org/fhir/us/cqfmeasures/StructureDefinition/cqfm-inputParameters","valueReference":{"reference":"#ba513f49-ae2f-4df0-95eb-d49dec7e5b57-parameters"}},{"url":"http://hl7.org/fhir/us/cqfmeasures/StructureDefinition/cqfm-testCaseDescription","valueMarkdown":"Patient has all PROMIS29 results during the correct timeframe."}],"modifierExtension":[{"url":"http://hl7.org/fhir/us/cqfmeasures/StructureDefinition/cqfm-isTestCase","valueBoolean":true}],"status":"complete","type":"individual","measure":"https://madie.cms.gov/Measure/FunctionalStatusAssessmentsforHeartFailureFHIR","period":{"start":"2025-01-01","end":"2025-12-31"},"group":[{"population":[{"code":{"coding":[{"system":"http://terminology.hl7.org/CodeSystem/measure-population","code":"initial-population","display":"Initial Population"}]},"count":1},{"code":{"coding":[{"system":"http://terminology.hl7.org/CodeSystem/measure-population","code":"denominator","display":"Denominator"}]},"count":1},{"code":{"coding":[{"system":"http://terminology.hl7.org/CodeSystem/measure-population","code":"denominator-exclusion","display":"Denominator Exclusion"}]},"count":0},{"code":{"coding":[{"system":"http://terminology.hl7.org/CodeSystem/measure-population","code":"numerator","display":"Numerator"}]},"count":1}]}]},"request":{"method":"PUT","url":"MeasureReport/80ffdf0a-b9b5-4f87-92ce-ef75bafd0b54"}}]}