{"resourceType":"Bundle","id":"tests-eec4814e-d102-4430-b4f8-4be611800a8c-bundle","type":"transaction","entry":[{"fullUrl":"https://madie.cms.gov/Patient/eec4814e-d102-4430-b4f8-4be611800a8c","resource":{"resourceType":"Patient","id":"eec4814e-d102-4430-b4f8-4be611800a8c","meta":{"profile":["http://hl7.org/fhir/us/qicore/StructureDefinition/qicore-patient"]},"extension":[{"url":"http://hl7.org/fhir/us/core/StructureDefinition/us-core-race","extension":[{"url":"ombCategory","valueCoding":{"system":"urn:oid:2.16.840.1.113883.6.238","code":"2028-9","display":"Asian"}},{"url":"text","valueString":"Asian"}]},{"url":"http://hl7.org/fhir/us/core/StructureDefinition/us-core-ethnicity","extension":[{"url":"ombCategory","valueCoding":{"system":"urn:oid:2.16.840.1.113883.6.238","code":"2135-2","display":"Hispanic or Latino"}},{"url":"text","valueString":"Hispanic or Latino"}]}],"identifier":[{"system":"http://hospital.smarthealthit.org","value":"999999995"}],"name":[{"family":"Bertha","given":["Betty"]}],"gender":"female","birthDate":"2007-01-01"},"request":{"method":"PUT","url":"Patient/eec4814e-d102-4430-b4f8-4be611800a8c"}},{"fullUrl":"https://madie.cms.gov/Encounter/Encounter-20","resource":{"resourceType":"Encounter","id":"58695adf-6517-4c3b-9b86-0e4c33dcef18","meta":{"profile":["http://hl7.org/fhir/us/qicore/StructureDefinition/qicore-encounter"]},"status":"finished","class":{"system":"http://terminology.hl7.org/CodeSystem/v3-ActCode","code":"AMB","display":"ambulatory"},"type":[{"coding":[{"system":"http://snomed.info/sct","code":"185317003","display":"Telephone encounter (procedure)"}]}],"subject":{"reference":"Patient/eec4814e-d102-4430-b4f8-4be611800a8c"},"period":{"start":"2025-01-01T01:00:00.000Z","end":"2025-01-01T01:15:00.000Z"}},"request":{"method":"PUT","url":"Encounter/58695adf-6517-4c3b-9b86-0e4c33dcef18"}},{"fullUrl":"https://madie.cms.gov/Encounter/Encounter-21","resource":{"resourceType":"Encounter","id":"f9711c53-f208-4383-8d2e-c4f3ed1ed076","meta":{"profile":["http://hl7.org/fhir/us/qicore/StructureDefinition/qicore-encounter"]},"status":"finished","class":{"system":"http://terminology.hl7.org/CodeSystem/v3-ActCode","code":"AMB","display":"ambulatory"},"type":[{"coding":[{"system":"http://snomed.info/sct","code":"185317003","display":"Telephone encounter (procedure)"}]}],"subject":{"reference":"Patient/eec4814e-d102-4430-b4f8-4be611800a8c"},"period":{"start":"2025-01-02T01:00:00.000Z","end":"2025-01-02T01:15:00.000Z"}},"request":{"method":"PUT","url":"Encounter/f9711c53-f208-4383-8d2e-c4f3ed1ed076"}},{"fullUrl":"https://madie.cms.gov/Condition/Condition-10","resource":{"resourceType":"Condition","id":"86a94bbb-81c6-4230-8210-708c1f37665a","meta":{"profile":["http://hl7.org/fhir/us/qicore/StructureDefinition/qicore-condition"]},"clinicalStatus":{"coding":[{"system":"http://terminology.hl7.org/CodeSystem/condition-clinical","code":"active"}]},"category":[{"coding":[{"system":"http://terminology.hl7.org/CodeSystem/condition-category","code":"problem-list-item","display":"Problem List Item"}]}],"code":{"coding":[{"system":"http://snomed.info/sct","code":"10091002","display":"High output heart failure (disorder)"}]},"subject":{"reference":"Patient/eec4814e-d102-4430-b4f8-4be611800a8c"},"onsetDateTime":"2024-12-31T23:59:00.000Z"},"request":{"method":"PUT","url":"Condition/86a94bbb-81c6-4230-8210-708c1f37665a"}},{"fullUrl":"https://madie.cms.gov/Observation/Observation-26","resource":{"resourceType":"Observation","id":"9fe76e36-0adc-42d4-991c-28fabe3a2831","meta":{"profile":["http://hl7.org/fhir/us/qicore/StructureDefinition/qicore-observation"]},"status":"final","category":[{"coding":[{"system":"http://terminology.hl7.org/CodeSystem/observation-category","code":"survey","display":"survey"}],"text":"survey"}],"code":{"coding":[{"system":"http://loinc.org","code":"72026-8","display":"VR-12 Mental component summary (MCS) score - oblique method T-score"}]},"subject":{"reference":"Patient/eec4814e-d102-4430-b4f8-4be611800a8c"},"effectivePeriod":{"start":"2025-01-01T23:00:00.000Z","end":"2025-01-01T23:59:00.000Z"},"valueInteger":4},"request":{"method":"PUT","url":"Observation/9fe76e36-0adc-42d4-991c-28fabe3a2831"}},{"fullUrl":"https://madie.cms.gov/Observation/Observation-27","resource":{"resourceType":"Observation","id":"9cda6dfe-e2e1-4523-881a-4ab68340ac4b","meta":{"profile":["http://hl7.org/fhir/us/qicore/StructureDefinition/qicore-observation"]},"status":"final","category":[{"coding":[{"system":"http://terminology.hl7.org/CodeSystem/observation-category","code":"survey","display":"survey"}],"text":"survey"}],"code":{"coding":[{"system":"http://loinc.org","code":"72026-8","display":"VR-12 Mental component summary (MCS) score - oblique method T-score"}]},"subject":{"reference":"Patient/eec4814e-d102-4430-b4f8-4be611800a8c"},"effectivePeriod":{"start":"2025-01-31T23:00:00.000Z","end":"2025-01-31T23:59:00.000Z"},"valueInteger":4},"request":{"method":"PUT","url":"Observation/9cda6dfe-e2e1-4523-881a-4ab68340ac4b"}},{"fullUrl":"https://madie.cms.gov/Observation/Observation-28","resource":{"resourceType":"Observation","id":"337d0f4a-2e45-49b2-8a16-1d7f41ccd739","meta":{"profile":["http://hl7.org/fhir/us/qicore/StructureDefinition/qicore-observation"]},"status":"final","category":[{"coding":[{"system":"http://terminology.hl7.org/CodeSystem/observation-category","code":"survey","display":"survey"}],"text":"survey"}],"code":{"coding":[{"system":"http://loinc.org","code":"72025-0","display":"VR-12 Physical component summary (PCS) score - oblique method T-score"}]},"subject":{"reference":"Patient/eec4814e-d102-4430-b4f8-4be611800a8c"},"effectivePeriod":{"start":"2025-01-01T23:00:00.000Z","end":"2025-01-01T23:59:00.000Z"},"valueInteger":4},"request":{"method":"PUT","url":"Observation/337d0f4a-2e45-49b2-8a16-1d7f41ccd739"}},{"fullUrl":"https://madie.cms.gov/Observation/Observation-29","resource":{"resourceType":"Observation","id":"7d9b520b-1d06-430b-b8f8-c4c187b02d7a","meta":{"profile":["http://hl7.org/fhir/us/qicore/StructureDefinition/qicore-observation"]},"status":"final","category":[{"coding":[{"system":"http://terminology.hl7.org/CodeSystem/observation-category","code":"survey","display":"survey"}],"text":"survey"}],"code":{"coding":[{"system":"http://loinc.org","code":"72025-0","display":"VR-12 Physical component summary (PCS) score - oblique method T-score"}]},"subject":{"reference":"Patient/eec4814e-d102-4430-b4f8-4be611800a8c"},"effectivePeriod":{"start":"2025-01-31T23:00:00.000Z","end":"2025-01-31T23:59:00.000Z"}},"request":{"method":"PUT","url":"Observation/7d9b520b-1d06-430b-b8f8-c4c187b02d7a"}},{"fullUrl":"https://madie.cms.gov/MeasureReport/053545fd-bcb6-421a-ad96-311791efe6da","resource":{"resourceType":"MeasureReport","id":"053545fd-bcb6-421a-ad96-311791efe6da","meta":{"profile":["http://hl7.org/fhir/us/cqfmeasures/StructureDefinition/test-case-cqfm"]},"contained":[{"resourceType":"Parameters","id":"c7ad9564-a745-49c1-adec-e0d0b153ab07-parameters","parameter":[{"name":"subject","valueString":"eec4814e-d102-4430-b4f8-4be611800a8c"}]}],"extension":[{"url":"http://hl7.org/fhir/us/cqfmeasures/StructureDefinition/cqfm-inputParameters","valueReference":{"reference":"#c7ad9564-a745-49c1-adec-e0d0b153ab07-parameters"}},{"url":"http://hl7.org/fhir/us/cqfmeasures/StructureDefinition/cqfm-testCaseDescription","valueMarkdown":"Patient has all VR12 Oblique during the correct timeframe but VR-12 Physical component summary (PCS) score - oblique method T-score is missing result."}],"modifierExtension":[{"url":"http://hl7.org/fhir/us/cqfmeasures/StructureDefinition/cqfm-isTestCase","valueBoolean":true}],"status":"complete","type":"individual","measure":"https://madie.cms.gov/Measure/FunctionalStatusAssessmentsforHeartFailureFHIR","period":{"start":"2025-01-01","end":"2025-12-31"},"group":[{"population":[{"code":{"coding":[{"system":"http://terminology.hl7.org/CodeSystem/measure-population","code":"initial-population","display":"Initial Population"}]},"count":1},{"code":{"coding":[{"system":"http://terminology.hl7.org/CodeSystem/measure-population","code":"denominator","display":"Denominator"}]},"count":1},{"code":{"coding":[{"system":"http://terminology.hl7.org/CodeSystem/measure-population","code":"denominator-exclusion","display":"Denominator Exclusion"}]},"count":0},{"code":{"coding":[{"system":"http://terminology.hl7.org/CodeSystem/measure-population","code":"numerator","display":"Numerator"}]},"count":0}]}]},"request":{"method":"PUT","url":"MeasureReport/053545fd-bcb6-421a-ad96-311791efe6da"}}]}