{"resourceType":"Bundle","id":"tests-50a51fb2-a8bb-42b8-acf1-784749261d31-bundle","type":"transaction","entry":[{"fullUrl":"https://madie.cms.gov/Patient/50a51fb2-a8bb-42b8-acf1-784749261d31","resource":{"resourceType":"Patient","id":"50a51fb2-a8bb-42b8-acf1-784749261d31","meta":{"profile":["http://hl7.org/fhir/us/qicore/StructureDefinition/qicore-patient"]},"extension":[{"url":"http://hl7.org/fhir/us/core/StructureDefinition/us-core-race","extension":[{"url":"ombCategory","valueCoding":{"system":"urn:oid:2.16.840.1.113883.6.238","code":"2028-9","display":"Asian"}},{"url":"text","valueString":"Asian"}]},{"url":"http://hl7.org/fhir/us/core/StructureDefinition/us-core-ethnicity","extension":[{"url":"ombCategory","valueCoding":{"system":"urn:oid:2.16.840.1.113883.6.238","code":"2135-2","display":"Hispanic or Latino"}},{"url":"text","valueString":"Hispanic or Latino"}]}],"identifier":[{"system":"http://hospital.smarthealthit.org","value":"999999995"}],"name":[{"family":"Bertha","given":["Betty"]}],"gender":"female","birthDate":"2007-01-01"},"request":{"method":"PUT","url":"Patient/50a51fb2-a8bb-42b8-acf1-784749261d31"}},{"fullUrl":"https://madie.cms.gov/Encounter/Encounter-26","resource":{"resourceType":"Encounter","id":"2be04f6d-f48c-4a46-aafd-31e1fbc33bb5","meta":{"profile":["http://hl7.org/fhir/us/qicore/StructureDefinition/qicore-encounter"]},"status":"finished","class":{"system":"http://terminology.hl7.org/CodeSystem/v3-ActCode","code":"AMB","display":"ambulatory"},"type":[{"coding":[{"system":"http://snomed.info/sct","code":"185317003","display":"Telephone encounter (procedure)"}]}],"subject":{"reference":"Patient/50a51fb2-a8bb-42b8-acf1-784749261d31"},"period":{"start":"2025-01-01T01:00:00.000Z","end":"2025-01-01T01:15:00.000Z"}},"request":{"method":"PUT","url":"Encounter/2be04f6d-f48c-4a46-aafd-31e1fbc33bb5"}},{"fullUrl":"https://madie.cms.gov/Encounter/Encounter-27","resource":{"resourceType":"Encounter","id":"70f42a4f-68a2-46ec-bfe5-e9fcdd942722","meta":{"profile":["http://hl7.org/fhir/us/qicore/StructureDefinition/qicore-encounter"]},"status":"finished","class":{"system":"http://terminology.hl7.org/CodeSystem/v3-ActCode","code":"AMB","display":"ambulatory"},"type":[{"coding":[{"system":"http://snomed.info/sct","code":"185317003","display":"Telephone encounter (procedure)"}]}],"subject":{"reference":"Patient/50a51fb2-a8bb-42b8-acf1-784749261d31"},"period":{"start":"2025-01-02T01:00:00.000Z","end":"2025-01-02T01:15:00.000Z"}},"request":{"method":"PUT","url":"Encounter/70f42a4f-68a2-46ec-bfe5-e9fcdd942722"}},{"fullUrl":"https://madie.cms.gov/Condition/Condition-13","resource":{"resourceType":"Condition","id":"0cc3f695-3e5b-4278-bc66-adc8b97b3be0","meta":{"profile":["http://hl7.org/fhir/us/qicore/StructureDefinition/qicore-condition"]},"clinicalStatus":{"coding":[{"system":"http://terminology.hl7.org/CodeSystem/condition-clinical","code":"active"}]},"category":[{"coding":[{"system":"http://terminology.hl7.org/CodeSystem/condition-category","code":"problem-list-item","display":"Problem List Item"}]}],"code":{"coding":[{"system":"http://snomed.info/sct","code":"10091002","display":"High output heart failure (disorder)"}]},"subject":{"reference":"Patient/50a51fb2-a8bb-42b8-acf1-784749261d31"},"onsetDateTime":"2024-12-31T23:59:00.000Z"},"request":{"method":"PUT","url":"Condition/0cc3f695-3e5b-4278-bc66-adc8b97b3be0"}},{"fullUrl":"https://madie.cms.gov/Observation/Observation-38","resource":{"resourceType":"Observation","id":"7afb4b72-3893-4dd0-a464-747f899131d7","meta":{"profile":["http://hl7.org/fhir/us/qicore/StructureDefinition/qicore-observation"]},"status":"final","category":[{"coding":[{"system":"http://terminology.hl7.org/CodeSystem/observation-category","code":"survey","display":"survey"}],"text":"survey"}],"code":{"coding":[{"system":"http://loinc.org","code":"71990-6","display":"VR-36 Mental component summary (MCS) score - oblique method T-score"}]},"subject":{"reference":"Patient/50a51fb2-a8bb-42b8-acf1-784749261d31"},"effectivePeriod":{"start":"2025-01-01T23:00:00.000Z","end":"2025-01-01T23:59:00.000Z"},"valueInteger":4},"request":{"method":"PUT","url":"Observation/7afb4b72-3893-4dd0-a464-747f899131d7"}},{"fullUrl":"https://madie.cms.gov/Observation/Observation-39","resource":{"resourceType":"Observation","id":"86d73628-d8f4-4e25-ba0f-150580988e45","meta":{"profile":["http://hl7.org/fhir/us/qicore/StructureDefinition/qicore-observation"]},"status":"final","category":[{"coding":[{"system":"http://terminology.hl7.org/CodeSystem/observation-category","code":"survey","display":"survey"}],"text":"survey"}],"code":{"coding":[{"system":"http://loinc.org","code":"71990-6","display":"VR-36 Mental component summary (MCS) score - oblique method T-score"}]},"subject":{"reference":"Patient/50a51fb2-a8bb-42b8-acf1-784749261d31"},"effectivePeriod":{"start":"2025-01-31T23:00:00.000Z","end":"2025-01-31T23:59:00.000Z"},"valueInteger":4},"request":{"method":"PUT","url":"Observation/86d73628-d8f4-4e25-ba0f-150580988e45"}},{"fullUrl":"https://madie.cms.gov/Observation/Observation-40","resource":{"resourceType":"Observation","id":"79cb6784-9555-4e2d-839b-5827a1b50999","meta":{"profile":["http://hl7.org/fhir/us/qicore/StructureDefinition/qicore-observation"]},"status":"final","category":[{"coding":[{"system":"http://terminology.hl7.org/CodeSystem/observation-category","code":"survey","display":"survey"}],"text":"survey"}],"code":{"coding":[{"system":"http://loinc.org","code":"71989-8","display":"VR-36 Physical component summary (PCS) score - oblique method T-score"}]},"subject":{"reference":"Patient/50a51fb2-a8bb-42b8-acf1-784749261d31"},"effectivePeriod":{"start":"2025-01-01T23:00:00.000Z","end":"2025-01-01T23:59:00.000Z"},"valueInteger":4},"request":{"method":"PUT","url":"Observation/79cb6784-9555-4e2d-839b-5827a1b50999"}},{"fullUrl":"https://madie.cms.gov/Observation/Observation-41","resource":{"resourceType":"Observation","id":"df1abb93-cd31-4d4e-adf6-bbe2a1f541d4","meta":{"profile":["http://hl7.org/fhir/us/qicore/StructureDefinition/qicore-observation"]},"status":"final","category":[{"coding":[{"system":"http://terminology.hl7.org/CodeSystem/observation-category","code":"survey","display":"survey"}],"text":"survey"}],"code":{"coding":[{"system":"http://loinc.org","code":"71989-8","display":"VR-36 Physical component summary (PCS) score - oblique method T-score"}]},"subject":{"reference":"Patient/50a51fb2-a8bb-42b8-acf1-784749261d31"},"effectivePeriod":{"start":"2025-01-31T23:00:00.000Z","end":"2025-01-31T23:59:00.000Z"},"valueInteger":4},"request":{"method":"PUT","url":"Observation/df1abb93-cd31-4d4e-adf6-bbe2a1f541d4"}},{"fullUrl":"https://madie.cms.gov/MeasureReport/40a2c5fb-dd26-4552-8cf7-717c277fe4ca","resource":{"resourceType":"MeasureReport","id":"40a2c5fb-dd26-4552-8cf7-717c277fe4ca","meta":{"profile":["http://hl7.org/fhir/us/cqfmeasures/StructureDefinition/test-case-cqfm"]},"contained":[{"resourceType":"Parameters","id":"243cc762-8e0b-4a14-92a3-6e3309661627-parameters","parameter":[{"name":"subject","valueString":"50a51fb2-a8bb-42b8-acf1-784749261d31"}]}],"extension":[{"url":"http://hl7.org/fhir/us/cqfmeasures/StructureDefinition/cqfm-inputParameters","valueReference":{"reference":"#243cc762-8e0b-4a14-92a3-6e3309661627-parameters"}},{"url":"http://hl7.org/fhir/us/cqfmeasures/StructureDefinition/cqfm-testCaseDescription","valueMarkdown":"Patient has all VR36 Oblique Assessments during the correct timeframe but one FSA is missing a result."}],"modifierExtension":[{"url":"http://hl7.org/fhir/us/cqfmeasures/StructureDefinition/cqfm-isTestCase","valueBoolean":true}],"status":"complete","type":"individual","measure":"https://madie.cms.gov/Measure/FunctionalStatusAssessmentsforHeartFailureFHIR","period":{"start":"2025-01-01","end":"2025-12-31"},"group":[{"population":[{"code":{"coding":[{"system":"http://terminology.hl7.org/CodeSystem/measure-population","code":"initial-population","display":"Initial Population"}]},"count":1},{"code":{"coding":[{"system":"http://terminology.hl7.org/CodeSystem/measure-population","code":"denominator","display":"Denominator"}]},"count":1},{"code":{"coding":[{"system":"http://terminology.hl7.org/CodeSystem/measure-population","code":"denominator-exclusion","display":"Denominator Exclusion"}]},"count":0},{"code":{"coding":[{"system":"http://terminology.hl7.org/CodeSystem/measure-population","code":"numerator","display":"Numerator"}]},"count":1}]}]},"request":{"method":"PUT","url":"MeasureReport/40a2c5fb-dd26-4552-8cf7-717c277fe4ca"}}]}