{"resourceType":"Bundle","id":"tests-6ac7da1d-a713-4c07-a4d9-ccd11f1cb745-bundle","type":"transaction","entry":[{"fullUrl":"https://madie.cms.gov/Patient/6ac7da1d-a713-4c07-a4d9-ccd11f1cb745","resource":{"resourceType":"Patient","id":"6ac7da1d-a713-4c07-a4d9-ccd11f1cb745","meta":{"profile":["http://hl7.org/fhir/us/qicore/StructureDefinition/qicore-patient"]},"extension":[{"url":"http://hl7.org/fhir/us/core/StructureDefinition/us-core-race","extension":[{"url":"ombCategory","valueCoding":{"system":"urn:oid:2.16.840.1.113883.6.238","code":"2028-9","display":"Asian"}},{"url":"text","valueString":"Asian"}]},{"url":"http://hl7.org/fhir/us/core/StructureDefinition/us-core-ethnicity","extension":[{"url":"ombCategory","valueCoding":{"system":"urn:oid:2.16.840.1.113883.6.238","code":"2135-2","display":"Hispanic or Latino"}},{"url":"text","valueString":"Hispanic or Latino"}]}],"identifier":[{"system":"http://hospital.smarthealthit.org","value":"999999995"}],"name":[{"family":"Bertha","given":["Betty"]}],"gender":"female","birthDate":"2007-01-01"},"request":{"method":"PUT","url":"Patient/6ac7da1d-a713-4c07-a4d9-ccd11f1cb745"}},{"fullUrl":"https://madie.cms.gov/Encounter/Encounter-16","resource":{"resourceType":"Encounter","id":"e08a81ba-a2f2-46c7-b6c5-82000f10c55f","meta":{"profile":["http://hl7.org/fhir/us/qicore/StructureDefinition/qicore-encounter"]},"status":"finished","class":{"system":"http://terminology.hl7.org/CodeSystem/v3-ActCode","code":"AMB","display":"ambulatory"},"type":[{"coding":[{"system":"http://snomed.info/sct","code":"185317003","display":"Telephone encounter (procedure)"}]}],"subject":{"reference":"Patient/6ac7da1d-a713-4c07-a4d9-ccd11f1cb745"},"period":{"start":"2025-01-01T01:00:00.000Z","end":"2025-01-01T01:15:00.000Z"}},"request":{"method":"PUT","url":"Encounter/e08a81ba-a2f2-46c7-b6c5-82000f10c55f"}},{"fullUrl":"https://madie.cms.gov/Encounter/Encounter-17","resource":{"resourceType":"Encounter","id":"aa775385-7590-4e61-a81c-d927534782be","meta":{"profile":["http://hl7.org/fhir/us/qicore/StructureDefinition/qicore-encounter"]},"status":"finished","class":{"system":"http://terminology.hl7.org/CodeSystem/v3-ActCode","code":"AMB","display":"ambulatory"},"type":[{"coding":[{"system":"http://snomed.info/sct","code":"185317003","display":"Telephone encounter (procedure)"}]}],"subject":{"reference":"Patient/6ac7da1d-a713-4c07-a4d9-ccd11f1cb745"},"period":{"start":"2025-01-02T01:00:00.000Z","end":"2025-01-02T01:15:00.000Z"}},"request":{"method":"PUT","url":"Encounter/aa775385-7590-4e61-a81c-d927534782be"}},{"fullUrl":"https://madie.cms.gov/Condition/Condition-8","resource":{"resourceType":"Condition","id":"a00c9214-8cf9-45b2-93d2-7d6ec92832df","meta":{"profile":["http://hl7.org/fhir/us/qicore/StructureDefinition/qicore-condition"]},"clinicalStatus":{"coding":[{"system":"http://terminology.hl7.org/CodeSystem/condition-clinical","code":"active"}]},"category":[{"coding":[{"system":"http://terminology.hl7.org/CodeSystem/condition-category","code":"problem-list-item","display":"Problem List Item"}]}],"code":{"coding":[{"system":"http://snomed.info/sct","code":"10091002","display":"High output heart failure (disorder)"}]},"subject":{"reference":"Patient/6ac7da1d-a713-4c07-a4d9-ccd11f1cb745"},"onsetDateTime":"2024-12-31T23:59:00.000Z"},"request":{"method":"PUT","url":"Condition/a00c9214-8cf9-45b2-93d2-7d6ec92832df"}},{"fullUrl":"https://madie.cms.gov/Observation/Observation-10","resource":{"resourceType":"Observation","id":"75f8273c-0eaf-4820-8b8f-1bf5c7519892","meta":{"profile":["http://hl7.org/fhir/us/qicore/StructureDefinition/qicore-observation"]},"status":"final","category":[{"coding":[{"system":"http://terminology.hl7.org/CodeSystem/observation-category","code":"survey","display":"survey"}],"text":"survey"}],"code":{"coding":[{"system":"http://loinc.org","code":"71955-9","display":"PROMIS-29 Sleep disturbance score T-score"}]},"subject":{"reference":"Patient/6ac7da1d-a713-4c07-a4d9-ccd11f1cb745"},"effectivePeriod":{"start":"2025-01-01T23:00:00.000Z","end":"2025-01-01T23:59:00.000Z"},"valueInteger":1},"request":{"method":"PUT","url":"Observation/75f8273c-0eaf-4820-8b8f-1bf5c7519892"}},{"fullUrl":"https://madie.cms.gov/Observation/Observation-11","resource":{"resourceType":"Observation","id":"0473ee0f-9ec2-4721-a1f6-c346b659220e","meta":{"profile":["http://hl7.org/fhir/us/qicore/StructureDefinition/qicore-observation"]},"status":"final","category":[{"coding":[{"system":"http://terminology.hl7.org/CodeSystem/observation-category","code":"survey","display":"survey"}],"text":"survey"}],"code":{"coding":[{"system":"http://loinc.org","code":"71957-5","display":"PROMIS-29 Satisfaction with participation in social roles score T-score"}]},"subject":{"reference":"Patient/6ac7da1d-a713-4c07-a4d9-ccd11f1cb745"},"effectivePeriod":{"start":"2025-01-01T23:00:00.000Z","end":"2025-01-01T23:59:00.000Z"},"valueInteger":2},"request":{"method":"PUT","url":"Observation/0473ee0f-9ec2-4721-a1f6-c346b659220e"}},{"fullUrl":"https://madie.cms.gov/Observation/Observation-12","resource":{"resourceType":"Observation","id":"42f6624f-799e-4690-acd4-aaa8229d02f0","meta":{"profile":["http://hl7.org/fhir/us/qicore/StructureDefinition/qicore-observation"]},"status":"final","category":[{"coding":[{"system":"http://terminology.hl7.org/CodeSystem/observation-category","code":"survey","display":"survey"}],"text":"survey"}],"code":{"coding":[{"system":"http://loinc.org","code":"71955-9","display":"PROMIS-29 Sleep disturbance score T-score"}]},"subject":{"reference":"Patient/6ac7da1d-a713-4c07-a4d9-ccd11f1cb745"},"effectivePeriod":{"start":"2025-01-31T23:00:00.000Z","end":"2025-01-31T23:59:00.000Z"},"valueInteger":3},"request":{"method":"PUT","url":"Observation/42f6624f-799e-4690-acd4-aaa8229d02f0"}},{"fullUrl":"https://madie.cms.gov/Observation/Observation-13","resource":{"resourceType":"Observation","id":"bea2bac3-f8c1-46aa-b039-a5c89706ccf7","meta":{"profile":["http://hl7.org/fhir/us/qicore/StructureDefinition/qicore-observation"]},"status":"final","category":[{"coding":[{"system":"http://terminology.hl7.org/CodeSystem/observation-category","code":"survey","display":"survey"}],"text":"survey"}],"code":{"coding":[{"system":"http://loinc.org","code":"71957-5","display":"PROMIS-29 Satisfaction with participation in social roles score T-score"}]},"subject":{"reference":"Patient/6ac7da1d-a713-4c07-a4d9-ccd11f1cb745"},"effectivePeriod":{"start":"2025-01-31T23:00:00.000Z","end":"2025-01-31T23:59:00.000Z"},"valueInteger":4},"request":{"method":"PUT","url":"Observation/bea2bac3-f8c1-46aa-b039-a5c89706ccf7"}},{"fullUrl":"https://madie.cms.gov/Observation/Observation-14","resource":{"resourceType":"Observation","id":"1e672b24-a4aa-4442-86c7-d4c71320b95b","meta":{"profile":["http://hl7.org/fhir/us/qicore/StructureDefinition/qicore-observation"]},"status":"final","category":[{"coding":[{"system":"http://terminology.hl7.org/CodeSystem/observation-category","code":"survey","display":"survey"}],"text":"survey"}],"code":{"coding":[{"system":"http://loinc.org","code":"71959-1","display":"PROMIS-29 Physical function score T-score"}]},"subject":{"reference":"Patient/6ac7da1d-a713-4c07-a4d9-ccd11f1cb745"},"effectivePeriod":{"start":"2025-01-01T23:00:00.000Z","end":"2025-01-01T23:59:00.000Z"},"valueInteger":4},"request":{"method":"PUT","url":"Observation/1e672b24-a4aa-4442-86c7-d4c71320b95b"}},{"fullUrl":"https://madie.cms.gov/Observation/Observation-15","resource":{"resourceType":"Observation","id":"58a8cab8-67db-42a7-9f5e-ed13129f27b4","meta":{"profile":["http://hl7.org/fhir/us/qicore/StructureDefinition/qicore-observation"]},"status":"final","category":[{"coding":[{"system":"http://terminology.hl7.org/CodeSystem/observation-category","code":"survey","display":"survey"}],"text":"survey"}],"code":{"coding":[{"system":"http://loinc.org","code":"71959-1","display":"PROMIS-29 Physical function score T-score"}]},"subject":{"reference":"Patient/6ac7da1d-a713-4c07-a4d9-ccd11f1cb745"},"effectivePeriod":{"start":"2025-01-31T23:00:00.000Z","end":"2025-01-31T23:59:00.000Z"},"valueInteger":4},"request":{"method":"PUT","url":"Observation/58a8cab8-67db-42a7-9f5e-ed13129f27b4"}},{"fullUrl":"https://madie.cms.gov/Observation/Observation-16","resource":{"resourceType":"Observation","id":"f71c3b3c-3d1c-4a6a-acdf-d2099a0fadc6","meta":{"profile":["http://hl7.org/fhir/us/qicore/StructureDefinition/qicore-observation"]},"status":"final","category":[{"coding":[{"system":"http://terminology.hl7.org/CodeSystem/observation-category","code":"survey","display":"survey"}],"text":"survey"}],"code":{"coding":[{"system":"http://loinc.org","code":"71961-7","display":"PROMIS-29 Pain interference score T-score"}]},"subject":{"reference":"Patient/6ac7da1d-a713-4c07-a4d9-ccd11f1cb745"},"effectivePeriod":{"start":"2025-01-01T23:00:00.000Z","end":"2025-01-01T23:59:00.000Z"},"valueInteger":4},"request":{"method":"PUT","url":"Observation/f71c3b3c-3d1c-4a6a-acdf-d2099a0fadc6"}},{"fullUrl":"https://madie.cms.gov/Observation/Observation-17","resource":{"resourceType":"Observation","id":"e90eec0f-f104-43ee-ba3f-2c6e25d12a25","meta":{"profile":["http://hl7.org/fhir/us/qicore/StructureDefinition/qicore-observation"]},"status":"final","category":[{"coding":[{"system":"http://terminology.hl7.org/CodeSystem/observation-category","code":"survey","display":"survey"}],"text":"survey"}],"code":{"coding":[{"system":"http://loinc.org","code":"71961-7","display":"PROMIS-29 Pain interference score T-score"}]},"subject":{"reference":"Patient/6ac7da1d-a713-4c07-a4d9-ccd11f1cb745"},"effectivePeriod":{"start":"2025-01-31T23:00:00.000Z","end":"2025-01-31T23:59:00.000Z"},"valueInteger":4},"request":{"method":"PUT","url":"Observation/e90eec0f-f104-43ee-ba3f-2c6e25d12a25"}},{"fullUrl":"https://madie.cms.gov/Observation/Observation-18","resource":{"resourceType":"Observation","id":"fc65ec12-0aea-4de1-b53c-54eb02793e91","meta":{"profile":["http://hl7.org/fhir/us/qicore/StructureDefinition/qicore-observation"]},"status":"final","category":[{"coding":[{"system":"http://terminology.hl7.org/CodeSystem/observation-category","code":"survey","display":"survey"}],"text":"survey"}],"code":{"coding":[{"system":"http://loinc.org","code":"71963-3","display":"PROMIS-29 Fatigue score T-score"}]},"subject":{"reference":"Patient/6ac7da1d-a713-4c07-a4d9-ccd11f1cb745"},"effectivePeriod":{"start":"2025-01-01T23:00:00.000Z","end":"2025-01-01T23:59:00.000Z"},"valueInteger":4},"request":{"method":"PUT","url":"Observation/fc65ec12-0aea-4de1-b53c-54eb02793e91"}},{"fullUrl":"https://madie.cms.gov/Observation/Observation-19","resource":{"resourceType":"Observation","id":"fe711e10-64af-4402-91c8-8eba956e0ca5","meta":{"profile":["http://hl7.org/fhir/us/qicore/StructureDefinition/qicore-observation"]},"status":"final","category":[{"coding":[{"system":"http://terminology.hl7.org/CodeSystem/observation-category","code":"survey","display":"survey"}],"text":"survey"}],"code":{"coding":[{"system":"http://loinc.org","code":"71963-3","display":"PROMIS-29 Fatigue score T-score"}]},"subject":{"reference":"Patient/6ac7da1d-a713-4c07-a4d9-ccd11f1cb745"},"effectivePeriod":{"start":"2025-01-31T23:00:00.000Z","end":"2025-01-31T23:59:00.000Z"},"valueInteger":4},"request":{"method":"PUT","url":"Observation/fe711e10-64af-4402-91c8-8eba956e0ca5"}},{"fullUrl":"https://madie.cms.gov/Observation/Observation-20","resource":{"resourceType":"Observation","id":"1c808161-729c-4c31-932f-66671d6185f0","meta":{"profile":["http://hl7.org/fhir/us/qicore/StructureDefinition/qicore-observation"]},"status":"final","category":[{"coding":[{"system":"http://terminology.hl7.org/CodeSystem/observation-category","code":"survey","display":"survey"}],"text":"survey"}],"code":{"coding":[{"system":"http://loinc.org","code":"71965-8","display":"PROMIS-29 Depression score T-score"}]},"subject":{"reference":"Patient/6ac7da1d-a713-4c07-a4d9-ccd11f1cb745"},"effectivePeriod":{"start":"2025-01-01T23:00:00.000Z","end":"2025-01-01T23:59:00.000Z"},"valueInteger":4},"request":{"method":"PUT","url":"Observation/1c808161-729c-4c31-932f-66671d6185f0"}},{"fullUrl":"https://madie.cms.gov/Observation/Observation-21","resource":{"resourceType":"Observation","id":"08c28cb3-7376-4198-96fb-90d6c564de14","meta":{"profile":["http://hl7.org/fhir/us/qicore/StructureDefinition/qicore-observation"]},"status":"final","category":[{"coding":[{"system":"http://terminology.hl7.org/CodeSystem/observation-category","code":"survey","display":"survey"}],"text":"survey"}],"code":{"coding":[{"system":"http://loinc.org","code":"71965-8","display":"PROMIS-29 Depression score T-score"}]},"subject":{"reference":"Patient/6ac7da1d-a713-4c07-a4d9-ccd11f1cb745"},"effectivePeriod":{"start":"2025-01-31T23:00:00.000Z","end":"2025-01-31T23:59:00.000Z"},"valueInteger":4},"request":{"method":"PUT","url":"Observation/08c28cb3-7376-4198-96fb-90d6c564de14"}},{"fullUrl":"https://madie.cms.gov/MeasureReport/7a055549-f653-4667-b0ff-5f6026ba9326","resource":{"resourceType":"MeasureReport","id":"7a055549-f653-4667-b0ff-5f6026ba9326","meta":{"profile":["http://hl7.org/fhir/us/cqfmeasures/StructureDefinition/test-case-cqfm"]},"contained":[{"resourceType":"Parameters","id":"4d4629f9-671b-4ad8-baf8-6ea837a1515e-parameters","parameter":[{"name":"subject","valueString":"6ac7da1d-a713-4c07-a4d9-ccd11f1cb745"}]}],"extension":[{"url":"http://hl7.org/fhir/us/cqfmeasures/StructureDefinition/cqfm-inputParameters","valueReference":{"reference":"#4d4629f9-671b-4ad8-baf8-6ea837a1515e-parameters"}},{"url":"http://hl7.org/fhir/us/cqfmeasures/StructureDefinition/cqfm-testCaseDescription","valueMarkdown":"Patient has all FSA except for one PROMIS-29 Anxiety score T-score."}],"modifierExtension":[{"url":"http://hl7.org/fhir/us/cqfmeasures/StructureDefinition/cqfm-isTestCase","valueBoolean":true}],"status":"complete","type":"individual","measure":"https://madie.cms.gov/Measure/FunctionalStatusAssessmentsforHeartFailureFHIR","period":{"start":"2025-01-01","end":"2025-12-31"},"group":[{"population":[{"code":{"coding":[{"system":"http://terminology.hl7.org/CodeSystem/measure-population","code":"initial-population","display":"Initial Population"}]},"count":1},{"code":{"coding":[{"system":"http://terminology.hl7.org/CodeSystem/measure-population","code":"denominator","display":"Denominator"}]},"count":1},{"code":{"coding":[{"system":"http://terminology.hl7.org/CodeSystem/measure-population","code":"denominator-exclusion","display":"Denominator Exclusion"}]},"count":0},{"code":{"coding":[{"system":"http://terminology.hl7.org/CodeSystem/measure-population","code":"numerator","display":"Numerator"}]},"count":0}]}]},"request":{"method":"PUT","url":"MeasureReport/7a055549-f653-4667-b0ff-5f6026ba9326"}}]}