{"resourceType":"Bundle","id":"tests-e9b53461-c75e-4749-ab0c-bd7a6e2b060f-bundle","type":"transaction","entry":[{"fullUrl":"https://madie.cms.gov/Patient/e9b53461-c75e-4749-ab0c-bd7a6e2b060f","resource":{"resourceType":"Patient","id":"e9b53461-c75e-4749-ab0c-bd7a6e2b060f","meta":{"profile":["http://hl7.org/fhir/us/qicore/StructureDefinition/qicore-patient"]},"extension":[{"url":"http://hl7.org/fhir/us/core/StructureDefinition/us-core-race","extension":[{"url":"ombCategory","valueCoding":{"system":"urn:oid:2.16.840.1.113883.6.238","code":"2028-9","display":"Asian"}},{"url":"text","valueString":"Asian"}]},{"url":"http://hl7.org/fhir/us/core/StructureDefinition/us-core-ethnicity","extension":[{"url":"ombCategory","valueCoding":{"system":"urn:oid:2.16.840.1.113883.6.238","code":"2135-2","display":"Hispanic or Latino"}},{"url":"text","valueString":"Hispanic or Latino"}]}],"identifier":[{"system":"http://hospital.smarthealthit.org","value":"999999995"}],"name":[{"family":"Bertha","given":["Betty"]}],"gender":"female","birthDate":"2007-01-01"},"request":{"method":"PUT","url":"Patient/e9b53461-c75e-4749-ab0c-bd7a6e2b060f"}},{"fullUrl":"https://madie.cms.gov/Encounter/Encounter-11","resource":{"resourceType":"Encounter","id":"cb3ecdaa-eb24-4a45-9a53-d03d78c4269a","meta":{"profile":["http://hl7.org/fhir/us/qicore/StructureDefinition/qicore-encounter"]},"status":"finished","class":{"system":"http://terminology.hl7.org/CodeSystem/v3-ActCode","code":"AMB","display":"ambulatory"},"type":[{"coding":[{"system":"http://snomed.info/sct","code":"185317003","display":"Telephone encounter (procedure)"}]}],"subject":{"reference":"Patient/e9b53461-c75e-4749-ab0c-bd7a6e2b060f"},"period":{"start":"2025-01-01T01:00:00.000Z","end":"2025-01-01T01:15:00.000Z"}},"request":{"method":"PUT","url":"Encounter/cb3ecdaa-eb24-4a45-9a53-d03d78c4269a"}},{"fullUrl":"https://madie.cms.gov/Encounter/Encounter-12","resource":{"resourceType":"Encounter","id":"a7bb769b-e53c-4c74-8143-95dc91e9a138","meta":{"profile":["http://hl7.org/fhir/us/qicore/StructureDefinition/qicore-encounter"]},"status":"finished","class":{"system":"http://terminology.hl7.org/CodeSystem/v3-ActCode","code":"AMB","display":"ambulatory"},"type":[{"coding":[{"system":"http://snomed.info/sct","code":"185317003","display":"Telephone encounter (procedure)"}]}],"subject":{"reference":"Patient/e9b53461-c75e-4749-ab0c-bd7a6e2b060f"},"period":{"start":"2025-01-02T01:00:00.000Z","end":"2025-01-02T01:15:00.000Z"}},"request":{"method":"PUT","url":"Encounter/a7bb769b-e53c-4c74-8143-95dc91e9a138"}},{"fullUrl":"https://madie.cms.gov/Condition/Condition-5","resource":{"resourceType":"Condition","id":"e0b73e69-02b8-4081-aece-97ac38e0ca73","meta":{"profile":["http://hl7.org/fhir/us/qicore/StructureDefinition/qicore-condition"]},"clinicalStatus":{"coding":[{"system":"http://terminology.hl7.org/CodeSystem/condition-clinical","code":"active"}]},"category":[{"coding":[{"system":"http://terminology.hl7.org/CodeSystem/condition-category","code":"problem-list-item","display":"Problem List Item"}]}],"code":{"coding":[{"system":"http://snomed.info/sct","code":"10091002","display":"High output heart failure (disorder)"}]},"subject":{"reference":"Patient/e9b53461-c75e-4749-ab0c-bd7a6e2b060f"},"onsetDateTime":"2024-12-31T23:59:00.000Z"},"request":{"method":"PUT","url":"Condition/e0b73e69-02b8-4081-aece-97ac38e0ca73"}},{"fullUrl":"https://madie.cms.gov/Observation/Observation-1","resource":{"resourceType":"Observation","id":"0e8e6753-2f13-4b8f-b813-a3502e06daa0","meta":{"profile":["http://hl7.org/fhir/us/qicore/StructureDefinition/qicore-observation"]},"status":"corrected","category":[{"coding":[{"system":"http://terminology.hl7.org/CodeSystem/observation-category","code":"laboratory"}]}],"code":{"coding":[{"system":"http://loinc.org","code":"71969-0","display":"PROMIS-10 Global Mental Health (GMH) score T-score"}]},"subject":{"reference":"Patient/e9b53461-c75e-4749-ab0c-bd7a6e2b060f"},"effectivePeriod":{"start":"2020-12-31T23:00:00.000Z","end":"2020-12-31T23:59:00.000Z"},"valueCodeableConcept":{"coding":[{"system":"http://snomed.info/sct","code":"373066001","display":"Yes (qualifier value)"}]}},"request":{"method":"PUT","url":"Observation/0e8e6753-2f13-4b8f-b813-a3502e06daa0"}},{"fullUrl":"https://madie.cms.gov/Observation/Observation-2","resource":{"resourceType":"Observation","id":"5969e8f1-5d5c-4b28-abcd-129452ac641e","meta":{"profile":["http://hl7.org/fhir/us/qicore/StructureDefinition/qicore-observation"]},"status":"corrected","category":[{"coding":[{"system":"http://terminology.hl7.org/CodeSystem/observation-category","code":"laboratory"}]}],"code":{"coding":[{"system":"http://loinc.org","code":"71971-6","display":"PROMIS-10 Global Physical Health (GPH) score T-score"}]},"subject":{"reference":"Patient/e9b53461-c75e-4749-ab0c-bd7a6e2b060f"},"effectivePeriod":{"start":"2020-12-31T23:00:00.000Z","end":"2020-12-31T23:59:00.000Z"},"valueCodeableConcept":{"coding":[{"system":"http://snomed.info/sct","code":"373066001","display":"Yes (qualifier value)"}]}},"request":{"method":"PUT","url":"Observation/5969e8f1-5d5c-4b28-abcd-129452ac641e"}},{"fullUrl":"https://madie.cms.gov/Observation/Observation-3","resource":{"resourceType":"Observation","id":"3e453f48-241c-47d5-9515-a1816be4b935","meta":{"profile":["http://hl7.org/fhir/us/qicore/StructureDefinition/qicore-observation"]},"status":"corrected","category":[{"coding":[{"system":"http://terminology.hl7.org/CodeSystem/observation-category","code":"laboratory"}]}],"code":{"coding":[{"system":"http://loinc.org","code":"71969-0","display":"PROMIS-10 Global Mental Health (GMH) score T-score"}]},"subject":{"reference":"Patient/e9b53461-c75e-4749-ab0c-bd7a6e2b060f"},"effectivePeriod":{"start":"2025-04-05T23:00:00.000Z","end":"2025-04-05T23:59:00.000Z"},"valueCodeableConcept":{"coding":[{"system":"http://snomed.info/sct","code":"373066001","display":"Yes (qualifier value)"}]}},"request":{"method":"PUT","url":"Observation/3e453f48-241c-47d5-9515-a1816be4b935"}},{"fullUrl":"https://madie.cms.gov/Observation/Observation-4","resource":{"resourceType":"Observation","id":"de7a084a-2a77-4e5f-8d93-a83f156a6458","meta":{"profile":["http://hl7.org/fhir/us/qicore/StructureDefinition/qicore-observation"]},"status":"corrected","category":[{"coding":[{"system":"http://terminology.hl7.org/CodeSystem/observation-category","code":"laboratory"}]}],"code":{"coding":[{"system":"http://loinc.org","code":"71971-6","display":"PROMIS-10 Global Physical Health (GPH) score T-score"}]},"subject":{"reference":"Patient/e9b53461-c75e-4749-ab0c-bd7a6e2b060f"},"effectivePeriod":{"start":"2020-12-31T23:00:00.000Z","end":"2020-12-31T23:59:00.000Z"},"valueCodeableConcept":{"coding":[{"system":"http://snomed.info/sct","code":"373066001","display":"Yes (qualifier value)"}]}},"request":{"method":"PUT","url":"Observation/de7a084a-2a77-4e5f-8d93-a83f156a6458"}},{"fullUrl":"https://madie.cms.gov/MeasureReport/fbf1b1b1-b7ba-48da-8c04-ba9f0057c006","resource":{"resourceType":"MeasureReport","id":"fbf1b1b1-b7ba-48da-8c04-ba9f0057c006","meta":{"profile":["http://hl7.org/fhir/us/cqfmeasures/StructureDefinition/test-case-cqfm"]},"contained":[{"resourceType":"Parameters","id":"47df858a-3885-4dff-837a-ed6a6ea05ad3-parameters","parameter":[{"name":"subject","valueString":"e9b53461-c75e-4749-ab0c-bd7a6e2b060f"}]}],"extension":[{"url":"http://hl7.org/fhir/us/cqfmeasures/StructureDefinition/cqfm-inputParameters","valueReference":{"reference":"#47df858a-3885-4dff-837a-ed6a6ea05ad3-parameters"}},{"url":"http://hl7.org/fhir/us/cqfmeasures/StructureDefinition/cqfm-testCaseDescription","valueMarkdown":"FSA with no result"}],"modifierExtension":[{"url":"http://hl7.org/fhir/us/cqfmeasures/StructureDefinition/cqfm-isTestCase","valueBoolean":true}],"status":"complete","type":"individual","measure":"https://madie.cms.gov/Measure/FunctionalStatusAssessmentsforHeartFailureFHIR","period":{"start":"2025-01-01","end":"2025-12-31"},"group":[{"population":[{"code":{"coding":[{"system":"http://terminology.hl7.org/CodeSystem/measure-population","code":"initial-population","display":"Initial Population"}]},"count":1},{"code":{"coding":[{"system":"http://terminology.hl7.org/CodeSystem/measure-population","code":"denominator","display":"Denominator"}]},"count":1},{"code":{"coding":[{"system":"http://terminology.hl7.org/CodeSystem/measure-population","code":"denominator-exclusion","display":"Denominator Exclusion"}]},"count":0},{"code":{"coding":[{"system":"http://terminology.hl7.org/CodeSystem/measure-population","code":"numerator","display":"Numerator"}]},"count":0}]}]},"request":{"method":"PUT","url":"MeasureReport/fbf1b1b1-b7ba-48da-8c04-ba9f0057c006"}}]}