{"resourceType":"Bundle","id":"tests-ab9cb197-3c30-48f9-ba83-a921641a4501-bundle","type":"transaction","entry":[{"fullUrl":"https://madie.cms.gov/Patient/ab9cb197-3c30-48f9-ba83-a921641a4501","resource":{"resourceType":"Patient","id":"ab9cb197-3c30-48f9-ba83-a921641a4501","meta":{"profile":["http://hl7.org/fhir/us/qicore/StructureDefinition/qicore-patient"]},"extension":[{"url":"http://hl7.org/fhir/us/core/StructureDefinition/us-core-race","extension":[{"url":"ombCategory","valueCoding":{"system":"urn:oid:2.16.840.1.113883.6.238","code":"2028-9","display":"Asian"}},{"url":"text","valueString":"Asian"}]},{"url":"http://hl7.org/fhir/us/core/StructureDefinition/us-core-ethnicity","extension":[{"url":"ombCategory","valueCoding":{"system":"urn:oid:2.16.840.1.113883.6.238","code":"2135-2","display":"Hispanic or Latino"}},{"url":"text","valueString":"Hispanic or Latino"}]}],"identifier":[{"system":"http://hospital.smarthealthit.org","value":"999999995"}],"name":[{"family":"Bertha","given":["Betty"]}],"gender":"female","birthDate":"2007-01-01"},"request":{"method":"PUT","url":"Patient/ab9cb197-3c30-48f9-ba83-a921641a4501"}},{"fullUrl":"https://madie.cms.gov/Encounter/Encounter-49","resource":{"resourceType":"Encounter","id":"126f6f5f-29a7-4223-80e9-d1a941e02b71","meta":{"profile":["http://hl7.org/fhir/us/qicore/StructureDefinition/qicore-encounter"]},"status":"finished","class":{"system":"http://terminology.hl7.org/CodeSystem/v3-ActCode","code":"AMB","display":"ambulatory"},"type":[{"coding":[{"system":"http://snomed.info/sct","code":"185317003","display":"Telephone encounter (procedure)"}]}],"subject":{"reference":"Patient/ab9cb197-3c30-48f9-ba83-a921641a4501"},"period":{"start":"2025-01-01T01:00:00.000Z","end":"2025-01-01T01:15:00.000Z"}},"request":{"method":"PUT","url":"Encounter/126f6f5f-29a7-4223-80e9-d1a941e02b71"}},{"fullUrl":"https://madie.cms.gov/Encounter/Encounter-50","resource":{"resourceType":"Encounter","id":"c524497b-0234-49f2-b3b9-17626134cc0c","meta":{"profile":["http://hl7.org/fhir/us/qicore/StructureDefinition/qicore-encounter"]},"status":"finished","class":{"system":"http://terminology.hl7.org/CodeSystem/v3-ActCode","code":"AMB","display":"ambulatory"},"type":[{"coding":[{"system":"http://snomed.info/sct","code":"185317003","display":"Telephone encounter (procedure)"}]}],"subject":{"reference":"Patient/ab9cb197-3c30-48f9-ba83-a921641a4501"},"period":{"start":"2025-01-02T01:00:00.000Z","end":"2025-01-02T01:15:00.000Z"}},"request":{"method":"PUT","url":"Encounter/c524497b-0234-49f2-b3b9-17626134cc0c"}},{"fullUrl":"https://madie.cms.gov/Condition/Condition-22","resource":{"resourceType":"Condition","id":"7698e4a6-e9fe-4960-aa09-c3aa73d08cfb","meta":{"profile":["http://hl7.org/fhir/us/qicore/StructureDefinition/qicore-condition"]},"clinicalStatus":{"coding":[{"system":"http://terminology.hl7.org/CodeSystem/condition-clinical","code":"active"}]},"category":[{"coding":[{"system":"http://terminology.hl7.org/CodeSystem/condition-category","code":"problem-list-item","display":"Problem List Item"}]}],"code":{"coding":[{"system":"http://snomed.info/sct","code":"10091002","display":"High output heart failure (disorder)"}]},"subject":{"reference":"Patient/ab9cb197-3c30-48f9-ba83-a921641a4501"},"onsetDateTime":"2024-12-31T23:59:00.000Z"},"request":{"method":"PUT","url":"Condition/7698e4a6-e9fe-4960-aa09-c3aa73d08cfb"}},{"fullUrl":"https://madie.cms.gov/Observation/Observation-77","resource":{"resourceType":"Observation","id":"c04ccb01-1051-4279-90d5-3d45f0ac3376","meta":{"profile":["http://hl7.org/fhir/us/qicore/StructureDefinition/qicore-observation"]},"status":"final","category":[{"coding":[{"system":"http://terminology.hl7.org/CodeSystem/observation-category","code":"survey","display":"survey"}],"text":"survey"}],"code":{"coding":[{"system":"http://loinc.org","code":"72189-4","display":"Quality of life score [KCCQ]"}]},"subject":{"reference":"Patient/ab9cb197-3c30-48f9-ba83-a921641a4501"},"effectivePeriod":{"start":"2025-01-01T23:00:00.000Z","end":"2025-01-01T23:59:00.000Z"},"valueInteger":4},"request":{"method":"PUT","url":"Observation/c04ccb01-1051-4279-90d5-3d45f0ac3376"}},{"fullUrl":"https://madie.cms.gov/Observation/Observation-78","resource":{"resourceType":"Observation","id":"31ab5194-2da9-4721-8b0a-e8cd45f683b7","meta":{"profile":["http://hl7.org/fhir/us/qicore/StructureDefinition/qicore-observation"]},"status":"final","category":[{"coding":[{"system":"http://terminology.hl7.org/CodeSystem/observation-category","code":"survey","display":"survey"}],"text":"survey"}],"code":{"coding":[{"system":"http://loinc.org","code":"72189-4","display":"Quality of life score [KCCQ]"}]},"subject":{"reference":"Patient/ab9cb197-3c30-48f9-ba83-a921641a4501"},"effectivePeriod":{"start":"2025-06-29T23:00:00.000Z","end":"2025-06-29T23:59:00.000Z"},"valueInteger":4},"request":{"method":"PUT","url":"Observation/31ab5194-2da9-4721-8b0a-e8cd45f683b7"}},{"fullUrl":"https://madie.cms.gov/Observation/Observation-79","resource":{"resourceType":"Observation","id":"3dd2af12-40c5-4ffb-9c13-4d8419240bda","meta":{"profile":["http://hl7.org/fhir/us/qicore/StructureDefinition/qicore-observation"]},"status":"final","category":[{"coding":[{"system":"http://terminology.hl7.org/CodeSystem/observation-category","code":"survey","display":"survey"}],"text":"survey"}],"code":{"coding":[{"system":"http://loinc.org","code":"72194-4","display":"Symptom stability score [KCCQ]"}]},"subject":{"reference":"Patient/ab9cb197-3c30-48f9-ba83-a921641a4501"},"effectivePeriod":{"start":"2025-01-01T23:00:00.000Z","end":"2025-01-01T23:59:00.000Z"},"valueInteger":4},"request":{"method":"PUT","url":"Observation/3dd2af12-40c5-4ffb-9c13-4d8419240bda"}},{"fullUrl":"https://madie.cms.gov/Observation/Observation-80","resource":{"resourceType":"Observation","id":"8e825e91-6f93-452b-be72-d692d9cfce3a","meta":{"profile":["http://hl7.org/fhir/us/qicore/StructureDefinition/qicore-observation"]},"status":"final","category":[{"coding":[{"system":"http://terminology.hl7.org/CodeSystem/observation-category","code":"survey","display":"survey"}],"text":"survey"}],"code":{"coding":[{"system":"http://loinc.org","code":"72194-4","display":"Symptom stability score [KCCQ]"}]},"subject":{"reference":"Patient/ab9cb197-3c30-48f9-ba83-a921641a4501"},"effectivePeriod":{"start":"2025-06-29T23:00:00.000Z","end":"2025-06-29T23:59:00.000Z"},"valueInteger":4},"request":{"method":"PUT","url":"Observation/8e825e91-6f93-452b-be72-d692d9cfce3a"}},{"fullUrl":"https://madie.cms.gov/Observation/Observation-81","resource":{"resourceType":"Observation","id":"5ccd4928-66cd-4cf4-9d28-a3bb991bf4f1","meta":{"profile":["http://hl7.org/fhir/us/qicore/StructureDefinition/qicore-observation"]},"status":"final","category":[{"coding":[{"system":"http://terminology.hl7.org/CodeSystem/observation-category","code":"survey","display":"survey"}],"text":"survey"}],"code":{"coding":[{"system":"http://loinc.org","code":"72190-2","display":"Self-efficacy score [KCCQ]"}]},"subject":{"reference":"Patient/ab9cb197-3c30-48f9-ba83-a921641a4501"},"effectivePeriod":{"start":"2025-01-01T23:00:00.000Z","end":"2025-01-01T23:59:00.000Z"},"valueInteger":4},"request":{"method":"PUT","url":"Observation/5ccd4928-66cd-4cf4-9d28-a3bb991bf4f1"}},{"fullUrl":"https://madie.cms.gov/Observation/Observation-82","resource":{"resourceType":"Observation","id":"422dab42-fce8-428f-82ed-208d98062e2a","meta":{"profile":["http://hl7.org/fhir/us/qicore/StructureDefinition/qicore-observation"]},"status":"final","category":[{"coding":[{"system":"http://terminology.hl7.org/CodeSystem/observation-category","code":"survey","display":"survey"}],"text":"survey"}],"code":{"coding":[{"system":"http://loinc.org","code":"72190-2","display":"Self-efficacy score [KCCQ]"}]},"subject":{"reference":"Patient/ab9cb197-3c30-48f9-ba83-a921641a4501"},"effectivePeriod":{"start":"2025-06-29T23:00:00.000Z","end":"2025-06-29T23:59:00.000Z"},"valueInteger":4},"request":{"method":"PUT","url":"Observation/422dab42-fce8-428f-82ed-208d98062e2a"}},{"fullUrl":"https://madie.cms.gov/Observation/Observation-83","resource":{"resourceType":"Observation","id":"8c45f332-6233-432c-a3da-bcd99564ca12","meta":{"profile":["http://hl7.org/fhir/us/qicore/StructureDefinition/qicore-observation"]},"status":"final","category":[{"coding":[{"system":"http://terminology.hl7.org/CodeSystem/observation-category","code":"survey","display":"survey"}],"text":"survey"}],"code":{"coding":[{"system":"http://loinc.org","code":"72191-0","display":"Total symptom score [KCCQ]"}]},"subject":{"reference":"Patient/ab9cb197-3c30-48f9-ba83-a921641a4501"},"effectivePeriod":{"start":"2025-01-01T23:00:00.000Z","end":"2025-01-01T23:59:00.000Z"},"valueInteger":4},"request":{"method":"PUT","url":"Observation/8c45f332-6233-432c-a3da-bcd99564ca12"}},{"fullUrl":"https://madie.cms.gov/Observation/Observation-84","resource":{"resourceType":"Observation","id":"bce1e95e-bc9c-4cff-82ab-76e12550a2aa","meta":{"profile":["http://hl7.org/fhir/us/qicore/StructureDefinition/qicore-observation"]},"status":"final","category":[{"coding":[{"system":"http://terminology.hl7.org/CodeSystem/observation-category","code":"survey","display":"survey"}],"text":"survey"}],"code":{"coding":[{"system":"http://loinc.org","code":"72191-0","display":"Total symptom score [KCCQ]"}]},"subject":{"reference":"Patient/ab9cb197-3c30-48f9-ba83-a921641a4501"},"effectivePeriod":{"start":"2025-06-29T23:00:00.000Z","end":"2025-06-29T23:59:00.000Z"},"valueInteger":4},"request":{"method":"PUT","url":"Observation/bce1e95e-bc9c-4cff-82ab-76e12550a2aa"}},{"fullUrl":"https://madie.cms.gov/Observation/Observation-85","resource":{"resourceType":"Observation","id":"bbd4ad07-af42-46e4-b551-aac22a6a5d5d","meta":{"profile":["http://hl7.org/fhir/us/qicore/StructureDefinition/qicore-observation"]},"status":"final","category":[{"coding":[{"system":"http://terminology.hl7.org/CodeSystem/observation-category","code":"survey","display":"survey"}],"text":"survey"}],"code":{"coding":[{"system":"http://loinc.org","code":"72195-1","display":"Physical limitation score [KCCQ]"}]},"subject":{"reference":"Patient/ab9cb197-3c30-48f9-ba83-a921641a4501"},"effectivePeriod":{"start":"2025-01-01T23:00:00.000Z","end":"2025-01-01T23:59:00.000Z"},"valueInteger":4},"request":{"method":"PUT","url":"Observation/bbd4ad07-af42-46e4-b551-aac22a6a5d5d"}},{"fullUrl":"https://madie.cms.gov/Observation/Observation-86","resource":{"resourceType":"Observation","id":"bf988c74-e160-456d-bb2a-3eb25bc3d798","meta":{"profile":["http://hl7.org/fhir/us/qicore/StructureDefinition/qicore-observation"]},"status":"final","category":[{"coding":[{"system":"http://terminology.hl7.org/CodeSystem/observation-category","code":"survey","display":"survey"}],"text":"survey"}],"code":{"coding":[{"system":"http://loinc.org","code":"72195-1","display":"Physical limitation score [KCCQ]"}]},"subject":{"reference":"Patient/ab9cb197-3c30-48f9-ba83-a921641a4501"},"effectivePeriod":{"start":"2025-06-29T23:00:00.000Z","end":"2025-06-29T23:59:00.000Z"},"valueInteger":4},"request":{"method":"PUT","url":"Observation/bf988c74-e160-456d-bb2a-3eb25bc3d798"}},{"fullUrl":"https://madie.cms.gov/Observation/Observation-87","resource":{"resourceType":"Observation","id":"fd78ec18-ff3e-4282-96a3-3675d817fdac","meta":{"profile":["http://hl7.org/fhir/us/qicore/StructureDefinition/qicore-observation"]},"status":"final","category":[{"coding":[{"system":"http://terminology.hl7.org/CodeSystem/observation-category","code":"survey","display":"survey"}],"text":"survey"}],"code":{"coding":[{"system":"http://loinc.org","code":"72196-9","display":"Social limitation score [KCCQ]"}]},"subject":{"reference":"Patient/ab9cb197-3c30-48f9-ba83-a921641a4501"},"effectivePeriod":{"start":"2025-01-01T23:00:00.000Z","end":"2025-01-01T23:59:00.000Z"},"valueInteger":4},"request":{"method":"PUT","url":"Observation/fd78ec18-ff3e-4282-96a3-3675d817fdac"}},{"fullUrl":"https://madie.cms.gov/Observation/Observation-88","resource":{"resourceType":"Observation","id":"0441e142-9049-4275-a066-3625eaccae86","meta":{"profile":["http://hl7.org/fhir/us/qicore/StructureDefinition/qicore-observation"]},"status":"final","category":[{"coding":[{"system":"http://terminology.hl7.org/CodeSystem/observation-category","code":"survey","display":"survey"}],"text":"survey"}],"code":{"coding":[{"system":"http://loinc.org","code":"72196-9","display":"Social limitation score [KCCQ]"}]},"subject":{"reference":"Patient/ab9cb197-3c30-48f9-ba83-a921641a4501"},"effectivePeriod":{"start":"2025-06-29T23:00:00.000Z","end":"2025-06-29T23:59:00.000Z"},"valueInteger":4},"request":{"method":"PUT","url":"Observation/0441e142-9049-4275-a066-3625eaccae86"}},{"fullUrl":"https://madie.cms.gov/MeasureReport/85ac0a93-87d1-4781-8776-cea6b27f0868","resource":{"resourceType":"MeasureReport","id":"85ac0a93-87d1-4781-8776-cea6b27f0868","meta":{"profile":["http://hl7.org/fhir/us/cqfmeasures/StructureDefinition/test-case-cqfm"]},"contained":[{"resourceType":"Parameters","id":"f07247a7-c6cf-4262-b6fb-86022ffa6893-parameters","parameter":[{"name":"subject","valueString":"ab9cb197-3c30-48f9-ba83-a921641a4501"}]}],"extension":[{"url":"http://hl7.org/fhir/us/cqfmeasures/StructureDefinition/cqfm-inputParameters","valueReference":{"reference":"#f07247a7-c6cf-4262-b6fb-86022ffa6893-parameters"}},{"url":"http://hl7.org/fhir/us/cqfmeasures/StructureDefinition/cqfm-testCaseDescription","valueMarkdown":"Patient has all KCCQ Domain assessments with results during the correct timeframe. Testing the 180 days boundary."}],"modifierExtension":[{"url":"http://hl7.org/fhir/us/cqfmeasures/StructureDefinition/cqfm-isTestCase","valueBoolean":true}],"status":"complete","type":"individual","measure":"https://madie.cms.gov/Measure/FunctionalStatusAssessmentsforHeartFailureFHIR","period":{"start":"2025-01-01","end":"2025-12-31"},"group":[{"population":[{"code":{"coding":[{"system":"http://terminology.hl7.org/CodeSystem/measure-population","code":"initial-population","display":"Initial Population"}]},"count":1},{"code":{"coding":[{"system":"http://terminology.hl7.org/CodeSystem/measure-population","code":"denominator","display":"Denominator"}]},"count":1},{"code":{"coding":[{"system":"http://terminology.hl7.org/CodeSystem/measure-population","code":"denominator-exclusion","display":"Denominator Exclusion"}]},"count":0},{"code":{"coding":[{"system":"http://terminology.hl7.org/CodeSystem/measure-population","code":"numerator","display":"Numerator"}]},"count":1}]}]},"request":{"method":"PUT","url":"MeasureReport/85ac0a93-87d1-4781-8776-cea6b27f0868"}}]}