{"resourceType":"Bundle","id":"tests-1df58f4a-37fb-46e6-b20d-fc4a8b57d77e-bundle","type":"transaction","entry":[{"fullUrl":"https://madie.cms.gov/Patient/1df58f4a-37fb-46e6-b20d-fc4a8b57d77e","resource":{"resourceType":"Patient","id":"1df58f4a-37fb-46e6-b20d-fc4a8b57d77e","meta":{"profile":["http://hl7.org/fhir/us/qicore/StructureDefinition/qicore-patient"]},"extension":[{"url":"http://hl7.org/fhir/us/core/StructureDefinition/us-core-race","extension":[{"url":"ombCategory","valueCoding":{"system":"urn:oid:2.16.840.1.113883.6.238","code":"2028-9","display":"Asian"}},{"url":"text","valueString":"Asian"}]},{"url":"http://hl7.org/fhir/us/core/StructureDefinition/us-core-ethnicity","extension":[{"url":"ombCategory","valueCoding":{"system":"urn:oid:2.16.840.1.113883.6.238","code":"2135-2","display":"Hispanic or Latino"}},{"url":"text","valueString":"Hispanic or Latino"}]}],"identifier":[{"system":"http://hospital.smarthealthit.org","value":"999999995"}],"name":[{"family":"Bertha","given":["Betty"]}],"gender":"female","birthDate":"2007-01-01"},"request":{"method":"PUT","url":"Patient/1df58f4a-37fb-46e6-b20d-fc4a8b57d77e"}},{"fullUrl":"https://madie.cms.gov/Encounter/Encounter-47","resource":{"resourceType":"Encounter","id":"cb2466d0-d049-4e54-9eba-cfd104f58014","meta":{"profile":["http://hl7.org/fhir/us/qicore/StructureDefinition/qicore-encounter"]},"status":"finished","class":{"system":"http://terminology.hl7.org/CodeSystem/v3-ActCode","code":"AMB","display":"ambulatory"},"type":[{"coding":[{"system":"http://snomed.info/sct","code":"185317003","display":"Telephone encounter (procedure)"}]}],"subject":{"reference":"Patient/1df58f4a-37fb-46e6-b20d-fc4a8b57d77e"},"period":{"start":"2025-01-01T01:00:00.000Z","end":"2025-01-01T01:15:00.000Z"}},"request":{"method":"PUT","url":"Encounter/cb2466d0-d049-4e54-9eba-cfd104f58014"}},{"fullUrl":"https://madie.cms.gov/Encounter/Encounter-48","resource":{"resourceType":"Encounter","id":"b5184c19-8667-4931-a8b8-2077459b712e","meta":{"profile":["http://hl7.org/fhir/us/qicore/StructureDefinition/qicore-encounter"]},"status":"finished","class":{"system":"http://terminology.hl7.org/CodeSystem/v3-ActCode","code":"AMB","display":"ambulatory"},"type":[{"coding":[{"system":"http://snomed.info/sct","code":"185317003","display":"Telephone encounter (procedure)"}]}],"subject":{"reference":"Patient/1df58f4a-37fb-46e6-b20d-fc4a8b57d77e"},"period":{"start":"2025-01-02T01:00:00.000Z","end":"2025-01-02T01:15:00.000Z"}},"request":{"method":"PUT","url":"Encounter/b5184c19-8667-4931-a8b8-2077459b712e"}},{"fullUrl":"https://madie.cms.gov/Condition/Condition-21","resource":{"resourceType":"Condition","id":"cd036085-7fd4-4238-ae01-3eac2bffe2e1","meta":{"profile":["http://hl7.org/fhir/us/qicore/StructureDefinition/qicore-condition"]},"clinicalStatus":{"coding":[{"system":"http://terminology.hl7.org/CodeSystem/condition-clinical","code":"active"}]},"category":[{"coding":[{"system":"http://terminology.hl7.org/CodeSystem/condition-category","code":"problem-list-item","display":"Problem List Item"}]}],"code":{"coding":[{"system":"http://snomed.info/sct","code":"10091002","display":"High output heart failure (disorder)"}]},"subject":{"reference":"Patient/1df58f4a-37fb-46e6-b20d-fc4a8b57d77e"},"onsetDateTime":"2024-12-31T23:59:00.000Z"},"request":{"method":"PUT","url":"Condition/cd036085-7fd4-4238-ae01-3eac2bffe2e1"}},{"fullUrl":"https://madie.cms.gov/Observation/Observation-65","resource":{"resourceType":"Observation","id":"95c9b92c-6e32-41b8-92f9-848fbf731058","meta":{"profile":["http://hl7.org/fhir/us/qicore/StructureDefinition/qicore-observation"]},"status":"final","category":[{"coding":[{"system":"http://terminology.hl7.org/CodeSystem/observation-category","code":"survey","display":"survey"}],"text":"survey"}],"code":{"coding":[{"system":"http://loinc.org","code":"72189-4","display":"Quality of life score [KCCQ]"}]},"subject":{"reference":"Patient/1df58f4a-37fb-46e6-b20d-fc4a8b57d77e"},"effectivePeriod":{"start":"2025-01-01T23:00:00.000Z","end":"2025-01-01T23:59:00.000Z"},"valueInteger":4},"request":{"method":"PUT","url":"Observation/95c9b92c-6e32-41b8-92f9-848fbf731058"}},{"fullUrl":"https://madie.cms.gov/Observation/Observation-66","resource":{"resourceType":"Observation","id":"77d57664-7da6-43b9-8e99-dcd920d3ff80","meta":{"profile":["http://hl7.org/fhir/us/qicore/StructureDefinition/qicore-observation"]},"status":"final","category":[{"coding":[{"system":"http://terminology.hl7.org/CodeSystem/observation-category","code":"survey","display":"survey"}],"text":"survey"}],"code":{"coding":[{"system":"http://loinc.org","code":"72189-4","display":"Quality of life score [KCCQ]"}]},"subject":{"reference":"Patient/1df58f4a-37fb-46e6-b20d-fc4a8b57d77e"},"effectivePeriod":{"start":"2025-07-03T23:00:00.000Z","end":"2025-07-03T23:59:00.000Z"},"valueInteger":4},"request":{"method":"PUT","url":"Observation/77d57664-7da6-43b9-8e99-dcd920d3ff80"}},{"fullUrl":"https://madie.cms.gov/Observation/Observation-67","resource":{"resourceType":"Observation","id":"7a52605a-0944-4ebd-87d2-4396dae1ee88","meta":{"profile":["http://hl7.org/fhir/us/qicore/StructureDefinition/qicore-observation"]},"status":"final","category":[{"coding":[{"system":"http://terminology.hl7.org/CodeSystem/observation-category","code":"survey","display":"survey"}],"text":"survey"}],"code":{"coding":[{"system":"http://loinc.org","code":"72194-4","display":"Symptom stability score [KCCQ]"}]},"subject":{"reference":"Patient/1df58f4a-37fb-46e6-b20d-fc4a8b57d77e"},"effectivePeriod":{"start":"2025-01-01T23:00:00.000Z","end":"2025-01-01T23:59:00.000Z"},"valueInteger":4},"request":{"method":"PUT","url":"Observation/7a52605a-0944-4ebd-87d2-4396dae1ee88"}},{"fullUrl":"https://madie.cms.gov/Observation/Observation-68","resource":{"resourceType":"Observation","id":"a48efdbb-df8d-43ed-a09e-ae3fbd6604dd","meta":{"profile":["http://hl7.org/fhir/us/qicore/StructureDefinition/qicore-observation"]},"status":"final","category":[{"coding":[{"system":"http://terminology.hl7.org/CodeSystem/observation-category","code":"survey","display":"survey"}],"text":"survey"}],"code":{"coding":[{"system":"http://loinc.org","code":"72194-4","display":"Symptom stability score [KCCQ]"}]},"subject":{"reference":"Patient/1df58f4a-37fb-46e6-b20d-fc4a8b57d77e"},"effectivePeriod":{"start":"2025-06-30T23:00:00.000Z","end":"2025-06-30T23:59:00.000Z"},"valueInteger":4},"request":{"method":"PUT","url":"Observation/a48efdbb-df8d-43ed-a09e-ae3fbd6604dd"}},{"fullUrl":"https://madie.cms.gov/Observation/Observation-69","resource":{"resourceType":"Observation","id":"8444b74a-5ae9-4754-b034-8937dd64df30","meta":{"profile":["http://hl7.org/fhir/us/qicore/StructureDefinition/qicore-observation"]},"status":"final","category":[{"coding":[{"system":"http://terminology.hl7.org/CodeSystem/observation-category","code":"survey","display":"survey"}],"text":"survey"}],"code":{"coding":[{"system":"http://loinc.org","code":"72190-2","display":"Self-efficacy score [KCCQ]"}]},"subject":{"reference":"Patient/1df58f4a-37fb-46e6-b20d-fc4a8b57d77e"},"effectivePeriod":{"start":"2025-01-01T23:00:00.000Z","end":"2025-01-01T23:59:00.000Z"},"valueInteger":4},"request":{"method":"PUT","url":"Observation/8444b74a-5ae9-4754-b034-8937dd64df30"}},{"fullUrl":"https://madie.cms.gov/Observation/Observation-70","resource":{"resourceType":"Observation","id":"e85612c0-5014-4ad9-8889-a8c6cc138ec6","meta":{"profile":["http://hl7.org/fhir/us/qicore/StructureDefinition/qicore-observation"]},"status":"final","category":[{"coding":[{"system":"http://terminology.hl7.org/CodeSystem/observation-category","code":"survey","display":"survey"}],"text":"survey"}],"code":{"coding":[{"system":"http://loinc.org","code":"72190-2","display":"Self-efficacy score [KCCQ]"}]},"subject":{"reference":"Patient/1df58f4a-37fb-46e6-b20d-fc4a8b57d77e"},"effectivePeriod":{"start":"2025-06-30T23:00:00.000Z","end":"2025-06-30T23:59:00.000Z"},"valueInteger":4},"request":{"method":"PUT","url":"Observation/e85612c0-5014-4ad9-8889-a8c6cc138ec6"}},{"fullUrl":"https://madie.cms.gov/Observation/Observation-71","resource":{"resourceType":"Observation","id":"f2a71b4b-fd32-4007-9ab6-6fbf54c93bee","meta":{"profile":["http://hl7.org/fhir/us/qicore/StructureDefinition/qicore-observation"]},"status":"final","category":[{"coding":[{"system":"http://terminology.hl7.org/CodeSystem/observation-category","code":"survey","display":"survey"}],"text":"survey"}],"code":{"coding":[{"system":"http://loinc.org","code":"72191-0","display":"Total symptom score [KCCQ]"}]},"subject":{"reference":"Patient/1df58f4a-37fb-46e6-b20d-fc4a8b57d77e"},"effectivePeriod":{"start":"2025-01-01T23:00:00.000Z","end":"2025-01-01T23:59:00.000Z"},"valueInteger":4},"request":{"method":"PUT","url":"Observation/f2a71b4b-fd32-4007-9ab6-6fbf54c93bee"}},{"fullUrl":"https://madie.cms.gov/Observation/Observation-72","resource":{"resourceType":"Observation","id":"6fd8f2e4-6e5e-43be-96c2-22fd86613810","meta":{"profile":["http://hl7.org/fhir/us/qicore/StructureDefinition/qicore-observation"]},"status":"final","category":[{"coding":[{"system":"http://terminology.hl7.org/CodeSystem/observation-category","code":"survey","display":"survey"}],"text":"survey"}],"code":{"coding":[{"system":"http://loinc.org","code":"72191-0","display":"Total symptom score [KCCQ]"}]},"subject":{"reference":"Patient/1df58f4a-37fb-46e6-b20d-fc4a8b57d77e"},"effectivePeriod":{"start":"2025-06-30T23:00:00.000Z","end":"2025-06-30T23:59:00.000Z"},"valueInteger":4},"request":{"method":"PUT","url":"Observation/6fd8f2e4-6e5e-43be-96c2-22fd86613810"}},{"fullUrl":"https://madie.cms.gov/Observation/Observation-73","resource":{"resourceType":"Observation","id":"282ca41f-32d1-4810-8a0a-c16951bd436c","meta":{"profile":["http://hl7.org/fhir/us/qicore/StructureDefinition/qicore-observation"]},"status":"final","category":[{"coding":[{"system":"http://terminology.hl7.org/CodeSystem/observation-category","code":"survey","display":"survey"}],"text":"survey"}],"code":{"coding":[{"system":"http://loinc.org","code":"72195-1","display":"Physical limitation score [KCCQ]"}]},"subject":{"reference":"Patient/1df58f4a-37fb-46e6-b20d-fc4a8b57d77e"},"effectivePeriod":{"start":"2025-01-01T23:00:00.000Z","end":"2025-01-01T23:59:00.000Z"},"valueInteger":4},"request":{"method":"PUT","url":"Observation/282ca41f-32d1-4810-8a0a-c16951bd436c"}},{"fullUrl":"https://madie.cms.gov/Observation/Observation-74","resource":{"resourceType":"Observation","id":"84ec2b19-2d02-460d-9401-10b48a0396d0","meta":{"profile":["http://hl7.org/fhir/us/qicore/StructureDefinition/qicore-observation"]},"status":"final","category":[{"coding":[{"system":"http://terminology.hl7.org/CodeSystem/observation-category","code":"survey","display":"survey"}],"text":"survey"}],"code":{"coding":[{"system":"http://loinc.org","code":"72195-1","display":"Physical limitation score [KCCQ]"}]},"subject":{"reference":"Patient/1df58f4a-37fb-46e6-b20d-fc4a8b57d77e"},"effectivePeriod":{"start":"2025-06-30T23:00:00.000Z","end":"2025-06-30T23:59:00.000Z"},"valueInteger":4},"request":{"method":"PUT","url":"Observation/84ec2b19-2d02-460d-9401-10b48a0396d0"}},{"fullUrl":"https://madie.cms.gov/Observation/Observation-75","resource":{"resourceType":"Observation","id":"046f99e8-f17b-4c75-9750-2461597c2e39","meta":{"profile":["http://hl7.org/fhir/us/qicore/StructureDefinition/qicore-observation"]},"status":"final","category":[{"coding":[{"system":"http://terminology.hl7.org/CodeSystem/observation-category","code":"survey","display":"survey"}],"text":"survey"}],"code":{"coding":[{"system":"http://loinc.org","code":"72196-9","display":"Social limitation score [KCCQ]"}]},"subject":{"reference":"Patient/1df58f4a-37fb-46e6-b20d-fc4a8b57d77e"},"effectivePeriod":{"start":"2025-01-01T23:00:00.000Z","end":"2025-01-01T23:59:00.000Z"},"valueInteger":4},"request":{"method":"PUT","url":"Observation/046f99e8-f17b-4c75-9750-2461597c2e39"}},{"fullUrl":"https://madie.cms.gov/Observation/Observation-76","resource":{"resourceType":"Observation","id":"fbce39eb-dfad-4716-9133-3763403cf45b","meta":{"profile":["http://hl7.org/fhir/us/qicore/StructureDefinition/qicore-observation"]},"status":"final","category":[{"coding":[{"system":"http://terminology.hl7.org/CodeSystem/observation-category","code":"survey","display":"survey"}],"text":"survey"}],"code":{"coding":[{"system":"http://loinc.org","code":"72196-9","display":"Social limitation score [KCCQ]"}]},"subject":{"reference":"Patient/1df58f4a-37fb-46e6-b20d-fc4a8b57d77e"},"effectivePeriod":{"start":"2025-06-30T23:00:00.000Z","end":"2025-06-30T23:59:00.000Z"},"valueInteger":4},"request":{"method":"PUT","url":"Observation/fbce39eb-dfad-4716-9133-3763403cf45b"}},{"fullUrl":"https://madie.cms.gov/MeasureReport/7db0611d-1ec7-44fe-8d26-d263b3a62076","resource":{"resourceType":"MeasureReport","id":"7db0611d-1ec7-44fe-8d26-d263b3a62076","meta":{"profile":["http://hl7.org/fhir/us/cqfmeasures/StructureDefinition/test-case-cqfm"]},"contained":[{"resourceType":"Parameters","id":"4dfa22bb-3243-4239-a4b6-a8d6408a7ae7-parameters","parameter":[{"name":"subject","valueString":"1df58f4a-37fb-46e6-b20d-fc4a8b57d77e"}]}],"extension":[{"url":"http://hl7.org/fhir/us/cqfmeasures/StructureDefinition/cqfm-inputParameters","valueReference":{"reference":"#4dfa22bb-3243-4239-a4b6-a8d6408a7ae7-parameters"}},{"url":"http://hl7.org/fhir/us/cqfmeasures/StructureDefinition/cqfm-testCaseDescription","valueMarkdown":"Patient has one KCCQ Domain assessments that is 181 days after their initial FSA."}],"modifierExtension":[{"url":"http://hl7.org/fhir/us/cqfmeasures/StructureDefinition/cqfm-isTestCase","valueBoolean":true}],"status":"complete","type":"individual","measure":"https://madie.cms.gov/Measure/FunctionalStatusAssessmentsforHeartFailureFHIR","period":{"start":"2025-01-01","end":"2025-12-31"},"group":[{"population":[{"code":{"coding":[{"system":"http://terminology.hl7.org/CodeSystem/measure-population","code":"initial-population","display":"Initial Population"}]},"count":1},{"code":{"coding":[{"system":"http://terminology.hl7.org/CodeSystem/measure-population","code":"denominator","display":"Denominator"}]},"count":1},{"code":{"coding":[{"system":"http://terminology.hl7.org/CodeSystem/measure-population","code":"denominator-exclusion","display":"Denominator Exclusion"}]},"count":0},{"code":{"coding":[{"system":"http://terminology.hl7.org/CodeSystem/measure-population","code":"numerator","display":"Numerator"}]},"count":0}]}]},"request":{"method":"PUT","url":"MeasureReport/7db0611d-1ec7-44fe-8d26-d263b3a62076"}}]}