{"resourceType":"Bundle","id":"tests-0d945250-120a-41c1-a017-3cad2f055809-bundle","type":"transaction","entry":[{"fullUrl":"https://madie.cms.gov/Patient/0d945250-120a-41c1-a017-3cad2f055809","resource":{"resourceType":"Patient","id":"0d945250-120a-41c1-a017-3cad2f055809","meta":{"profile":["http://hl7.org/fhir/us/qicore/StructureDefinition/qicore-patient"]},"extension":[{"url":"http://hl7.org/fhir/us/core/StructureDefinition/us-core-race","extension":[{"url":"ombCategory","valueCoding":{"system":"urn:oid:2.16.840.1.113883.6.238","code":"2028-9","display":"Asian"}},{"url":"text","valueString":"Asian"}]},{"url":"http://hl7.org/fhir/us/core/StructureDefinition/us-core-ethnicity","extension":[{"url":"ombCategory","valueCoding":{"system":"urn:oid:2.16.840.1.113883.6.238","code":"2135-2","display":"Hispanic or Latino"}},{"url":"text","valueString":"Hispanic or Latino"}]}],"identifier":[{"system":"http://hospital.smarthealthit.org","value":"999999995"}],"name":[{"family":"Bertha","given":["Betty"]}],"gender":"female","birthDate":"2007-01-01"},"request":{"method":"PUT","url":"Patient/0d945250-120a-41c1-a017-3cad2f055809"}},{"fullUrl":"https://madie.cms.gov/Encounter/Encounter-22","resource":{"resourceType":"Encounter","id":"c03224a8-4fdb-4e4b-937a-e8f3c4284997","meta":{"profile":["http://hl7.org/fhir/us/qicore/StructureDefinition/qicore-encounter"]},"status":"finished","class":{"system":"http://terminology.hl7.org/CodeSystem/v3-ActCode","code":"AMB","display":"ambulatory"},"type":[{"coding":[{"system":"http://snomed.info/sct","code":"185317003","display":"Telephone encounter (procedure)"}]}],"subject":{"reference":"Patient/0d945250-120a-41c1-a017-3cad2f055809"},"period":{"start":"2025-01-01T01:00:00.000Z","end":"2025-01-01T01:15:00.000Z"}},"request":{"method":"PUT","url":"Encounter/c03224a8-4fdb-4e4b-937a-e8f3c4284997"}},{"fullUrl":"https://madie.cms.gov/Encounter/Encounter-23","resource":{"resourceType":"Encounter","id":"1fb0b203-ed6c-4b6e-a538-27497ed83af0","meta":{"profile":["http://hl7.org/fhir/us/qicore/StructureDefinition/qicore-encounter"]},"status":"finished","class":{"system":"http://terminology.hl7.org/CodeSystem/v3-ActCode","code":"AMB","display":"ambulatory"},"type":[{"coding":[{"system":"http://snomed.info/sct","code":"185317003","display":"Telephone encounter (procedure)"}]}],"subject":{"reference":"Patient/0d945250-120a-41c1-a017-3cad2f055809"},"period":{"start":"2025-01-02T01:00:00.000Z","end":"2025-01-02T01:15:00.000Z"}},"request":{"method":"PUT","url":"Encounter/1fb0b203-ed6c-4b6e-a538-27497ed83af0"}},{"fullUrl":"https://madie.cms.gov/Condition/Condition-11","resource":{"resourceType":"Condition","id":"e599ce38-be47-4866-80b4-1a561a193267","meta":{"profile":["http://hl7.org/fhir/us/qicore/StructureDefinition/qicore-condition"]},"clinicalStatus":{"coding":[{"system":"http://terminology.hl7.org/CodeSystem/condition-clinical","code":"active"}]},"category":[{"coding":[{"system":"http://terminology.hl7.org/CodeSystem/condition-category","code":"problem-list-item","display":"Problem List Item"}]}],"code":{"coding":[{"system":"http://snomed.info/sct","code":"10091002","display":"High output heart failure (disorder)"}]},"subject":{"reference":"Patient/0d945250-120a-41c1-a017-3cad2f055809"},"onsetDateTime":"2024-12-31T23:59:00.000Z"},"request":{"method":"PUT","url":"Condition/e599ce38-be47-4866-80b4-1a561a193267"}},{"fullUrl":"https://madie.cms.gov/Observation/Observation-30","resource":{"resourceType":"Observation","id":"ee65fda3-8423-4187-9a0e-49da2d63b724","meta":{"profile":["http://hl7.org/fhir/us/qicore/StructureDefinition/qicore-observation"]},"status":"final","category":[{"coding":[{"system":"http://terminology.hl7.org/CodeSystem/observation-category","code":"survey","display":"survey"}],"text":"survey"}],"code":{"coding":[{"system":"http://loinc.org","code":"72028-4","display":"VR-12 Mental component summary (MCS) score - orthogonal method T-score"}]},"subject":{"reference":"Patient/0d945250-120a-41c1-a017-3cad2f055809"},"effectivePeriod":{"start":"2025-01-01T23:00:00.000Z","end":"2025-01-01T23:59:00.000Z"},"valueInteger":4},"request":{"method":"PUT","url":"Observation/ee65fda3-8423-4187-9a0e-49da2d63b724"}},{"fullUrl":"https://madie.cms.gov/Observation/Observation-31","resource":{"resourceType":"Observation","id":"16ba279d-d44b-47c0-8146-ca82480e8302","meta":{"profile":["http://hl7.org/fhir/us/qicore/StructureDefinition/qicore-observation"]},"status":"final","category":[{"coding":[{"system":"http://terminology.hl7.org/CodeSystem/observation-category","code":"survey","display":"survey"}],"text":"survey"}],"code":{"coding":[{"system":"http://loinc.org","code":"72028-4","display":"VR-12 Mental component summary (MCS) score - orthogonal method T-score"}]},"subject":{"reference":"Patient/0d945250-120a-41c1-a017-3cad2f055809"},"effectivePeriod":{"start":"2025-01-31T23:00:00.000Z","end":"2025-01-31T23:59:00.000Z"},"valueInteger":4},"request":{"method":"PUT","url":"Observation/16ba279d-d44b-47c0-8146-ca82480e8302"}},{"fullUrl":"https://madie.cms.gov/Observation/Observation-32","resource":{"resourceType":"Observation","id":"5de4aa08-6bc7-4f13-87c2-dfc1f1192720","meta":{"profile":["http://hl7.org/fhir/us/qicore/StructureDefinition/qicore-observation"]},"status":"final","category":[{"coding":[{"system":"http://terminology.hl7.org/CodeSystem/observation-category","code":"survey","display":"survey"}],"text":"survey"}],"code":{"coding":[{"system":"http://loinc.org","code":"72027-6","display":"VR-12 Physical component summary (PCS) score - orthogonal method T-score"}]},"subject":{"reference":"Patient/0d945250-120a-41c1-a017-3cad2f055809"},"effectivePeriod":{"start":"2025-01-01T23:00:00.000Z","end":"2025-01-01T23:59:00.000Z"},"valueInteger":4},"request":{"method":"PUT","url":"Observation/5de4aa08-6bc7-4f13-87c2-dfc1f1192720"}},{"fullUrl":"https://madie.cms.gov/Observation/Observation-33","resource":{"resourceType":"Observation","id":"a483c8fe-0d04-47cc-b5f5-c1cd459c2190","meta":{"profile":["http://hl7.org/fhir/us/qicore/StructureDefinition/qicore-observation"]},"status":"final","category":[{"coding":[{"system":"http://terminology.hl7.org/CodeSystem/observation-category","code":"survey","display":"survey"}],"text":"survey"}],"code":{"coding":[{"system":"http://loinc.org","code":"72027-6","display":"VR-12 Physical component summary (PCS) score - orthogonal method T-score"}]},"subject":{"reference":"Patient/0d945250-120a-41c1-a017-3cad2f055809"},"effectivePeriod":{"start":"2025-01-31T23:00:00.000Z","end":"2025-01-31T23:59:00.000Z"},"valueInteger":4},"request":{"method":"PUT","url":"Observation/a483c8fe-0d04-47cc-b5f5-c1cd459c2190"}},{"fullUrl":"https://madie.cms.gov/MeasureReport/fcd26aa6-9f29-485d-ad8a-8f22b080d251","resource":{"resourceType":"MeasureReport","id":"fcd26aa6-9f29-485d-ad8a-8f22b080d251","meta":{"profile":["http://hl7.org/fhir/us/cqfmeasures/StructureDefinition/test-case-cqfm"]},"contained":[{"resourceType":"Parameters","id":"95701a92-af54-49f3-b333-91f56a30ee04-parameters","parameter":[{"name":"subject","valueString":"0d945250-120a-41c1-a017-3cad2f055809"}]}],"extension":[{"url":"http://hl7.org/fhir/us/cqfmeasures/StructureDefinition/cqfm-inputParameters","valueReference":{"reference":"#95701a92-af54-49f3-b333-91f56a30ee04-parameters"}},{"url":"http://hl7.org/fhir/us/cqfmeasures/StructureDefinition/cqfm-testCaseDescription","valueMarkdown":"Patient has all VR12 Orthogonal results during the correct timeframe"}],"modifierExtension":[{"url":"http://hl7.org/fhir/us/cqfmeasures/StructureDefinition/cqfm-isTestCase","valueBoolean":true}],"status":"complete","type":"individual","measure":"https://madie.cms.gov/Measure/FunctionalStatusAssessmentsforHeartFailureFHIR","period":{"start":"2025-01-01","end":"2025-12-31"},"group":[{"population":[{"code":{"coding":[{"system":"http://terminology.hl7.org/CodeSystem/measure-population","code":"initial-population","display":"Initial Population"}]},"count":1},{"code":{"coding":[{"system":"http://terminology.hl7.org/CodeSystem/measure-population","code":"denominator","display":"Denominator"}]},"count":1},{"code":{"coding":[{"system":"http://terminology.hl7.org/CodeSystem/measure-population","code":"denominator-exclusion","display":"Denominator Exclusion"}]},"count":0},{"code":{"coding":[{"system":"http://terminology.hl7.org/CodeSystem/measure-population","code":"numerator","display":"Numerator"}]},"count":1}]}]},"request":{"method":"PUT","url":"MeasureReport/fcd26aa6-9f29-485d-ad8a-8f22b080d251"}}]}