{"resourceType":"Bundle","id":"tests-e9b53461-c75e-4749-ab0c-bd7a6e2b060f-bundle","type":"transaction","entry":[{"fullUrl":"https://madie.cms.gov/Patient/e9b53461-c75e-4749-ab0c-bd7a6e2b060f","resource":{"resourceType":"Patient","id":"e9b53461-c75e-4749-ab0c-bd7a6e2b060f","meta":{"profile":["http://hl7.org/fhir/us/qicore/StructureDefinition/qicore-patient"]},"extension":[{"url":"http://hl7.org/fhir/us/core/StructureDefinition/us-core-race","extension":[{"url":"ombCategory","valueCoding":{"system":"urn:oid:2.16.840.1.113883.6.238","code":"2028-9","display":"Asian"}},{"url":"text","valueString":"Asian"}]},{"url":"http://hl7.org/fhir/us/core/StructureDefinition/us-core-ethnicity","extension":[{"url":"ombCategory","valueCoding":{"system":"urn:oid:2.16.840.1.113883.6.238","code":"2135-2","display":"Hispanic or Latino"}},{"url":"text","valueString":"Hispanic or Latino"}]}],"identifier":[{"system":"http://hospital.smarthealthit.org","value":"999999995"}],"name":[{"family":"Bertha","given":["Betty"]}],"gender":"female","birthDate":"2007-01-01"},"request":{"method":"PUT","url":"Patient/e9b53461-c75e-4749-ab0c-bd7a6e2b060f"}},{"fullUrl":"https://madie.cms.gov/Encounter/Encounter-11","resource":{"resourceType":"Encounter","id":"05de74fa-38da-494a-925a-9487cd10d540","meta":{"profile":["http://hl7.org/fhir/us/qicore/StructureDefinition/qicore-encounter"]},"status":"finished","class":{"system":"http://terminology.hl7.org/CodeSystem/v3-ActCode","code":"AMB","display":"ambulatory"},"type":[{"coding":[{"system":"http://snomed.info/sct","code":"185317003","display":"Telephone encounter (procedure)"}]}],"subject":{"reference":"Patient/e9b53461-c75e-4749-ab0c-bd7a6e2b060f"},"period":{"start":"2025-01-01T01:00:00.000Z","end":"2025-01-01T01:15:00.000Z"}},"request":{"method":"PUT","url":"Encounter/05de74fa-38da-494a-925a-9487cd10d540"}},{"fullUrl":"https://madie.cms.gov/Encounter/Encounter-12","resource":{"resourceType":"Encounter","id":"ce7126c7-c3d3-4da9-a163-a801f72c5b9d","meta":{"profile":["http://hl7.org/fhir/us/qicore/StructureDefinition/qicore-encounter"]},"status":"finished","class":{"system":"http://terminology.hl7.org/CodeSystem/v3-ActCode","code":"AMB","display":"ambulatory"},"type":[{"coding":[{"system":"http://snomed.info/sct","code":"185317003","display":"Telephone encounter (procedure)"}]}],"subject":{"reference":"Patient/e9b53461-c75e-4749-ab0c-bd7a6e2b060f"},"period":{"start":"2025-01-02T01:00:00.000Z","end":"2025-01-02T01:15:00.000Z"}},"request":{"method":"PUT","url":"Encounter/ce7126c7-c3d3-4da9-a163-a801f72c5b9d"}},{"fullUrl":"https://madie.cms.gov/Condition/Condition-5","resource":{"resourceType":"Condition","id":"36fba46c-f458-477d-a1ee-b5748f6a2cee","meta":{"profile":["http://hl7.org/fhir/us/qicore/StructureDefinition/qicore-condition"]},"clinicalStatus":{"coding":[{"system":"http://terminology.hl7.org/CodeSystem/condition-clinical","code":"active"}]},"category":[{"coding":[{"system":"http://terminology.hl7.org/CodeSystem/condition-category","code":"problem-list-item","display":"Problem List Item"}]}],"code":{"coding":[{"system":"http://snomed.info/sct","code":"10091002","display":"High output heart failure (disorder)"}]},"subject":{"reference":"Patient/e9b53461-c75e-4749-ab0c-bd7a6e2b060f"},"onsetDateTime":"2024-12-31T23:59:00.000Z"},"request":{"method":"PUT","url":"Condition/36fba46c-f458-477d-a1ee-b5748f6a2cee"}},{"fullUrl":"https://madie.cms.gov/Observation/Observation-1","resource":{"resourceType":"Observation","id":"cf09d003-0c67-4caa-befb-c12282fbe7c5","meta":{"profile":["http://hl7.org/fhir/us/qicore/StructureDefinition/qicore-observation"]},"status":"corrected","category":[{"coding":[{"system":"http://terminology.hl7.org/CodeSystem/observation-category","code":"laboratory"}]}],"code":{"coding":[{"system":"http://loinc.org","code":"71969-0","display":"PROMIS-10 Global Mental Health (GMH) score T-score"}]},"subject":{"reference":"Patient/e9b53461-c75e-4749-ab0c-bd7a6e2b060f"},"effectivePeriod":{"start":"2020-12-31T23:00:00.000Z","end":"2020-12-31T23:59:00.000Z"},"valueCodeableConcept":{"coding":[{"system":"http://snomed.info/sct","code":"373066001","display":"Yes (qualifier value)"}]}},"request":{"method":"PUT","url":"Observation/cf09d003-0c67-4caa-befb-c12282fbe7c5"}},{"fullUrl":"https://madie.cms.gov/Observation/Observation-2","resource":{"resourceType":"Observation","id":"573dd324-aac7-492b-9b45-b293887e753d","meta":{"profile":["http://hl7.org/fhir/us/qicore/StructureDefinition/qicore-observation"]},"status":"corrected","category":[{"coding":[{"system":"http://terminology.hl7.org/CodeSystem/observation-category","code":"laboratory"}]}],"code":{"coding":[{"system":"http://loinc.org","code":"71971-6","display":"PROMIS-10 Global Physical Health (GPH) score T-score"}]},"subject":{"reference":"Patient/e9b53461-c75e-4749-ab0c-bd7a6e2b060f"},"effectivePeriod":{"start":"2020-12-31T23:00:00.000Z","end":"2020-12-31T23:59:00.000Z"},"valueCodeableConcept":{"coding":[{"system":"http://snomed.info/sct","code":"373066001","display":"Yes (qualifier value)"}]}},"request":{"method":"PUT","url":"Observation/573dd324-aac7-492b-9b45-b293887e753d"}},{"fullUrl":"https://madie.cms.gov/Observation/Observation-3","resource":{"resourceType":"Observation","id":"f8850752-114c-41b0-8589-8b7c5557ceb7","meta":{"profile":["http://hl7.org/fhir/us/qicore/StructureDefinition/qicore-observation"]},"status":"corrected","category":[{"coding":[{"system":"http://terminology.hl7.org/CodeSystem/observation-category","code":"laboratory"}]}],"code":{"coding":[{"system":"http://loinc.org","code":"71969-0","display":"PROMIS-10 Global Mental Health (GMH) score T-score"}]},"subject":{"reference":"Patient/e9b53461-c75e-4749-ab0c-bd7a6e2b060f"},"effectivePeriod":{"start":"2025-04-05T23:00:00.000Z","end":"2025-04-05T23:59:00.000Z"},"valueCodeableConcept":{"coding":[{"system":"http://snomed.info/sct","code":"373066001","display":"Yes (qualifier value)"}]}},"request":{"method":"PUT","url":"Observation/f8850752-114c-41b0-8589-8b7c5557ceb7"}},{"fullUrl":"https://madie.cms.gov/Observation/Observation-4","resource":{"resourceType":"Observation","id":"53c08937-bb5a-4f47-8b90-e2687b93aa53","meta":{"profile":["http://hl7.org/fhir/us/qicore/StructureDefinition/qicore-observation"]},"status":"corrected","category":[{"coding":[{"system":"http://terminology.hl7.org/CodeSystem/observation-category","code":"laboratory"}]}],"code":{"coding":[{"system":"http://loinc.org","code":"71971-6","display":"PROMIS-10 Global Physical Health (GPH) score T-score"}]},"subject":{"reference":"Patient/e9b53461-c75e-4749-ab0c-bd7a6e2b060f"},"effectivePeriod":{"start":"2020-12-31T23:00:00.000Z","end":"2020-12-31T23:59:00.000Z"},"valueCodeableConcept":{"coding":[{"system":"http://snomed.info/sct","code":"373066001","display":"Yes (qualifier value)"}]}},"request":{"method":"PUT","url":"Observation/53c08937-bb5a-4f47-8b90-e2687b93aa53"}},{"fullUrl":"https://madie.cms.gov/MeasureReport/fbf1b1b1-b7ba-48da-8c04-ba9f0057c006","resource":{"resourceType":"MeasureReport","id":"fbf1b1b1-b7ba-48da-8c04-ba9f0057c006","meta":{"profile":["http://hl7.org/fhir/us/cqfmeasures/StructureDefinition/test-case-cqfm"]},"contained":[{"resourceType":"Parameters","id":"47df858a-3885-4dff-837a-ed6a6ea05ad3-parameters","parameter":[{"name":"subject","valueString":"e9b53461-c75e-4749-ab0c-bd7a6e2b060f"}]}],"extension":[{"url":"http://hl7.org/fhir/us/cqfmeasures/StructureDefinition/cqfm-inputParameters","valueReference":{"reference":"#47df858a-3885-4dff-837a-ed6a6ea05ad3-parameters"}},{"url":"http://hl7.org/fhir/us/cqfmeasures/StructureDefinition/cqfm-testCaseDescription","valueMarkdown":"FSA with no result"}],"modifierExtension":[{"url":"http://hl7.org/fhir/us/cqfmeasures/StructureDefinition/cqfm-isTestCase","valueBoolean":true}],"status":"complete","type":"individual","measure":"https://madie.cms.gov/Measure/FunctionalStatusAssessmentsforHeartFailureFHIR","period":{"start":"2025-01-01","end":"2025-12-31"},"group":[{"population":[{"code":{"coding":[{"system":"http://terminology.hl7.org/CodeSystem/measure-population","code":"initial-population","display":"Initial Population"}]},"count":1},{"code":{"coding":[{"system":"http://terminology.hl7.org/CodeSystem/measure-population","code":"denominator","display":"Denominator"}]},"count":1},{"code":{"coding":[{"system":"http://terminology.hl7.org/CodeSystem/measure-population","code":"denominator-exclusion","display":"Denominator Exclusion"}]},"count":0},{"code":{"coding":[{"system":"http://terminology.hl7.org/CodeSystem/measure-population","code":"numerator","display":"Numerator"}]},"count":0}]}]},"request":{"method":"PUT","url":"MeasureReport/fbf1b1b1-b7ba-48da-8c04-ba9f0057c006"}}]}