{"resourceType":"Bundle","id":"tests-ab9cb197-3c30-48f9-ba83-a921641a4501-bundle","type":"transaction","entry":[{"fullUrl":"https://madie.cms.gov/Patient/ab9cb197-3c30-48f9-ba83-a921641a4501","resource":{"resourceType":"Patient","id":"ab9cb197-3c30-48f9-ba83-a921641a4501","meta":{"profile":["http://hl7.org/fhir/us/qicore/StructureDefinition/qicore-patient"]},"extension":[{"url":"http://hl7.org/fhir/us/core/StructureDefinition/us-core-race","extension":[{"url":"ombCategory","valueCoding":{"system":"urn:oid:2.16.840.1.113883.6.238","code":"2028-9","display":"Asian"}},{"url":"text","valueString":"Asian"}]},{"url":"http://hl7.org/fhir/us/core/StructureDefinition/us-core-ethnicity","extension":[{"url":"ombCategory","valueCoding":{"system":"urn:oid:2.16.840.1.113883.6.238","code":"2135-2","display":"Hispanic or Latino"}},{"url":"text","valueString":"Hispanic or Latino"}]}],"identifier":[{"system":"http://hospital.smarthealthit.org","value":"999999995"}],"name":[{"family":"Bertha","given":["Betty"]}],"gender":"female","birthDate":"2007-01-01"},"request":{"method":"PUT","url":"Patient/ab9cb197-3c30-48f9-ba83-a921641a4501"}},{"fullUrl":"https://madie.cms.gov/Encounter/Encounter-49","resource":{"resourceType":"Encounter","id":"6385443b-bc63-4d7c-b18f-d8979ddf4533","meta":{"profile":["http://hl7.org/fhir/us/qicore/StructureDefinition/qicore-encounter"]},"status":"finished","class":{"system":"http://terminology.hl7.org/CodeSystem/v3-ActCode","code":"AMB","display":"ambulatory"},"type":[{"coding":[{"system":"http://snomed.info/sct","code":"185317003","display":"Telephone encounter (procedure)"}]}],"subject":{"reference":"Patient/ab9cb197-3c30-48f9-ba83-a921641a4501"},"period":{"start":"2025-01-01T01:00:00.000Z","end":"2025-01-01T01:15:00.000Z"}},"request":{"method":"PUT","url":"Encounter/6385443b-bc63-4d7c-b18f-d8979ddf4533"}},{"fullUrl":"https://madie.cms.gov/Encounter/Encounter-50","resource":{"resourceType":"Encounter","id":"1403ceac-5f58-4883-8920-794fdd9d90d2","meta":{"profile":["http://hl7.org/fhir/us/qicore/StructureDefinition/qicore-encounter"]},"status":"finished","class":{"system":"http://terminology.hl7.org/CodeSystem/v3-ActCode","code":"AMB","display":"ambulatory"},"type":[{"coding":[{"system":"http://snomed.info/sct","code":"185317003","display":"Telephone encounter (procedure)"}]}],"subject":{"reference":"Patient/ab9cb197-3c30-48f9-ba83-a921641a4501"},"period":{"start":"2025-01-02T01:00:00.000Z","end":"2025-01-02T01:15:00.000Z"}},"request":{"method":"PUT","url":"Encounter/1403ceac-5f58-4883-8920-794fdd9d90d2"}},{"fullUrl":"https://madie.cms.gov/Condition/Condition-22","resource":{"resourceType":"Condition","id":"e30efd95-5071-40b3-9c06-6060245390db","meta":{"profile":["http://hl7.org/fhir/us/qicore/StructureDefinition/qicore-condition"]},"clinicalStatus":{"coding":[{"system":"http://terminology.hl7.org/CodeSystem/condition-clinical","code":"active"}]},"category":[{"coding":[{"system":"http://terminology.hl7.org/CodeSystem/condition-category","code":"problem-list-item","display":"Problem List Item"}]}],"code":{"coding":[{"system":"http://snomed.info/sct","code":"10091002","display":"High output heart failure (disorder)"}]},"subject":{"reference":"Patient/ab9cb197-3c30-48f9-ba83-a921641a4501"},"onsetDateTime":"2024-12-31T23:59:00.000Z"},"request":{"method":"PUT","url":"Condition/e30efd95-5071-40b3-9c06-6060245390db"}},{"fullUrl":"https://madie.cms.gov/Observation/Observation-77","resource":{"resourceType":"Observation","id":"7e487fd4-b9e3-4c62-81aa-ef49f9c32c3b","meta":{"profile":["http://hl7.org/fhir/us/qicore/StructureDefinition/qicore-observation"]},"status":"final","category":[{"coding":[{"system":"http://terminology.hl7.org/CodeSystem/observation-category","code":"survey","display":"survey"}],"text":"survey"}],"code":{"coding":[{"system":"http://loinc.org","code":"72189-4","display":"Quality of life score [KCCQ]"}]},"subject":{"reference":"Patient/ab9cb197-3c30-48f9-ba83-a921641a4501"},"effectivePeriod":{"start":"2025-01-01T23:00:00.000Z","end":"2025-01-01T23:59:00.000Z"},"valueInteger":4},"request":{"method":"PUT","url":"Observation/7e487fd4-b9e3-4c62-81aa-ef49f9c32c3b"}},{"fullUrl":"https://madie.cms.gov/Observation/Observation-78","resource":{"resourceType":"Observation","id":"3215134c-86ea-4594-90f0-5de416c56444","meta":{"profile":["http://hl7.org/fhir/us/qicore/StructureDefinition/qicore-observation"]},"status":"final","category":[{"coding":[{"system":"http://terminology.hl7.org/CodeSystem/observation-category","code":"survey","display":"survey"}],"text":"survey"}],"code":{"coding":[{"system":"http://loinc.org","code":"72189-4","display":"Quality of life score [KCCQ]"}]},"subject":{"reference":"Patient/ab9cb197-3c30-48f9-ba83-a921641a4501"},"effectivePeriod":{"start":"2025-06-29T23:00:00.000Z","end":"2025-06-29T23:59:00.000Z"},"valueInteger":4},"request":{"method":"PUT","url":"Observation/3215134c-86ea-4594-90f0-5de416c56444"}},{"fullUrl":"https://madie.cms.gov/Observation/Observation-79","resource":{"resourceType":"Observation","id":"29937ef1-4333-4f28-bcfe-9a72dbf948d5","meta":{"profile":["http://hl7.org/fhir/us/qicore/StructureDefinition/qicore-observation"]},"status":"final","category":[{"coding":[{"system":"http://terminology.hl7.org/CodeSystem/observation-category","code":"survey","display":"survey"}],"text":"survey"}],"code":{"coding":[{"system":"http://loinc.org","code":"72194-4","display":"Symptom stability score [KCCQ]"}]},"subject":{"reference":"Patient/ab9cb197-3c30-48f9-ba83-a921641a4501"},"effectivePeriod":{"start":"2025-01-01T23:00:00.000Z","end":"2025-01-01T23:59:00.000Z"},"valueInteger":4},"request":{"method":"PUT","url":"Observation/29937ef1-4333-4f28-bcfe-9a72dbf948d5"}},{"fullUrl":"https://madie.cms.gov/Observation/Observation-80","resource":{"resourceType":"Observation","id":"a9565599-2d8f-408d-8ab2-a9f9eb90d3d5","meta":{"profile":["http://hl7.org/fhir/us/qicore/StructureDefinition/qicore-observation"]},"status":"final","category":[{"coding":[{"system":"http://terminology.hl7.org/CodeSystem/observation-category","code":"survey","display":"survey"}],"text":"survey"}],"code":{"coding":[{"system":"http://loinc.org","code":"72194-4","display":"Symptom stability score [KCCQ]"}]},"subject":{"reference":"Patient/ab9cb197-3c30-48f9-ba83-a921641a4501"},"effectivePeriod":{"start":"2025-06-29T23:00:00.000Z","end":"2025-06-29T23:59:00.000Z"},"valueInteger":4},"request":{"method":"PUT","url":"Observation/a9565599-2d8f-408d-8ab2-a9f9eb90d3d5"}},{"fullUrl":"https://madie.cms.gov/Observation/Observation-81","resource":{"resourceType":"Observation","id":"ec9aec51-8a59-4024-9e2c-52e9667df753","meta":{"profile":["http://hl7.org/fhir/us/qicore/StructureDefinition/qicore-observation"]},"status":"final","category":[{"coding":[{"system":"http://terminology.hl7.org/CodeSystem/observation-category","code":"survey","display":"survey"}],"text":"survey"}],"code":{"coding":[{"system":"http://loinc.org","code":"72190-2","display":"Self-efficacy score [KCCQ]"}]},"subject":{"reference":"Patient/ab9cb197-3c30-48f9-ba83-a921641a4501"},"effectivePeriod":{"start":"2025-01-01T23:00:00.000Z","end":"2025-01-01T23:59:00.000Z"},"valueInteger":4},"request":{"method":"PUT","url":"Observation/ec9aec51-8a59-4024-9e2c-52e9667df753"}},{"fullUrl":"https://madie.cms.gov/Observation/Observation-82","resource":{"resourceType":"Observation","id":"533ac112-6289-46e5-a2b9-bb924d4d63f5","meta":{"profile":["http://hl7.org/fhir/us/qicore/StructureDefinition/qicore-observation"]},"status":"final","category":[{"coding":[{"system":"http://terminology.hl7.org/CodeSystem/observation-category","code":"survey","display":"survey"}],"text":"survey"}],"code":{"coding":[{"system":"http://loinc.org","code":"72190-2","display":"Self-efficacy score [KCCQ]"}]},"subject":{"reference":"Patient/ab9cb197-3c30-48f9-ba83-a921641a4501"},"effectivePeriod":{"start":"2025-06-29T23:00:00.000Z","end":"2025-06-29T23:59:00.000Z"},"valueInteger":4},"request":{"method":"PUT","url":"Observation/533ac112-6289-46e5-a2b9-bb924d4d63f5"}},{"fullUrl":"https://madie.cms.gov/Observation/Observation-83","resource":{"resourceType":"Observation","id":"53d97b9d-71d5-49d8-9b85-23ee955e250e","meta":{"profile":["http://hl7.org/fhir/us/qicore/StructureDefinition/qicore-observation"]},"status":"final","category":[{"coding":[{"system":"http://terminology.hl7.org/CodeSystem/observation-category","code":"survey","display":"survey"}],"text":"survey"}],"code":{"coding":[{"system":"http://loinc.org","code":"72191-0","display":"Total symptom score [KCCQ]"}]},"subject":{"reference":"Patient/ab9cb197-3c30-48f9-ba83-a921641a4501"},"effectivePeriod":{"start":"2025-01-01T23:00:00.000Z","end":"2025-01-01T23:59:00.000Z"},"valueInteger":4},"request":{"method":"PUT","url":"Observation/53d97b9d-71d5-49d8-9b85-23ee955e250e"}},{"fullUrl":"https://madie.cms.gov/Observation/Observation-84","resource":{"resourceType":"Observation","id":"10f44cc6-976d-44be-aa7f-d2322636e72a","meta":{"profile":["http://hl7.org/fhir/us/qicore/StructureDefinition/qicore-observation"]},"status":"final","category":[{"coding":[{"system":"http://terminology.hl7.org/CodeSystem/observation-category","code":"survey","display":"survey"}],"text":"survey"}],"code":{"coding":[{"system":"http://loinc.org","code":"72191-0","display":"Total symptom score [KCCQ]"}]},"subject":{"reference":"Patient/ab9cb197-3c30-48f9-ba83-a921641a4501"},"effectivePeriod":{"start":"2025-06-29T23:00:00.000Z","end":"2025-06-29T23:59:00.000Z"},"valueInteger":4},"request":{"method":"PUT","url":"Observation/10f44cc6-976d-44be-aa7f-d2322636e72a"}},{"fullUrl":"https://madie.cms.gov/Observation/Observation-85","resource":{"resourceType":"Observation","id":"895c4e76-0022-42d2-a933-3f1bb324f625","meta":{"profile":["http://hl7.org/fhir/us/qicore/StructureDefinition/qicore-observation"]},"status":"final","category":[{"coding":[{"system":"http://terminology.hl7.org/CodeSystem/observation-category","code":"survey","display":"survey"}],"text":"survey"}],"code":{"coding":[{"system":"http://loinc.org","code":"72195-1","display":"Physical limitation score [KCCQ]"}]},"subject":{"reference":"Patient/ab9cb197-3c30-48f9-ba83-a921641a4501"},"effectivePeriod":{"start":"2025-01-01T23:00:00.000Z","end":"2025-01-01T23:59:00.000Z"},"valueInteger":4},"request":{"method":"PUT","url":"Observation/895c4e76-0022-42d2-a933-3f1bb324f625"}},{"fullUrl":"https://madie.cms.gov/Observation/Observation-86","resource":{"resourceType":"Observation","id":"cd5f7344-200b-40a3-95d6-09477b437405","meta":{"profile":["http://hl7.org/fhir/us/qicore/StructureDefinition/qicore-observation"]},"status":"final","category":[{"coding":[{"system":"http://terminology.hl7.org/CodeSystem/observation-category","code":"survey","display":"survey"}],"text":"survey"}],"code":{"coding":[{"system":"http://loinc.org","code":"72195-1","display":"Physical limitation score [KCCQ]"}]},"subject":{"reference":"Patient/ab9cb197-3c30-48f9-ba83-a921641a4501"},"effectivePeriod":{"start":"2025-06-29T23:00:00.000Z","end":"2025-06-29T23:59:00.000Z"},"valueInteger":4},"request":{"method":"PUT","url":"Observation/cd5f7344-200b-40a3-95d6-09477b437405"}},{"fullUrl":"https://madie.cms.gov/Observation/Observation-87","resource":{"resourceType":"Observation","id":"ee75712c-1381-489b-9fa6-df3aa7565498","meta":{"profile":["http://hl7.org/fhir/us/qicore/StructureDefinition/qicore-observation"]},"status":"final","category":[{"coding":[{"system":"http://terminology.hl7.org/CodeSystem/observation-category","code":"survey","display":"survey"}],"text":"survey"}],"code":{"coding":[{"system":"http://loinc.org","code":"72196-9","display":"Social limitation score [KCCQ]"}]},"subject":{"reference":"Patient/ab9cb197-3c30-48f9-ba83-a921641a4501"},"effectivePeriod":{"start":"2025-01-01T23:00:00.000Z","end":"2025-01-01T23:59:00.000Z"},"valueInteger":4},"request":{"method":"PUT","url":"Observation/ee75712c-1381-489b-9fa6-df3aa7565498"}},{"fullUrl":"https://madie.cms.gov/Observation/Observation-88","resource":{"resourceType":"Observation","id":"6d54b463-eb7e-4f43-9a85-7522bdb8cb30","meta":{"profile":["http://hl7.org/fhir/us/qicore/StructureDefinition/qicore-observation"]},"status":"final","category":[{"coding":[{"system":"http://terminology.hl7.org/CodeSystem/observation-category","code":"survey","display":"survey"}],"text":"survey"}],"code":{"coding":[{"system":"http://loinc.org","code":"72196-9","display":"Social limitation score [KCCQ]"}]},"subject":{"reference":"Patient/ab9cb197-3c30-48f9-ba83-a921641a4501"},"effectivePeriod":{"start":"2025-06-29T23:00:00.000Z","end":"2025-06-29T23:59:00.000Z"},"valueInteger":4},"request":{"method":"PUT","url":"Observation/6d54b463-eb7e-4f43-9a85-7522bdb8cb30"}},{"fullUrl":"https://madie.cms.gov/MeasureReport/85ac0a93-87d1-4781-8776-cea6b27f0868","resource":{"resourceType":"MeasureReport","id":"85ac0a93-87d1-4781-8776-cea6b27f0868","meta":{"profile":["http://hl7.org/fhir/us/cqfmeasures/StructureDefinition/test-case-cqfm"]},"contained":[{"resourceType":"Parameters","id":"f07247a7-c6cf-4262-b6fb-86022ffa6893-parameters","parameter":[{"name":"subject","valueString":"ab9cb197-3c30-48f9-ba83-a921641a4501"}]}],"extension":[{"url":"http://hl7.org/fhir/us/cqfmeasures/StructureDefinition/cqfm-inputParameters","valueReference":{"reference":"#f07247a7-c6cf-4262-b6fb-86022ffa6893-parameters"}},{"url":"http://hl7.org/fhir/us/cqfmeasures/StructureDefinition/cqfm-testCaseDescription","valueMarkdown":"Patient has all KCCQ Domain assessments with results during the correct timeframe. Testing the 180 days boundary."}],"modifierExtension":[{"url":"http://hl7.org/fhir/us/cqfmeasures/StructureDefinition/cqfm-isTestCase","valueBoolean":true}],"status":"complete","type":"individual","measure":"https://madie.cms.gov/Measure/FunctionalStatusAssessmentsforHeartFailureFHIR","period":{"start":"2025-01-01","end":"2025-12-31"},"group":[{"population":[{"code":{"coding":[{"system":"http://terminology.hl7.org/CodeSystem/measure-population","code":"initial-population","display":"Initial Population"}]},"count":1},{"code":{"coding":[{"system":"http://terminology.hl7.org/CodeSystem/measure-population","code":"denominator","display":"Denominator"}]},"count":1},{"code":{"coding":[{"system":"http://terminology.hl7.org/CodeSystem/measure-population","code":"denominator-exclusion","display":"Denominator Exclusion"}]},"count":0},{"code":{"coding":[{"system":"http://terminology.hl7.org/CodeSystem/measure-population","code":"numerator","display":"Numerator"}]},"count":1}]}]},"request":{"method":"PUT","url":"MeasureReport/85ac0a93-87d1-4781-8776-cea6b27f0868"}}]}