{"resourceType":"Bundle","id":"tests-ed4a1e1b-c0c7-473b-a685-284b1ae08afb-bundle","type":"transaction","entry":[{"fullUrl":"https://madie.cms.gov/Patient/ed4a1e1b-c0c7-473b-a685-284b1ae08afb","resource":{"resourceType":"Patient","id":"ed4a1e1b-c0c7-473b-a685-284b1ae08afb","meta":{"profile":["http://hl7.org/fhir/us/qicore/StructureDefinition/qicore-patient"]},"extension":[{"url":"http://hl7.org/fhir/us/core/StructureDefinition/us-core-race","extension":[{"url":"ombCategory","valueCoding":{"system":"urn:oid:2.16.840.1.113883.6.238","code":"2028-9","display":"Asian"}},{"url":"text","valueString":"Asian"}]},{"url":"http://hl7.org/fhir/us/core/StructureDefinition/us-core-ethnicity","extension":[{"url":"ombCategory","valueCoding":{"system":"urn:oid:2.16.840.1.113883.6.238","code":"2135-2","display":"Hispanic or Latino"}},{"url":"text","valueString":"Hispanic or Latino"}]}],"identifier":[{"system":"http://hospital.smarthealthit.org","value":"999999995"}],"name":[{"family":"Bertha","given":["Betty"]}],"gender":"female","birthDate":"2007-01-01"},"request":{"method":"PUT","url":"Patient/ed4a1e1b-c0c7-473b-a685-284b1ae08afb"}},{"fullUrl":"https://madie.cms.gov/Encounter/Encounter-36","resource":{"resourceType":"Encounter","id":"b6e6f697-97ee-43b6-a282-9791633fa9c7","meta":{"profile":["http://hl7.org/fhir/us/qicore/StructureDefinition/qicore-encounter"]},"status":"finished","class":{"system":"http://terminology.hl7.org/CodeSystem/v3-ActCode","code":"AMB","display":"ambulatory"},"type":[{"coding":[{"system":"http://snomed.info/sct","code":"185317003","display":"Telephone encounter (procedure)"}]}],"subject":{"reference":"Patient/ed4a1e1b-c0c7-473b-a685-284b1ae08afb"},"period":{"start":"2025-01-01T01:00:00.000Z","end":"2025-01-01T01:15:00.000Z"}},"request":{"method":"PUT","url":"Encounter/b6e6f697-97ee-43b6-a282-9791633fa9c7"}},{"fullUrl":"https://madie.cms.gov/Encounter/Encounter-37","resource":{"resourceType":"Encounter","id":"c845540a-bec7-4f97-bd32-01e5f1dc0371","meta":{"profile":["http://hl7.org/fhir/us/qicore/StructureDefinition/qicore-encounter"]},"status":"finished","class":{"system":"http://terminology.hl7.org/CodeSystem/v3-ActCode","code":"AMB","display":"ambulatory"},"type":[{"coding":[{"system":"http://snomed.info/sct","code":"185317003","display":"Telephone encounter (procedure)"}]}],"subject":{"reference":"Patient/ed4a1e1b-c0c7-473b-a685-284b1ae08afb"},"period":{"start":"2025-01-02T01:00:00.000Z","end":"2025-01-02T01:15:00.000Z"}},"request":{"method":"PUT","url":"Encounter/c845540a-bec7-4f97-bd32-01e5f1dc0371"}},{"fullUrl":"https://madie.cms.gov/Condition/Condition-18","resource":{"resourceType":"Condition","id":"7ffa9dcd-b958-4547-b2e2-d58768e877d6","meta":{"profile":["http://hl7.org/fhir/us/qicore/StructureDefinition/qicore-condition"]},"clinicalStatus":{"coding":[{"system":"http://terminology.hl7.org/CodeSystem/condition-clinical","code":"active"}]},"category":[{"coding":[{"system":"http://terminology.hl7.org/CodeSystem/condition-category","code":"problem-list-item","display":"Problem List Item"}]}],"code":{"coding":[{"system":"http://snomed.info/sct","code":"10091002","display":"High output heart failure (disorder)"}]},"subject":{"reference":"Patient/ed4a1e1b-c0c7-473b-a685-284b1ae08afb"},"onsetDateTime":"2024-12-31T23:59:00.000Z"},"request":{"method":"PUT","url":"Condition/7ffa9dcd-b958-4547-b2e2-d58768e877d6"}},{"fullUrl":"https://madie.cms.gov/Observation/Observation-53","resource":{"resourceType":"Observation","id":"3c1687ce-0447-41ef-b5c9-3b9ce6731d3c","meta":{"profile":["http://hl7.org/fhir/us/qicore/StructureDefinition/qicore-observation"]},"status":"final","category":[{"coding":[{"system":"http://terminology.hl7.org/CodeSystem/observation-category","code":"survey","display":"survey"}],"text":"survey"}],"code":{"coding":[{"system":"http://loinc.org","code":"86923-0","display":"Kansas City Cardiomyopathy Questionnaire - 12 item [KCCQ-12]"}]},"subject":{"reference":"Patient/ed4a1e1b-c0c7-473b-a685-284b1ae08afb"},"effectivePeriod":{"start":"2025-01-01T23:00:00.000Z","end":"2025-01-01T23:59:00.000Z"},"valueInteger":4},"request":{"method":"PUT","url":"Observation/3c1687ce-0447-41ef-b5c9-3b9ce6731d3c"}},{"fullUrl":"https://madie.cms.gov/Observation/Observation-54","resource":{"resourceType":"Observation","id":"06dd816e-2f49-48d0-9bf6-3dd7c4015348","meta":{"profile":["http://hl7.org/fhir/us/qicore/StructureDefinition/qicore-observation"]},"status":"final","category":[{"coding":[{"system":"http://terminology.hl7.org/CodeSystem/observation-category","code":"survey","display":"survey"}],"text":"survey"}],"code":{"coding":[{"system":"http://loinc.org","code":"86923-0","display":"Kansas City Cardiomyopathy Questionnaire - 12 item [KCCQ-12]"}]},"subject":{"reference":"Patient/ed4a1e1b-c0c7-473b-a685-284b1ae08afb"},"effectivePeriod":{"start":"2025-01-31T23:00:00.000Z","end":"2025-01-31T23:59:00.000Z"},"valueInteger":4},"request":{"method":"PUT","url":"Observation/06dd816e-2f49-48d0-9bf6-3dd7c4015348"}},{"fullUrl":"https://madie.cms.gov/Observation/Observation-55","resource":{"resourceType":"Observation","id":"0b33abaf-91af-4563-8734-a934b40803fa","meta":{"profile":["http://hl7.org/fhir/us/qicore/StructureDefinition/qicore-observation"]},"status":"final","category":[{"coding":[{"system":"http://terminology.hl7.org/CodeSystem/observation-category","code":"survey","display":"survey"}],"text":"survey"}],"code":{"coding":[{"system":"http://loinc.org","code":"86924-8","display":"Overall summary score [KCCQ-12]"}]},"subject":{"reference":"Patient/ed4a1e1b-c0c7-473b-a685-284b1ae08afb"},"effectivePeriod":{"start":"2025-01-01T23:00:00.000Z","end":"2025-01-01T23:59:00.000Z"},"valueInteger":4},"request":{"method":"PUT","url":"Observation/0b33abaf-91af-4563-8734-a934b40803fa"}},{"fullUrl":"https://madie.cms.gov/Observation/Observation-56","resource":{"resourceType":"Observation","id":"23d9dd20-18f3-4366-a14c-6eb0b4cf6443","meta":{"profile":["http://hl7.org/fhir/us/qicore/StructureDefinition/qicore-observation"]},"status":"final","category":[{"coding":[{"system":"http://terminology.hl7.org/CodeSystem/observation-category","code":"survey","display":"survey"}],"text":"survey"}],"code":{"coding":[{"system":"http://loinc.org","code":"86924-8","display":"Overall summary score [KCCQ-12]"}]},"subject":{"reference":"Patient/ed4a1e1b-c0c7-473b-a685-284b1ae08afb"},"effectivePeriod":{"start":"2025-01-31T23:00:00.000Z","end":"2025-01-31T23:59:00.000Z"},"valueInteger":4},"request":{"method":"PUT","url":"Observation/23d9dd20-18f3-4366-a14c-6eb0b4cf6443"}},{"fullUrl":"https://madie.cms.gov/MeasureReport/9bcb2081-54bb-4e9f-8239-ab1026365b0a","resource":{"resourceType":"MeasureReport","id":"9bcb2081-54bb-4e9f-8239-ab1026365b0a","meta":{"profile":["http://hl7.org/fhir/us/cqfmeasures/StructureDefinition/test-case-cqfm"]},"contained":[{"resourceType":"Parameters","id":"101163a8-54b1-4f6e-a826-9653527cf339-parameters","parameter":[{"name":"subject","valueString":"ed4a1e1b-c0c7-473b-a685-284b1ae08afb"}]}],"extension":[{"url":"http://hl7.org/fhir/us/cqfmeasures/StructureDefinition/cqfm-inputParameters","valueReference":{"reference":"#101163a8-54b1-4f6e-a826-9653527cf339-parameters"}},{"url":"http://hl7.org/fhir/us/cqfmeasures/StructureDefinition/cqfm-testCaseDescription","valueMarkdown":"Patient has all KCCQ12 Assessments with results during the correct timeframe"}],"modifierExtension":[{"url":"http://hl7.org/fhir/us/cqfmeasures/StructureDefinition/cqfm-isTestCase","valueBoolean":true}],"status":"complete","type":"individual","measure":"https://madie.cms.gov/Measure/FunctionalStatusAssessmentsforHeartFailureFHIR","period":{"start":"2025-01-01","end":"2025-12-31"},"group":[{"population":[{"code":{"coding":[{"system":"http://terminology.hl7.org/CodeSystem/measure-population","code":"initial-population","display":"Initial Population"}]},"count":1},{"code":{"coding":[{"system":"http://terminology.hl7.org/CodeSystem/measure-population","code":"denominator","display":"Denominator"}]},"count":1},{"code":{"coding":[{"system":"http://terminology.hl7.org/CodeSystem/measure-population","code":"denominator-exclusion","display":"Denominator Exclusion"}]},"count":0},{"code":{"coding":[{"system":"http://terminology.hl7.org/CodeSystem/measure-population","code":"numerator","display":"Numerator"}]},"count":1}]}]},"request":{"method":"PUT","url":"MeasureReport/9bcb2081-54bb-4e9f-8239-ab1026365b0a"}}]}