{"resourceType":"Bundle","id":"tests-55e09746-2203-47d9-89d0-e96f71300720-bundle","type":"transaction","entry":[{"fullUrl":"https://madie.cms.gov/Patient/55e09746-2203-47d9-89d0-e96f71300720","resource":{"resourceType":"Patient","id":"55e09746-2203-47d9-89d0-e96f71300720","meta":{"profile":["http://hl7.org/fhir/us/qicore/StructureDefinition/qicore-patient"]},"extension":[{"url":"http://hl7.org/fhir/us/core/StructureDefinition/us-core-race","extension":[{"url":"ombCategory","valueCoding":{"system":"urn:oid:2.16.840.1.113883.6.238","code":"2028-9","display":"Asian"}},{"url":"text","valueString":"Asian"}]},{"url":"http://hl7.org/fhir/us/core/StructureDefinition/us-core-ethnicity","extension":[{"url":"ombCategory","valueCoding":{"system":"urn:oid:2.16.840.1.113883.6.238","code":"2135-2","display":"Hispanic or Latino"}},{"url":"text","valueString":"Hispanic or Latino"}]}],"identifier":[{"system":"http://hospital.smarthealthit.org","value":"999999995"}],"name":[{"family":"Bertha","given":["Betty"]}],"gender":"female","birthDate":"2007-01-01"},"request":{"method":"PUT","url":"Patient/55e09746-2203-47d9-89d0-e96f71300720"}},{"fullUrl":"https://madie.cms.gov/Encounter/Encounter-15","resource":{"resourceType":"Encounter","id":"67026ff1-5db2-432a-aaf7-b80c5542d4d4","meta":{"profile":["http://hl7.org/fhir/us/qicore/StructureDefinition/qicore-encounter"]},"status":"finished","class":{"system":"http://terminology.hl7.org/CodeSystem/v3-ActCode","code":"AMB","display":"ambulatory"},"type":[{"coding":[{"system":"http://snomed.info/sct","code":"185317003","display":"Telephone encounter (procedure)"}]}],"subject":{"reference":"Patient/55e09746-2203-47d9-89d0-e96f71300720"},"period":{"start":"2025-01-01T01:00:00.000Z","end":"2025-01-01T01:15:00.000Z"}},"request":{"method":"PUT","url":"Encounter/67026ff1-5db2-432a-aaf7-b80c5542d4d4"}},{"fullUrl":"https://madie.cms.gov/Encounter/Encounter-16","resource":{"resourceType":"Encounter","id":"943a914a-c566-4e20-a351-29cf817a72ec","meta":{"profile":["http://hl7.org/fhir/us/qicore/StructureDefinition/qicore-encounter"]},"status":"finished","class":{"system":"http://terminology.hl7.org/CodeSystem/v3-ActCode","code":"AMB","display":"ambulatory"},"type":[{"coding":[{"system":"http://snomed.info/sct","code":"185317003","display":"Telephone encounter (procedure)"}]}],"subject":{"reference":"Patient/55e09746-2203-47d9-89d0-e96f71300720"},"period":{"start":"2025-01-02T01:00:00.000Z","end":"2025-01-02T01:15:00.000Z"}},"request":{"method":"PUT","url":"Encounter/943a914a-c566-4e20-a351-29cf817a72ec"}},{"fullUrl":"https://madie.cms.gov/Condition/Condition-7","resource":{"resourceType":"Condition","id":"f75348f4-4d17-4dd3-ad8a-11dc58e3d9ce","meta":{"profile":["http://hl7.org/fhir/us/qicore/StructureDefinition/qicore-condition"]},"clinicalStatus":{"coding":[{"system":"http://terminology.hl7.org/CodeSystem/condition-clinical","code":"active"}]},"category":[{"coding":[{"system":"http://terminology.hl7.org/CodeSystem/condition-category","code":"problem-list-item","display":"Problem List Item"}]}],"code":{"coding":[{"system":"http://snomed.info/sct","code":"10091002","display":"High output heart failure (disorder)"}]},"subject":{"reference":"Patient/55e09746-2203-47d9-89d0-e96f71300720"},"onsetDateTime":"2024-12-31T23:59:00.000Z"},"request":{"method":"PUT","url":"Condition/f75348f4-4d17-4dd3-ad8a-11dc58e3d9ce"}},{"fullUrl":"https://madie.cms.gov/Observation/Observation-9","resource":{"resourceType":"Observation","id":"19b9dd42-44c4-44b4-8dad-97b4f7934e8b","meta":{"profile":["http://hl7.org/fhir/us/qicore/StructureDefinition/qicore-observation"]},"status":"final","category":[{"coding":[{"system":"http://terminology.hl7.org/CodeSystem/observation-category","code":"survey","display":"survey"}],"text":"survey"}],"code":{"coding":[{"system":"http://loinc.org","code":"71955-9","display":"PROMIS-29 Sleep disturbance score T-score"}]},"subject":{"reference":"Patient/55e09746-2203-47d9-89d0-e96f71300720"},"effectivePeriod":{"start":"2025-01-01T23:00:00.000Z","end":"2025-01-01T23:59:00.000Z"},"valueInteger":1},"request":{"method":"PUT","url":"Observation/19b9dd42-44c4-44b4-8dad-97b4f7934e8b"}},{"fullUrl":"https://madie.cms.gov/Observation/Observation-10","resource":{"resourceType":"Observation","id":"cdf368ac-e701-4b77-acf6-8628bf1064d5","meta":{"profile":["http://hl7.org/fhir/us/qicore/StructureDefinition/qicore-observation"]},"status":"final","category":[{"coding":[{"system":"http://terminology.hl7.org/CodeSystem/observation-category","code":"survey","display":"survey"}],"text":"survey"}],"code":{"coding":[{"system":"http://loinc.org","code":"71957-5","display":"PROMIS-29 Satisfaction with participation in social roles score T-score"}]},"subject":{"reference":"Patient/55e09746-2203-47d9-89d0-e96f71300720"},"effectivePeriod":{"start":"2025-01-01T23:00:00.000Z","end":"2025-01-01T23:59:00.000Z"},"valueInteger":2},"request":{"method":"PUT","url":"Observation/cdf368ac-e701-4b77-acf6-8628bf1064d5"}},{"fullUrl":"https://madie.cms.gov/Observation/Observation-11","resource":{"resourceType":"Observation","id":"f14c1571-37a1-4528-8793-d735d2a3a2af","meta":{"profile":["http://hl7.org/fhir/us/qicore/StructureDefinition/qicore-observation"]},"status":"final","category":[{"coding":[{"system":"http://terminology.hl7.org/CodeSystem/observation-category","code":"survey","display":"survey"}],"text":"survey"}],"code":{"coding":[{"system":"http://loinc.org","code":"71955-9","display":"PROMIS-29 Sleep disturbance score T-score"}]},"subject":{"reference":"Patient/55e09746-2203-47d9-89d0-e96f71300720"},"effectivePeriod":{"start":"2025-01-31T23:00:00.000Z","end":"2025-01-31T23:59:00.000Z"},"valueInteger":3},"request":{"method":"PUT","url":"Observation/f14c1571-37a1-4528-8793-d735d2a3a2af"}},{"fullUrl":"https://madie.cms.gov/Observation/Observation-12","resource":{"resourceType":"Observation","id":"ab08a230-d9aa-496c-afcd-e7e0d04c9f81","meta":{"profile":["http://hl7.org/fhir/us/qicore/StructureDefinition/qicore-observation"]},"status":"final","category":[{"coding":[{"system":"http://terminology.hl7.org/CodeSystem/observation-category","code":"survey","display":"survey"}],"text":"survey"}],"code":{"coding":[{"system":"http://loinc.org","code":"71957-5","display":"PROMIS-29 Satisfaction with participation in social roles score T-score"}]},"subject":{"reference":"Patient/55e09746-2203-47d9-89d0-e96f71300720"},"effectivePeriod":{"start":"2025-01-31T23:00:00.000Z","end":"2025-01-31T23:59:00.000Z"},"valueInteger":4},"request":{"method":"PUT","url":"Observation/ab08a230-d9aa-496c-afcd-e7e0d04c9f81"}},{"fullUrl":"https://madie.cms.gov/Observation/Observation-13","resource":{"resourceType":"Observation","id":"ac0ac039-807c-436e-93ea-5fa2c0ea685d","meta":{"profile":["http://hl7.org/fhir/us/qicore/StructureDefinition/qicore-observation"]},"status":"final","category":[{"coding":[{"system":"http://terminology.hl7.org/CodeSystem/observation-category","code":"survey","display":"survey"}],"text":"survey"}],"code":{"coding":[{"system":"http://loinc.org","code":"71959-1","display":"PROMIS-29 Physical function score T-score"}]},"subject":{"reference":"Patient/55e09746-2203-47d9-89d0-e96f71300720"},"effectivePeriod":{"start":"2025-01-01T23:00:00.000Z","end":"2025-01-01T23:59:00.000Z"},"valueInteger":4},"request":{"method":"PUT","url":"Observation/ac0ac039-807c-436e-93ea-5fa2c0ea685d"}},{"fullUrl":"https://madie.cms.gov/Observation/Observation-14","resource":{"resourceType":"Observation","id":"5e8be4bc-90d4-47a6-a0f8-caac465ebad6","meta":{"profile":["http://hl7.org/fhir/us/qicore/StructureDefinition/qicore-observation"]},"status":"final","category":[{"coding":[{"system":"http://terminology.hl7.org/CodeSystem/observation-category","code":"survey","display":"survey"}],"text":"survey"}],"code":{"coding":[{"system":"http://loinc.org","code":"71959-1","display":"PROMIS-29 Physical function score T-score"}]},"subject":{"reference":"Patient/55e09746-2203-47d9-89d0-e96f71300720"},"effectivePeriod":{"start":"2025-01-31T23:00:00.000Z","end":"2025-01-31T23:59:00.000Z"},"valueInteger":4},"request":{"method":"PUT","url":"Observation/5e8be4bc-90d4-47a6-a0f8-caac465ebad6"}},{"fullUrl":"https://madie.cms.gov/Observation/Observation-15","resource":{"resourceType":"Observation","id":"da3d14b4-0c27-4107-b775-249f1ab54d35","meta":{"profile":["http://hl7.org/fhir/us/qicore/StructureDefinition/qicore-observation"]},"status":"final","category":[{"coding":[{"system":"http://terminology.hl7.org/CodeSystem/observation-category","code":"survey","display":"survey"}],"text":"survey"}],"code":{"coding":[{"system":"http://loinc.org","code":"71961-7","display":"PROMIS-29 Pain interference score T-score"}]},"subject":{"reference":"Patient/55e09746-2203-47d9-89d0-e96f71300720"},"effectivePeriod":{"start":"2025-01-01T23:00:00.000Z","end":"2025-01-01T23:59:00.000Z"},"valueInteger":4},"request":{"method":"PUT","url":"Observation/da3d14b4-0c27-4107-b775-249f1ab54d35"}},{"fullUrl":"https://madie.cms.gov/Observation/Observation-16","resource":{"resourceType":"Observation","id":"0a9b3ea5-aac9-474b-be98-58c4c2e7430f","meta":{"profile":["http://hl7.org/fhir/us/qicore/StructureDefinition/qicore-observation"]},"status":"final","category":[{"coding":[{"system":"http://terminology.hl7.org/CodeSystem/observation-category","code":"survey","display":"survey"}],"text":"survey"}],"code":{"coding":[{"system":"http://loinc.org","code":"71961-7","display":"PROMIS-29 Pain interference score T-score"}]},"subject":{"reference":"Patient/55e09746-2203-47d9-89d0-e96f71300720"},"effectivePeriod":{"start":"2025-01-31T23:00:00.000Z","end":"2025-01-31T23:59:00.000Z"},"valueInteger":4},"request":{"method":"PUT","url":"Observation/0a9b3ea5-aac9-474b-be98-58c4c2e7430f"}},{"fullUrl":"https://madie.cms.gov/Observation/Observation-17","resource":{"resourceType":"Observation","id":"b04a63f3-815b-4aa2-8f02-25b26a3d44d5","meta":{"profile":["http://hl7.org/fhir/us/qicore/StructureDefinition/qicore-observation"]},"status":"final","category":[{"coding":[{"system":"http://terminology.hl7.org/CodeSystem/observation-category","code":"survey","display":"survey"}],"text":"survey"}],"code":{"coding":[{"system":"http://loinc.org","code":"71963-3","display":"PROMIS-29 Fatigue score T-score"}]},"subject":{"reference":"Patient/55e09746-2203-47d9-89d0-e96f71300720"},"effectivePeriod":{"start":"2025-01-01T23:00:00.000Z","end":"2025-01-01T23:59:00.000Z"},"valueInteger":4},"request":{"method":"PUT","url":"Observation/b04a63f3-815b-4aa2-8f02-25b26a3d44d5"}},{"fullUrl":"https://madie.cms.gov/Observation/Observation-18","resource":{"resourceType":"Observation","id":"69f4a8b4-5611-44a8-9d38-1dbad028991a","meta":{"profile":["http://hl7.org/fhir/us/qicore/StructureDefinition/qicore-observation"]},"status":"final","category":[{"coding":[{"system":"http://terminology.hl7.org/CodeSystem/observation-category","code":"survey","display":"survey"}],"text":"survey"}],"code":{"coding":[{"system":"http://loinc.org","code":"71963-3","display":"PROMIS-29 Fatigue score T-score"}]},"subject":{"reference":"Patient/55e09746-2203-47d9-89d0-e96f71300720"},"effectivePeriod":{"start":"2025-01-31T23:00:00.000Z","end":"2025-01-31T23:59:00.000Z"},"valueInteger":4},"request":{"method":"PUT","url":"Observation/69f4a8b4-5611-44a8-9d38-1dbad028991a"}},{"fullUrl":"https://madie.cms.gov/Observation/Observation-19","resource":{"resourceType":"Observation","id":"93fe6991-d840-44be-852c-6abccb186cd7","meta":{"profile":["http://hl7.org/fhir/us/qicore/StructureDefinition/qicore-observation"]},"status":"final","category":[{"coding":[{"system":"http://terminology.hl7.org/CodeSystem/observation-category","code":"survey","display":"survey"}],"text":"survey"}],"code":{"coding":[{"system":"http://loinc.org","code":"71965-8","display":"PROMIS-29 Depression score T-score"}]},"subject":{"reference":"Patient/55e09746-2203-47d9-89d0-e96f71300720"},"effectivePeriod":{"start":"2025-01-01T23:00:00.000Z","end":"2025-01-01T23:59:00.000Z"},"valueInteger":4},"request":{"method":"PUT","url":"Observation/93fe6991-d840-44be-852c-6abccb186cd7"}},{"fullUrl":"https://madie.cms.gov/Observation/Observation-20","resource":{"resourceType":"Observation","id":"2b8d8bcb-f5be-4411-b7d1-e5f420356be7","meta":{"profile":["http://hl7.org/fhir/us/qicore/StructureDefinition/qicore-observation"]},"status":"final","category":[{"coding":[{"system":"http://terminology.hl7.org/CodeSystem/observation-category","code":"survey","display":"survey"}],"text":"survey"}],"code":{"coding":[{"system":"http://loinc.org","code":"71965-8","display":"PROMIS-29 Depression score T-score"}]},"subject":{"reference":"Patient/55e09746-2203-47d9-89d0-e96f71300720"},"effectivePeriod":{"start":"2025-01-31T23:00:00.000Z","end":"2025-01-31T23:59:00.000Z"},"valueInteger":4},"request":{"method":"PUT","url":"Observation/2b8d8bcb-f5be-4411-b7d1-e5f420356be7"}},{"fullUrl":"https://madie.cms.gov/Observation/Observation-21","resource":{"resourceType":"Observation","id":"02095f58-ef7a-4432-8589-80a5a7237b43","meta":{"profile":["http://hl7.org/fhir/us/qicore/StructureDefinition/qicore-observation"]},"status":"final","category":[{"coding":[{"system":"http://terminology.hl7.org/CodeSystem/observation-category","code":"survey","display":"survey"}],"text":"survey"}],"code":{"coding":[{"system":"http://loinc.org","code":"71967-4","display":"PROMIS-29 Anxiety score T-score"}]},"subject":{"reference":"Patient/55e09746-2203-47d9-89d0-e96f71300720"},"effectivePeriod":{"start":"2025-01-01T23:00:00.000Z","end":"2025-01-01T23:59:00.000Z"},"valueInteger":4},"request":{"method":"PUT","url":"Observation/02095f58-ef7a-4432-8589-80a5a7237b43"}},{"fullUrl":"https://madie.cms.gov/Observation/Observation-22","resource":{"resourceType":"Observation","id":"4241ea0f-c596-4d3a-bd86-8833a64bbc8e","meta":{"profile":["http://hl7.org/fhir/us/qicore/StructureDefinition/qicore-observation"]},"status":"final","category":[{"coding":[{"system":"http://terminology.hl7.org/CodeSystem/observation-category","code":"survey","display":"survey"}],"text":"survey"}],"code":{"coding":[{"system":"http://loinc.org","code":"71967-4","display":"PROMIS-29 Anxiety score T-score"}]},"subject":{"reference":"Patient/55e09746-2203-47d9-89d0-e96f71300720"},"effectivePeriod":{"start":"2025-01-31T23:00:00.000Z","end":"2025-01-31T23:59:00.000Z"},"valueInteger":4},"request":{"method":"PUT","url":"Observation/4241ea0f-c596-4d3a-bd86-8833a64bbc8e"}},{"fullUrl":"https://madie.cms.gov/MeasureReport/80ffdf0a-b9b5-4f87-92ce-ef75bafd0b54","resource":{"resourceType":"MeasureReport","id":"80ffdf0a-b9b5-4f87-92ce-ef75bafd0b54","meta":{"profile":["http://hl7.org/fhir/us/cqfmeasures/StructureDefinition/test-case-cqfm"]},"contained":[{"resourceType":"Parameters","id":"ba513f49-ae2f-4df0-95eb-d49dec7e5b57-parameters","parameter":[{"name":"subject","valueString":"55e09746-2203-47d9-89d0-e96f71300720"}]}],"extension":[{"url":"http://hl7.org/fhir/us/cqfmeasures/StructureDefinition/cqfm-inputParameters","valueReference":{"reference":"#ba513f49-ae2f-4df0-95eb-d49dec7e5b57-parameters"}},{"url":"http://hl7.org/fhir/us/cqfmeasures/StructureDefinition/cqfm-testCaseDescription","valueMarkdown":"Patient has all PROMIS29 results during the correct timeframe."}],"modifierExtension":[{"url":"http://hl7.org/fhir/us/cqfmeasures/StructureDefinition/cqfm-isTestCase","valueBoolean":true}],"status":"complete","type":"individual","measure":"https://madie.cms.gov/Measure/FunctionalStatusAssessmentsforHeartFailureFHIR","period":{"start":"2025-01-01","end":"2025-12-31"},"group":[{"population":[{"code":{"coding":[{"system":"http://terminology.hl7.org/CodeSystem/measure-population","code":"initial-population","display":"Initial Population"}]},"count":1},{"code":{"coding":[{"system":"http://terminology.hl7.org/CodeSystem/measure-population","code":"denominator","display":"Denominator"}]},"count":1},{"code":{"coding":[{"system":"http://terminology.hl7.org/CodeSystem/measure-population","code":"denominator-exclusion","display":"Denominator Exclusion"}]},"count":0},{"code":{"coding":[{"system":"http://terminology.hl7.org/CodeSystem/measure-population","code":"numerator","display":"Numerator"}]},"count":1}]}]},"request":{"method":"PUT","url":"MeasureReport/80ffdf0a-b9b5-4f87-92ce-ef75bafd0b54"}}]}