{"resourceType":"Bundle","id":"tests-1df58f4a-37fb-46e6-b20d-fc4a8b57d77e-bundle","type":"transaction","entry":[{"fullUrl":"https://madie.cms.gov/Patient/1df58f4a-37fb-46e6-b20d-fc4a8b57d77e","resource":{"resourceType":"Patient","id":"1df58f4a-37fb-46e6-b20d-fc4a8b57d77e","meta":{"profile":["http://hl7.org/fhir/us/qicore/StructureDefinition/qicore-patient"]},"extension":[{"url":"http://hl7.org/fhir/us/core/StructureDefinition/us-core-race","extension":[{"url":"ombCategory","valueCoding":{"system":"urn:oid:2.16.840.1.113883.6.238","code":"2028-9","display":"Asian"}},{"url":"text","valueString":"Asian"}]},{"url":"http://hl7.org/fhir/us/core/StructureDefinition/us-core-ethnicity","extension":[{"url":"ombCategory","valueCoding":{"system":"urn:oid:2.16.840.1.113883.6.238","code":"2135-2","display":"Hispanic or Latino"}},{"url":"text","valueString":"Hispanic or Latino"}]}],"identifier":[{"system":"http://hospital.smarthealthit.org","value":"999999995"}],"name":[{"family":"Bertha","given":["Betty"]}],"gender":"female","birthDate":"2007-01-01"},"request":{"method":"PUT","url":"Patient/1df58f4a-37fb-46e6-b20d-fc4a8b57d77e"}},{"fullUrl":"https://madie.cms.gov/Encounter/Encounter-47","resource":{"resourceType":"Encounter","id":"b5008904-d3d9-4cd5-a4f8-94e3e72ef7af","meta":{"profile":["http://hl7.org/fhir/us/qicore/StructureDefinition/qicore-encounter"]},"status":"finished","class":{"system":"http://terminology.hl7.org/CodeSystem/v3-ActCode","code":"AMB","display":"ambulatory"},"type":[{"coding":[{"system":"http://snomed.info/sct","code":"185317003","display":"Telephone encounter (procedure)"}]}],"subject":{"reference":"Patient/1df58f4a-37fb-46e6-b20d-fc4a8b57d77e"},"period":{"start":"2025-01-01T01:00:00.000Z","end":"2025-01-01T01:15:00.000Z"}},"request":{"method":"PUT","url":"Encounter/b5008904-d3d9-4cd5-a4f8-94e3e72ef7af"}},{"fullUrl":"https://madie.cms.gov/Encounter/Encounter-48","resource":{"resourceType":"Encounter","id":"8eb9a7ae-e40b-4bac-8c05-78531118ffee","meta":{"profile":["http://hl7.org/fhir/us/qicore/StructureDefinition/qicore-encounter"]},"status":"finished","class":{"system":"http://terminology.hl7.org/CodeSystem/v3-ActCode","code":"AMB","display":"ambulatory"},"type":[{"coding":[{"system":"http://snomed.info/sct","code":"185317003","display":"Telephone encounter (procedure)"}]}],"subject":{"reference":"Patient/1df58f4a-37fb-46e6-b20d-fc4a8b57d77e"},"period":{"start":"2025-01-02T01:00:00.000Z","end":"2025-01-02T01:15:00.000Z"}},"request":{"method":"PUT","url":"Encounter/8eb9a7ae-e40b-4bac-8c05-78531118ffee"}},{"fullUrl":"https://madie.cms.gov/Condition/Condition-21","resource":{"resourceType":"Condition","id":"6093b8dd-97d2-48cc-9083-edc21af2f38c","meta":{"profile":["http://hl7.org/fhir/us/qicore/StructureDefinition/qicore-condition"]},"clinicalStatus":{"coding":[{"system":"http://terminology.hl7.org/CodeSystem/condition-clinical","code":"active"}]},"category":[{"coding":[{"system":"http://terminology.hl7.org/CodeSystem/condition-category","code":"problem-list-item","display":"Problem List Item"}]}],"code":{"coding":[{"system":"http://snomed.info/sct","code":"10091002","display":"High output heart failure (disorder)"}]},"subject":{"reference":"Patient/1df58f4a-37fb-46e6-b20d-fc4a8b57d77e"},"onsetDateTime":"2024-12-31T23:59:00.000Z"},"request":{"method":"PUT","url":"Condition/6093b8dd-97d2-48cc-9083-edc21af2f38c"}},{"fullUrl":"https://madie.cms.gov/Observation/Observation-65","resource":{"resourceType":"Observation","id":"b577e876-0b9b-4dea-9907-57eebf21bfd5","meta":{"profile":["http://hl7.org/fhir/us/qicore/StructureDefinition/qicore-observation"]},"status":"final","category":[{"coding":[{"system":"http://terminology.hl7.org/CodeSystem/observation-category","code":"survey","display":"survey"}],"text":"survey"}],"code":{"coding":[{"system":"http://loinc.org","code":"72189-4","display":"Quality of life score [KCCQ]"}]},"subject":{"reference":"Patient/1df58f4a-37fb-46e6-b20d-fc4a8b57d77e"},"effectivePeriod":{"start":"2025-01-01T23:00:00.000Z","end":"2025-01-01T23:59:00.000Z"},"valueInteger":4},"request":{"method":"PUT","url":"Observation/b577e876-0b9b-4dea-9907-57eebf21bfd5"}},{"fullUrl":"https://madie.cms.gov/Observation/Observation-66","resource":{"resourceType":"Observation","id":"d2beb44e-9f40-4cc1-a685-4d107d4b692d","meta":{"profile":["http://hl7.org/fhir/us/qicore/StructureDefinition/qicore-observation"]},"status":"final","category":[{"coding":[{"system":"http://terminology.hl7.org/CodeSystem/observation-category","code":"survey","display":"survey"}],"text":"survey"}],"code":{"coding":[{"system":"http://loinc.org","code":"72189-4","display":"Quality of life score [KCCQ]"}]},"subject":{"reference":"Patient/1df58f4a-37fb-46e6-b20d-fc4a8b57d77e"},"effectivePeriod":{"start":"2025-07-03T23:00:00.000Z","end":"2025-07-03T23:59:00.000Z"},"valueInteger":4},"request":{"method":"PUT","url":"Observation/d2beb44e-9f40-4cc1-a685-4d107d4b692d"}},{"fullUrl":"https://madie.cms.gov/Observation/Observation-67","resource":{"resourceType":"Observation","id":"96fbff1f-20e4-43c9-ab6f-11fd3cadb1f5","meta":{"profile":["http://hl7.org/fhir/us/qicore/StructureDefinition/qicore-observation"]},"status":"final","category":[{"coding":[{"system":"http://terminology.hl7.org/CodeSystem/observation-category","code":"survey","display":"survey"}],"text":"survey"}],"code":{"coding":[{"system":"http://loinc.org","code":"72194-4","display":"Symptom stability score [KCCQ]"}]},"subject":{"reference":"Patient/1df58f4a-37fb-46e6-b20d-fc4a8b57d77e"},"effectivePeriod":{"start":"2025-01-01T23:00:00.000Z","end":"2025-01-01T23:59:00.000Z"},"valueInteger":4},"request":{"method":"PUT","url":"Observation/96fbff1f-20e4-43c9-ab6f-11fd3cadb1f5"}},{"fullUrl":"https://madie.cms.gov/Observation/Observation-68","resource":{"resourceType":"Observation","id":"b784cea4-ed5f-43dc-937c-37874ee7005a","meta":{"profile":["http://hl7.org/fhir/us/qicore/StructureDefinition/qicore-observation"]},"status":"final","category":[{"coding":[{"system":"http://terminology.hl7.org/CodeSystem/observation-category","code":"survey","display":"survey"}],"text":"survey"}],"code":{"coding":[{"system":"http://loinc.org","code":"72194-4","display":"Symptom stability score [KCCQ]"}]},"subject":{"reference":"Patient/1df58f4a-37fb-46e6-b20d-fc4a8b57d77e"},"effectivePeriod":{"start":"2025-06-30T23:00:00.000Z","end":"2025-06-30T23:59:00.000Z"},"valueInteger":4},"request":{"method":"PUT","url":"Observation/b784cea4-ed5f-43dc-937c-37874ee7005a"}},{"fullUrl":"https://madie.cms.gov/Observation/Observation-69","resource":{"resourceType":"Observation","id":"1cb58fcf-fbc6-476a-abd2-c25d215e91b0","meta":{"profile":["http://hl7.org/fhir/us/qicore/StructureDefinition/qicore-observation"]},"status":"final","category":[{"coding":[{"system":"http://terminology.hl7.org/CodeSystem/observation-category","code":"survey","display":"survey"}],"text":"survey"}],"code":{"coding":[{"system":"http://loinc.org","code":"72190-2","display":"Self-efficacy score [KCCQ]"}]},"subject":{"reference":"Patient/1df58f4a-37fb-46e6-b20d-fc4a8b57d77e"},"effectivePeriod":{"start":"2025-01-01T23:00:00.000Z","end":"2025-01-01T23:59:00.000Z"},"valueInteger":4},"request":{"method":"PUT","url":"Observation/1cb58fcf-fbc6-476a-abd2-c25d215e91b0"}},{"fullUrl":"https://madie.cms.gov/Observation/Observation-70","resource":{"resourceType":"Observation","id":"5cacf8ff-0b21-4e9c-9a81-6ad07c4db767","meta":{"profile":["http://hl7.org/fhir/us/qicore/StructureDefinition/qicore-observation"]},"status":"final","category":[{"coding":[{"system":"http://terminology.hl7.org/CodeSystem/observation-category","code":"survey","display":"survey"}],"text":"survey"}],"code":{"coding":[{"system":"http://loinc.org","code":"72190-2","display":"Self-efficacy score [KCCQ]"}]},"subject":{"reference":"Patient/1df58f4a-37fb-46e6-b20d-fc4a8b57d77e"},"effectivePeriod":{"start":"2025-06-30T23:00:00.000Z","end":"2025-06-30T23:59:00.000Z"},"valueInteger":4},"request":{"method":"PUT","url":"Observation/5cacf8ff-0b21-4e9c-9a81-6ad07c4db767"}},{"fullUrl":"https://madie.cms.gov/Observation/Observation-71","resource":{"resourceType":"Observation","id":"db381aef-0e5a-4ef6-a1a0-c74895fb2e07","meta":{"profile":["http://hl7.org/fhir/us/qicore/StructureDefinition/qicore-observation"]},"status":"final","category":[{"coding":[{"system":"http://terminology.hl7.org/CodeSystem/observation-category","code":"survey","display":"survey"}],"text":"survey"}],"code":{"coding":[{"system":"http://loinc.org","code":"72191-0","display":"Total symptom score [KCCQ]"}]},"subject":{"reference":"Patient/1df58f4a-37fb-46e6-b20d-fc4a8b57d77e"},"effectivePeriod":{"start":"2025-01-01T23:00:00.000Z","end":"2025-01-01T23:59:00.000Z"},"valueInteger":4},"request":{"method":"PUT","url":"Observation/db381aef-0e5a-4ef6-a1a0-c74895fb2e07"}},{"fullUrl":"https://madie.cms.gov/Observation/Observation-72","resource":{"resourceType":"Observation","id":"58ef013b-3ca6-44ae-8ff0-d6272d9b7610","meta":{"profile":["http://hl7.org/fhir/us/qicore/StructureDefinition/qicore-observation"]},"status":"final","category":[{"coding":[{"system":"http://terminology.hl7.org/CodeSystem/observation-category","code":"survey","display":"survey"}],"text":"survey"}],"code":{"coding":[{"system":"http://loinc.org","code":"72191-0","display":"Total symptom score [KCCQ]"}]},"subject":{"reference":"Patient/1df58f4a-37fb-46e6-b20d-fc4a8b57d77e"},"effectivePeriod":{"start":"2025-06-30T23:00:00.000Z","end":"2025-06-30T23:59:00.000Z"},"valueInteger":4},"request":{"method":"PUT","url":"Observation/58ef013b-3ca6-44ae-8ff0-d6272d9b7610"}},{"fullUrl":"https://madie.cms.gov/Observation/Observation-73","resource":{"resourceType":"Observation","id":"afa56b57-2c19-409c-9ec3-53f69050d629","meta":{"profile":["http://hl7.org/fhir/us/qicore/StructureDefinition/qicore-observation"]},"status":"final","category":[{"coding":[{"system":"http://terminology.hl7.org/CodeSystem/observation-category","code":"survey","display":"survey"}],"text":"survey"}],"code":{"coding":[{"system":"http://loinc.org","code":"72195-1","display":"Physical limitation score [KCCQ]"}]},"subject":{"reference":"Patient/1df58f4a-37fb-46e6-b20d-fc4a8b57d77e"},"effectivePeriod":{"start":"2025-01-01T23:00:00.000Z","end":"2025-01-01T23:59:00.000Z"},"valueInteger":4},"request":{"method":"PUT","url":"Observation/afa56b57-2c19-409c-9ec3-53f69050d629"}},{"fullUrl":"https://madie.cms.gov/Observation/Observation-74","resource":{"resourceType":"Observation","id":"291bbd57-ad91-4322-93f1-6a30f4094fdc","meta":{"profile":["http://hl7.org/fhir/us/qicore/StructureDefinition/qicore-observation"]},"status":"final","category":[{"coding":[{"system":"http://terminology.hl7.org/CodeSystem/observation-category","code":"survey","display":"survey"}],"text":"survey"}],"code":{"coding":[{"system":"http://loinc.org","code":"72195-1","display":"Physical limitation score [KCCQ]"}]},"subject":{"reference":"Patient/1df58f4a-37fb-46e6-b20d-fc4a8b57d77e"},"effectivePeriod":{"start":"2025-06-30T23:00:00.000Z","end":"2025-06-30T23:59:00.000Z"},"valueInteger":4},"request":{"method":"PUT","url":"Observation/291bbd57-ad91-4322-93f1-6a30f4094fdc"}},{"fullUrl":"https://madie.cms.gov/Observation/Observation-75","resource":{"resourceType":"Observation","id":"712740e6-f530-4447-91a6-be61d31ba66a","meta":{"profile":["http://hl7.org/fhir/us/qicore/StructureDefinition/qicore-observation"]},"status":"final","category":[{"coding":[{"system":"http://terminology.hl7.org/CodeSystem/observation-category","code":"survey","display":"survey"}],"text":"survey"}],"code":{"coding":[{"system":"http://loinc.org","code":"72196-9","display":"Social limitation score [KCCQ]"}]},"subject":{"reference":"Patient/1df58f4a-37fb-46e6-b20d-fc4a8b57d77e"},"effectivePeriod":{"start":"2025-01-01T23:00:00.000Z","end":"2025-01-01T23:59:00.000Z"},"valueInteger":4},"request":{"method":"PUT","url":"Observation/712740e6-f530-4447-91a6-be61d31ba66a"}},{"fullUrl":"https://madie.cms.gov/Observation/Observation-76","resource":{"resourceType":"Observation","id":"d555494d-8594-48a4-8c4d-4a0640a17d45","meta":{"profile":["http://hl7.org/fhir/us/qicore/StructureDefinition/qicore-observation"]},"status":"final","category":[{"coding":[{"system":"http://terminology.hl7.org/CodeSystem/observation-category","code":"survey","display":"survey"}],"text":"survey"}],"code":{"coding":[{"system":"http://loinc.org","code":"72196-9","display":"Social limitation score [KCCQ]"}]},"subject":{"reference":"Patient/1df58f4a-37fb-46e6-b20d-fc4a8b57d77e"},"effectivePeriod":{"start":"2025-06-30T23:00:00.000Z","end":"2025-06-30T23:59:00.000Z"},"valueInteger":4},"request":{"method":"PUT","url":"Observation/d555494d-8594-48a4-8c4d-4a0640a17d45"}},{"fullUrl":"https://madie.cms.gov/MeasureReport/7db0611d-1ec7-44fe-8d26-d263b3a62076","resource":{"resourceType":"MeasureReport","id":"7db0611d-1ec7-44fe-8d26-d263b3a62076","meta":{"profile":["http://hl7.org/fhir/us/cqfmeasures/StructureDefinition/test-case-cqfm"]},"contained":[{"resourceType":"Parameters","id":"4dfa22bb-3243-4239-a4b6-a8d6408a7ae7-parameters","parameter":[{"name":"subject","valueString":"1df58f4a-37fb-46e6-b20d-fc4a8b57d77e"}]}],"extension":[{"url":"http://hl7.org/fhir/us/cqfmeasures/StructureDefinition/cqfm-inputParameters","valueReference":{"reference":"#4dfa22bb-3243-4239-a4b6-a8d6408a7ae7-parameters"}},{"url":"http://hl7.org/fhir/us/cqfmeasures/StructureDefinition/cqfm-testCaseDescription","valueMarkdown":"Patient has one KCCQ Domain assessments that is 181 days after their initial FSA."}],"modifierExtension":[{"url":"http://hl7.org/fhir/us/cqfmeasures/StructureDefinition/cqfm-isTestCase","valueBoolean":true}],"status":"complete","type":"individual","measure":"https://madie.cms.gov/Measure/FunctionalStatusAssessmentsforHeartFailureFHIR","period":{"start":"2025-01-01","end":"2025-12-31"},"group":[{"population":[{"code":{"coding":[{"system":"http://terminology.hl7.org/CodeSystem/measure-population","code":"initial-population","display":"Initial Population"}]},"count":1},{"code":{"coding":[{"system":"http://terminology.hl7.org/CodeSystem/measure-population","code":"denominator","display":"Denominator"}]},"count":1},{"code":{"coding":[{"system":"http://terminology.hl7.org/CodeSystem/measure-population","code":"denominator-exclusion","display":"Denominator Exclusion"}]},"count":0},{"code":{"coding":[{"system":"http://terminology.hl7.org/CodeSystem/measure-population","code":"numerator","display":"Numerator"}]},"count":0}]}]},"request":{"method":"PUT","url":"MeasureReport/7db0611d-1ec7-44fe-8d26-d263b3a62076"}}]}