{"resourceType":"Bundle","id":"tests-6ac7da1d-a713-4c07-a4d9-ccd11f1cb745-bundle","type":"transaction","entry":[{"fullUrl":"https://madie.cms.gov/Patient/6ac7da1d-a713-4c07-a4d9-ccd11f1cb745","resource":{"resourceType":"Patient","id":"6ac7da1d-a713-4c07-a4d9-ccd11f1cb745","meta":{"profile":["http://hl7.org/fhir/us/qicore/StructureDefinition/qicore-patient"]},"extension":[{"url":"http://hl7.org/fhir/us/core/StructureDefinition/us-core-race","extension":[{"url":"ombCategory","valueCoding":{"system":"urn:oid:2.16.840.1.113883.6.238","code":"2028-9","display":"Asian"}},{"url":"text","valueString":"Asian"}]},{"url":"http://hl7.org/fhir/us/core/StructureDefinition/us-core-ethnicity","extension":[{"url":"ombCategory","valueCoding":{"system":"urn:oid:2.16.840.1.113883.6.238","code":"2135-2","display":"Hispanic or Latino"}},{"url":"text","valueString":"Hispanic or Latino"}]}],"identifier":[{"system":"http://hospital.smarthealthit.org","value":"999999995"}],"name":[{"family":"Bertha","given":["Betty"]}],"gender":"female","birthDate":"2007-01-01"},"request":{"method":"PUT","url":"Patient/6ac7da1d-a713-4c07-a4d9-ccd11f1cb745"}},{"fullUrl":"https://madie.cms.gov/Encounter/Encounter-16","resource":{"resourceType":"Encounter","id":"167280d6-702d-4d00-999c-65f84b90eb19","meta":{"profile":["http://hl7.org/fhir/us/qicore/StructureDefinition/qicore-encounter"]},"status":"finished","class":{"system":"http://terminology.hl7.org/CodeSystem/v3-ActCode","code":"AMB","display":"ambulatory"},"type":[{"coding":[{"system":"http://snomed.info/sct","code":"185317003","display":"Telephone encounter (procedure)"}]}],"subject":{"reference":"Patient/6ac7da1d-a713-4c07-a4d9-ccd11f1cb745"},"period":{"start":"2025-01-01T01:00:00.000Z","end":"2025-01-01T01:15:00.000Z"}},"request":{"method":"PUT","url":"Encounter/167280d6-702d-4d00-999c-65f84b90eb19"}},{"fullUrl":"https://madie.cms.gov/Encounter/Encounter-17","resource":{"resourceType":"Encounter","id":"520821a5-c81f-442d-8b7c-ab4c48325cd1","meta":{"profile":["http://hl7.org/fhir/us/qicore/StructureDefinition/qicore-encounter"]},"status":"finished","class":{"system":"http://terminology.hl7.org/CodeSystem/v3-ActCode","code":"AMB","display":"ambulatory"},"type":[{"coding":[{"system":"http://snomed.info/sct","code":"185317003","display":"Telephone encounter (procedure)"}]}],"subject":{"reference":"Patient/6ac7da1d-a713-4c07-a4d9-ccd11f1cb745"},"period":{"start":"2025-01-02T01:00:00.000Z","end":"2025-01-02T01:15:00.000Z"}},"request":{"method":"PUT","url":"Encounter/520821a5-c81f-442d-8b7c-ab4c48325cd1"}},{"fullUrl":"https://madie.cms.gov/Condition/Condition-8","resource":{"resourceType":"Condition","id":"4a503845-7246-4b83-bc5f-0ca2d85c15db","meta":{"profile":["http://hl7.org/fhir/us/qicore/StructureDefinition/qicore-condition"]},"clinicalStatus":{"coding":[{"system":"http://terminology.hl7.org/CodeSystem/condition-clinical","code":"active"}]},"category":[{"coding":[{"system":"http://terminology.hl7.org/CodeSystem/condition-category","code":"problem-list-item","display":"Problem List Item"}]}],"code":{"coding":[{"system":"http://snomed.info/sct","code":"10091002","display":"High output heart failure (disorder)"}]},"subject":{"reference":"Patient/6ac7da1d-a713-4c07-a4d9-ccd11f1cb745"},"onsetDateTime":"2024-12-31T23:59:00.000Z"},"request":{"method":"PUT","url":"Condition/4a503845-7246-4b83-bc5f-0ca2d85c15db"}},{"fullUrl":"https://madie.cms.gov/Observation/Observation-10","resource":{"resourceType":"Observation","id":"a2eca94e-ba63-458b-8bbf-a8b83f04d810","meta":{"profile":["http://hl7.org/fhir/us/qicore/StructureDefinition/qicore-observation"]},"status":"final","category":[{"coding":[{"system":"http://terminology.hl7.org/CodeSystem/observation-category","code":"survey","display":"survey"}],"text":"survey"}],"code":{"coding":[{"system":"http://loinc.org","code":"71955-9","display":"PROMIS-29 Sleep disturbance score T-score"}]},"subject":{"reference":"Patient/6ac7da1d-a713-4c07-a4d9-ccd11f1cb745"},"effectivePeriod":{"start":"2025-01-01T23:00:00.000Z","end":"2025-01-01T23:59:00.000Z"},"valueInteger":1},"request":{"method":"PUT","url":"Observation/a2eca94e-ba63-458b-8bbf-a8b83f04d810"}},{"fullUrl":"https://madie.cms.gov/Observation/Observation-11","resource":{"resourceType":"Observation","id":"d4b990cf-5a6c-4e82-b0e9-4ca6e6390ae8","meta":{"profile":["http://hl7.org/fhir/us/qicore/StructureDefinition/qicore-observation"]},"status":"final","category":[{"coding":[{"system":"http://terminology.hl7.org/CodeSystem/observation-category","code":"survey","display":"survey"}],"text":"survey"}],"code":{"coding":[{"system":"http://loinc.org","code":"71957-5","display":"PROMIS-29 Satisfaction with participation in social roles score T-score"}]},"subject":{"reference":"Patient/6ac7da1d-a713-4c07-a4d9-ccd11f1cb745"},"effectivePeriod":{"start":"2025-01-01T23:00:00.000Z","end":"2025-01-01T23:59:00.000Z"},"valueInteger":2},"request":{"method":"PUT","url":"Observation/d4b990cf-5a6c-4e82-b0e9-4ca6e6390ae8"}},{"fullUrl":"https://madie.cms.gov/Observation/Observation-12","resource":{"resourceType":"Observation","id":"35314ec0-fbc7-443a-89f0-288f30e3ed8d","meta":{"profile":["http://hl7.org/fhir/us/qicore/StructureDefinition/qicore-observation"]},"status":"final","category":[{"coding":[{"system":"http://terminology.hl7.org/CodeSystem/observation-category","code":"survey","display":"survey"}],"text":"survey"}],"code":{"coding":[{"system":"http://loinc.org","code":"71955-9","display":"PROMIS-29 Sleep disturbance score T-score"}]},"subject":{"reference":"Patient/6ac7da1d-a713-4c07-a4d9-ccd11f1cb745"},"effectivePeriod":{"start":"2025-01-31T23:00:00.000Z","end":"2025-01-31T23:59:00.000Z"},"valueInteger":3},"request":{"method":"PUT","url":"Observation/35314ec0-fbc7-443a-89f0-288f30e3ed8d"}},{"fullUrl":"https://madie.cms.gov/Observation/Observation-13","resource":{"resourceType":"Observation","id":"1ee5ec86-4b93-4698-810b-91ffd14a1c4e","meta":{"profile":["http://hl7.org/fhir/us/qicore/StructureDefinition/qicore-observation"]},"status":"final","category":[{"coding":[{"system":"http://terminology.hl7.org/CodeSystem/observation-category","code":"survey","display":"survey"}],"text":"survey"}],"code":{"coding":[{"system":"http://loinc.org","code":"71957-5","display":"PROMIS-29 Satisfaction with participation in social roles score T-score"}]},"subject":{"reference":"Patient/6ac7da1d-a713-4c07-a4d9-ccd11f1cb745"},"effectivePeriod":{"start":"2025-01-31T23:00:00.000Z","end":"2025-01-31T23:59:00.000Z"},"valueInteger":4},"request":{"method":"PUT","url":"Observation/1ee5ec86-4b93-4698-810b-91ffd14a1c4e"}},{"fullUrl":"https://madie.cms.gov/Observation/Observation-14","resource":{"resourceType":"Observation","id":"153e3fb7-610a-4b35-b595-020cfb0ed9a2","meta":{"profile":["http://hl7.org/fhir/us/qicore/StructureDefinition/qicore-observation"]},"status":"final","category":[{"coding":[{"system":"http://terminology.hl7.org/CodeSystem/observation-category","code":"survey","display":"survey"}],"text":"survey"}],"code":{"coding":[{"system":"http://loinc.org","code":"71959-1","display":"PROMIS-29 Physical function score T-score"}]},"subject":{"reference":"Patient/6ac7da1d-a713-4c07-a4d9-ccd11f1cb745"},"effectivePeriod":{"start":"2025-01-01T23:00:00.000Z","end":"2025-01-01T23:59:00.000Z"},"valueInteger":4},"request":{"method":"PUT","url":"Observation/153e3fb7-610a-4b35-b595-020cfb0ed9a2"}},{"fullUrl":"https://madie.cms.gov/Observation/Observation-15","resource":{"resourceType":"Observation","id":"e93ec039-6ad2-4ca4-9649-08fd856facd0","meta":{"profile":["http://hl7.org/fhir/us/qicore/StructureDefinition/qicore-observation"]},"status":"final","category":[{"coding":[{"system":"http://terminology.hl7.org/CodeSystem/observation-category","code":"survey","display":"survey"}],"text":"survey"}],"code":{"coding":[{"system":"http://loinc.org","code":"71959-1","display":"PROMIS-29 Physical function score T-score"}]},"subject":{"reference":"Patient/6ac7da1d-a713-4c07-a4d9-ccd11f1cb745"},"effectivePeriod":{"start":"2025-01-31T23:00:00.000Z","end":"2025-01-31T23:59:00.000Z"},"valueInteger":4},"request":{"method":"PUT","url":"Observation/e93ec039-6ad2-4ca4-9649-08fd856facd0"}},{"fullUrl":"https://madie.cms.gov/Observation/Observation-16","resource":{"resourceType":"Observation","id":"55c0b961-cfcb-43e7-8e1a-a6c5897f81e9","meta":{"profile":["http://hl7.org/fhir/us/qicore/StructureDefinition/qicore-observation"]},"status":"final","category":[{"coding":[{"system":"http://terminology.hl7.org/CodeSystem/observation-category","code":"survey","display":"survey"}],"text":"survey"}],"code":{"coding":[{"system":"http://loinc.org","code":"71961-7","display":"PROMIS-29 Pain interference score T-score"}]},"subject":{"reference":"Patient/6ac7da1d-a713-4c07-a4d9-ccd11f1cb745"},"effectivePeriod":{"start":"2025-01-01T23:00:00.000Z","end":"2025-01-01T23:59:00.000Z"},"valueInteger":4},"request":{"method":"PUT","url":"Observation/55c0b961-cfcb-43e7-8e1a-a6c5897f81e9"}},{"fullUrl":"https://madie.cms.gov/Observation/Observation-17","resource":{"resourceType":"Observation","id":"5f186fcd-3aac-4594-af5d-163ae4a68ce8","meta":{"profile":["http://hl7.org/fhir/us/qicore/StructureDefinition/qicore-observation"]},"status":"final","category":[{"coding":[{"system":"http://terminology.hl7.org/CodeSystem/observation-category","code":"survey","display":"survey"}],"text":"survey"}],"code":{"coding":[{"system":"http://loinc.org","code":"71961-7","display":"PROMIS-29 Pain interference score T-score"}]},"subject":{"reference":"Patient/6ac7da1d-a713-4c07-a4d9-ccd11f1cb745"},"effectivePeriod":{"start":"2025-01-31T23:00:00.000Z","end":"2025-01-31T23:59:00.000Z"},"valueInteger":4},"request":{"method":"PUT","url":"Observation/5f186fcd-3aac-4594-af5d-163ae4a68ce8"}},{"fullUrl":"https://madie.cms.gov/Observation/Observation-18","resource":{"resourceType":"Observation","id":"49239988-5e8e-462e-965b-fdc54993a4a1","meta":{"profile":["http://hl7.org/fhir/us/qicore/StructureDefinition/qicore-observation"]},"status":"final","category":[{"coding":[{"system":"http://terminology.hl7.org/CodeSystem/observation-category","code":"survey","display":"survey"}],"text":"survey"}],"code":{"coding":[{"system":"http://loinc.org","code":"71963-3","display":"PROMIS-29 Fatigue score T-score"}]},"subject":{"reference":"Patient/6ac7da1d-a713-4c07-a4d9-ccd11f1cb745"},"effectivePeriod":{"start":"2025-01-01T23:00:00.000Z","end":"2025-01-01T23:59:00.000Z"},"valueInteger":4},"request":{"method":"PUT","url":"Observation/49239988-5e8e-462e-965b-fdc54993a4a1"}},{"fullUrl":"https://madie.cms.gov/Observation/Observation-19","resource":{"resourceType":"Observation","id":"cd9d8a55-b7e7-4f01-9f6c-3b79b7892eea","meta":{"profile":["http://hl7.org/fhir/us/qicore/StructureDefinition/qicore-observation"]},"status":"final","category":[{"coding":[{"system":"http://terminology.hl7.org/CodeSystem/observation-category","code":"survey","display":"survey"}],"text":"survey"}],"code":{"coding":[{"system":"http://loinc.org","code":"71963-3","display":"PROMIS-29 Fatigue score T-score"}]},"subject":{"reference":"Patient/6ac7da1d-a713-4c07-a4d9-ccd11f1cb745"},"effectivePeriod":{"start":"2025-01-31T23:00:00.000Z","end":"2025-01-31T23:59:00.000Z"},"valueInteger":4},"request":{"method":"PUT","url":"Observation/cd9d8a55-b7e7-4f01-9f6c-3b79b7892eea"}},{"fullUrl":"https://madie.cms.gov/Observation/Observation-20","resource":{"resourceType":"Observation","id":"2c7b4551-5125-4f26-81bc-5031cf87f9dc","meta":{"profile":["http://hl7.org/fhir/us/qicore/StructureDefinition/qicore-observation"]},"status":"final","category":[{"coding":[{"system":"http://terminology.hl7.org/CodeSystem/observation-category","code":"survey","display":"survey"}],"text":"survey"}],"code":{"coding":[{"system":"http://loinc.org","code":"71965-8","display":"PROMIS-29 Depression score T-score"}]},"subject":{"reference":"Patient/6ac7da1d-a713-4c07-a4d9-ccd11f1cb745"},"effectivePeriod":{"start":"2025-01-01T23:00:00.000Z","end":"2025-01-01T23:59:00.000Z"},"valueInteger":4},"request":{"method":"PUT","url":"Observation/2c7b4551-5125-4f26-81bc-5031cf87f9dc"}},{"fullUrl":"https://madie.cms.gov/Observation/Observation-21","resource":{"resourceType":"Observation","id":"e64d2929-e46e-4fc4-b9a0-caa19edcde10","meta":{"profile":["http://hl7.org/fhir/us/qicore/StructureDefinition/qicore-observation"]},"status":"final","category":[{"coding":[{"system":"http://terminology.hl7.org/CodeSystem/observation-category","code":"survey","display":"survey"}],"text":"survey"}],"code":{"coding":[{"system":"http://loinc.org","code":"71965-8","display":"PROMIS-29 Depression score T-score"}]},"subject":{"reference":"Patient/6ac7da1d-a713-4c07-a4d9-ccd11f1cb745"},"effectivePeriod":{"start":"2025-01-31T23:00:00.000Z","end":"2025-01-31T23:59:00.000Z"},"valueInteger":4},"request":{"method":"PUT","url":"Observation/e64d2929-e46e-4fc4-b9a0-caa19edcde10"}},{"fullUrl":"https://madie.cms.gov/MeasureReport/7a055549-f653-4667-b0ff-5f6026ba9326","resource":{"resourceType":"MeasureReport","id":"7a055549-f653-4667-b0ff-5f6026ba9326","meta":{"profile":["http://hl7.org/fhir/us/cqfmeasures/StructureDefinition/test-case-cqfm"]},"contained":[{"resourceType":"Parameters","id":"4d4629f9-671b-4ad8-baf8-6ea837a1515e-parameters","parameter":[{"name":"subject","valueString":"6ac7da1d-a713-4c07-a4d9-ccd11f1cb745"}]}],"extension":[{"url":"http://hl7.org/fhir/us/cqfmeasures/StructureDefinition/cqfm-inputParameters","valueReference":{"reference":"#4d4629f9-671b-4ad8-baf8-6ea837a1515e-parameters"}},{"url":"http://hl7.org/fhir/us/cqfmeasures/StructureDefinition/cqfm-testCaseDescription","valueMarkdown":"Patient has all FSA except for one PROMIS-29 Anxiety score T-score."}],"modifierExtension":[{"url":"http://hl7.org/fhir/us/cqfmeasures/StructureDefinition/cqfm-isTestCase","valueBoolean":true}],"status":"complete","type":"individual","measure":"https://madie.cms.gov/Measure/FunctionalStatusAssessmentsforHeartFailureFHIR","period":{"start":"2025-01-01","end":"2025-12-31"},"group":[{"population":[{"code":{"coding":[{"system":"http://terminology.hl7.org/CodeSystem/measure-population","code":"initial-population","display":"Initial Population"}]},"count":1},{"code":{"coding":[{"system":"http://terminology.hl7.org/CodeSystem/measure-population","code":"denominator","display":"Denominator"}]},"count":1},{"code":{"coding":[{"system":"http://terminology.hl7.org/CodeSystem/measure-population","code":"denominator-exclusion","display":"Denominator Exclusion"}]},"count":0},{"code":{"coding":[{"system":"http://terminology.hl7.org/CodeSystem/measure-population","code":"numerator","display":"Numerator"}]},"count":0}]}]},"request":{"method":"PUT","url":"MeasureReport/7a055549-f653-4667-b0ff-5f6026ba9326"}}]}