{
  "resourceType": "Bundle",
  "id": "63594c7a6aee9629c82981df",
  "type": "transaction",
  "entry": [ {
    "fullUrl": "https://madie.cms.gov/Patient/129c7e3c-f96b-4ce5-a77a-865216e4beef",
    "resource": {
      "resourceType": "Patient",
      "id": "129c7e3c-f96b-4ce5-a77a-865216e4beef",
      "meta": {
        "profile": [ "http://hl7.org/fhir/us/qicore/StructureDefinition/qicore-patient" ]
      },
      "text": {
        "status": "generated",
        "div": "<div xmlns=\"http://www.w3.org/1999/xhtml\"><div class=\"hapiHeaderText\">Risk_PreviousCesarean<b>RISKPass </b></div><table class=\"hapiPropertyTable\"><tbody><tr><td>Date of birth</td><td><span>01 February 2004</span></td></tr></tbody></table></div>"
      },
      "extension": [ {
        "url": "http://hl7.org/fhir/us/core/StructureDefinition/us-core-race",
        "extension": [ {
          "url": "ombCategory",
          "valueCoding": {
            "system": "urn:oid:2.16.840.1.113883.6.238",
            "code": "1002-5",
            "display": "American Indian or Alaska Native",
            "userSelected": true
          }
        }, {
          "url": "text",
          "valueString": "American Indian or Alaska Native"
        } ]
      }, {
        "url": "http://hl7.org/fhir/us/core/StructureDefinition/us-core-ethnicity",
        "extension": [ {
          "url": "ombCategory",
          "valueCoding": {
            "system": "urn:oid:2.16.840.1.113883.6.238",
            "code": "2135-2",
            "display": "Hispanic or Latino",
            "userSelected": true
          }
        }, {
          "url": "text",
          "valueString": "Hispanic or Latino"
        } ]
      } ],
      "identifier": [ {
        "type": {
          "coding": [ {
            "system": "http://terminology.hl7.org/CodeSystem/v2-0203",
            "code": "MR"
          } ]
        },
        "system": "https://bonnie-fhir.healthit.gov/",
        "value": "63594c7a6aee9629c82981df"
      } ],
      "active": true,
      "name": [ {
        "use": "usual",
        "family": "RiskPass",
        "given": [ "Risk_PreviousCesarean" ]
      } ],
      "gender": "female",
      "birthDate": "2004-02-01"
    },
    "request": {
      "method": "PUT",
      "url": "Patient/129c7e3c-f96b-4ce5-a77a-865216e4beef"
    }
  }, {
    "fullUrl": "https://madie.cms.gov/Observation/c7b3d0c8-c5f0-4ad6-b1c5-2158111944ae",
    "resource": {
      "resourceType": "Observation",
      "id": "c7b3d0c8-c5f0-4ad6-b1c5-2158111944ae",
      "meta": {
        "profile": [ "http://hl7.org/fhir/us/qicore/StructureDefinition/qicore-observation" ]
      },
      "status": "final",
      "category": [ {
        "coding": [ {
          "system": "http://terminology.hl7.org/CodeSystem/observation-category",
          "code": "exam",
          "display": "exam",
          "userSelected": true
        } ]
      } ],
      "code": {
        "coding": [ {
          "system": "http://loinc.org",
          "code": "93857-1"
        } ]
      },
      "subject": {
        "reference": "Patient/129c7e3c-f96b-4ce5-a77a-865216e4beef"
      },
      "effectiveDateTime": "2025-02-01T08:00:00.000+00:00",
      "valueDateTime": "2025-02-01T08:00:00+00:00"
    },
    "request": {
      "method": "PUT",
      "url": "Observation/c7b3d0c8-c5f0-4ad6-b1c5-2158111944ae"
    }
  }, {
    "fullUrl": "https://madie.cms.gov/Observation/e5d8d64b-e041-405f-81b8-50301010709a",
    "resource": {
      "resourceType": "Observation",
      "id": "e5d8d64b-e041-405f-81b8-50301010709a",
      "meta": {
        "profile": [ "http://hl7.org/fhir/us/qicore/StructureDefinition/qicore-observation" ]
      },
      "status": "final",
      "category": [ {
        "coding": [ {
          "system": "http://terminology.hl7.org/CodeSystem/observation-category",
          "code": "exam",
          "display": "exam",
          "userSelected": true
        } ]
      } ],
      "code": {
        "coding": [ {
          "system": "http://loinc.org",
          "code": "11778-8"
        } ]
      },
      "subject": {
        "reference": "Patient/129c7e3c-f96b-4ce5-a77a-865216e4beef"
      },
      "effectiveDateTime": "2025-02-01T08:00:00.000+00:00",
      "valueDateTime": "2025-02-01T00:00:00.000+00:00"
    },
    "request": {
      "method": "PUT",
      "url": "Observation/e5d8d64b-e041-405f-81b8-50301010709a"
    }
  }, {
    "fullUrl": "https://madie.cms.gov/Encounter/90652e4d-59fc-45da-89b8-b254409cf8b5",
    "resource": {
      "resourceType": "Encounter",
      "id": "90652e4d-59fc-45da-89b8-b254409cf8b5",
      "meta": {
        "profile": [ "http://hl7.org/fhir/us/qicore/StructureDefinition/qicore-encounter" ]
      },
      "status": "finished",
      "class": {
        "system": "http://terminology.hl7.org/CodeSystem/v3-ActCode",
        "code": "IMP",
        "display": "inpatient encounter"
      },
      "type": [ {
        "coding": [ {
          "system": "http://snomed.info/sct",
          "code": "183452005"
        } ]
      } ],
      "subject": {
        "reference": "Patient/129c7e3c-f96b-4ce5-a77a-865216e4beef"
      },
      "period": {
        "start": "2025-02-01T08:00:00.000Z",
        "end": "2025-02-05T08:15:00.000Z"
      },
      "diagnosis": [ {
        "extension": [ {
          "url": "http://hl7.org/fhir/us/qicore/StructureDefinition/qicore-encounter-diagnosisPresentOnAdmission",
          "valueCodeableConcept": {
            "coding": [ {
              "system": "https://www.cms.gov/Medicare/Medicare-Fee-for-Service-Payment/HospitalAcqCond/Coding",
              "code": "Y"
            } ]
          }
        } ],
        "condition": {
          "reference": "Condition/a5bce681-3c6e-4270-a7fe-95729115341b"
        }
      }, {
        "extension": [ {
          "url": "http://hl7.org/fhir/us/qicore/StructureDefinition/qicore-encounter-diagnosisPresentOnAdmission",
          "valueCodeableConcept": {
            "coding": [ {
              "system": "https://www.cms.gov/Medicare/Medicare-Fee-for-Service-Payment/HospitalAcqCond/Coding",
              "code": "N"
            } ]
          }
        } ],
        "condition": {
          "reference": "Condition/2db98bf5-063c-4d8d-9f73-dd557c193742"
        }
      } ]
    },
    "request": {
      "method": "PUT",
      "url": "Encounter/90652e4d-59fc-45da-89b8-b254409cf8b5"
    }
  }, {
    "fullUrl": "https://madie.cms.gov/Procedure/2d4402bb-07c5-4c90-b6dd-886903975b1d",
    "resource": {
      "resourceType": "Procedure",
      "id": "2d4402bb-07c5-4c90-b6dd-886903975b1d",
      "meta": {
        "profile": [ "http://hl7.org/fhir/us/qicore/StructureDefinition/qicore-procedure" ]
      },
      "extension": [ {
        "url": "http://hl7.org/fhir/us/qicore/StructureDefinition/qicore-recorded",
        "valueDateTime": "2013-04-05T09:35:00-04:00"
      } ],
      "status": "completed",
      "code": {
        "coding": [ {
          "system": "http://snomed.info/sct",
          "code": "10745001"
        } ]
      },
      "subject": {
        "reference": "Patient/129c7e3c-f96b-4ce5-a77a-865216e4beef"
      },
      "performedDateTime": "2025-02-01T08:00:00.000+00:00"
    },
    "request": {
      "method": "PUT",
      "url": "Procedure/2d4402bb-07c5-4c90-b6dd-886903975b1d"
    }
  }, {
    "fullUrl": "https://madie.cms.gov/Condition/2db98bf5-063c-4d8d-9f73-dd557c193742",
    "resource": {
      "resourceType": "Condition",
      "id": "2db98bf5-063c-4d8d-9f73-dd557c193742",
      "meta": {
        "profile": [ "http://hl7.org/fhir/us/qicore/StructureDefinition/qicore-condition" ]
      },
      "category": [ {
        "coding": [ {
          "system": "http://terminology.hl7.org/CodeSystem/condition-category",
          "code": "encounter-diagnosis",
          "display": "Encounter Diagnosis"
        } ]
      } ],
      "code": {
        "coding": [ {
          "system": "http://hl7.org/fhir/sid/icd-10-cm",
          "version": "2023",
          "code": "A32.7",
          "display": "Listerial sepsis",
          "userSelected": true
        } ]
      },
      "subject": {
        "reference": "Patient/129c7e3c-f96b-4ce5-a77a-865216e4beef"
      },
      "recordedDate": "2025-10-26T08:00:00.000+00:00"
    },
    "request": {
      "method": "PUT",
      "url": "Condition/2db98bf5-063c-4d8d-9f73-dd557c193742"
    }
  }, {
    "fullUrl": "https://madie.cms.gov/Condition/a5bce681-3c6e-4270-a7fe-95729115341b",
    "resource": {
      "resourceType": "Condition",
      "id": "a5bce681-3c6e-4270-a7fe-95729115341b",
      "meta": {
        "profile": [ "http://hl7.org/fhir/us/qicore/StructureDefinition/qicore-condition" ]
      },
      "category": [ {
        "coding": [ {
          "system": "http://terminology.hl7.org/CodeSystem/condition-category",
          "code": "encounter-diagnosis",
          "display": "Encounter Diagnosis"
        } ]
      } ],
      "code": {
        "coding": [ {
          "system": "http://hl7.org/fhir/sid/icd-10-cm",
          "version": "2023",
          "code": "O34.211",
          "display": "Previous PreviousCesarean",
          "userSelected": true
        } ]
      },
      "subject": {
        "reference": "Patient/129c7e3c-f96b-4ce5-a77a-865216e4beef"
      },
      "recordedDate": "2025-10-26T08:00:00.000+00:00"
    },
    "request": {
      "method": "PUT",
      "url": "Condition/a5bce681-3c6e-4270-a7fe-95729115341b"
    }
  }, {
    "fullUrl": "https://madie.cms.gov/MeasureReport/0c8b98b5-e99e-45c2-8d55-d14b73c4900d",
    "resource": {
      "resourceType": "MeasureReport",
      "id": "0c8b98b5-e99e-45c2-8d55-d14b73c4900d",
      "meta": {
        "profile": [ "http://hl7.org/fhir/us/cqfmeasures/StructureDefinition/test-case-cqfm" ]
      },
      "contained": [ {
        "resourceType": "Parameters",
        "id": "fbee8dca-4e90-4bd9-b6a1-b714b4ac8544-parameters",
        "parameter": [ {
          "name": "subject",
          "valueString": "129c7e3c-f96b-4ce5-a77a-865216e4beef"
        } ]
      } ],
      "extension": [ {
        "url": "http://hl7.org/fhir/us/cqfmeasures/StructureDefinition/cqfm-inputParameters",
        "valueReference": {
          "reference": "#fbee8dca-4e90-4bd9-b6a1-b714b4ac8544-parameters"
        }
      }, {
        "url": "http://hl7.org/fhir/us/cqfmeasures/StructureDefinition/cqfm-testCaseDescription",
        "valueMarkdown": "Risk variable of previous Cesarean.\n\n"
      } ],
      "modifierExtension": [ {
        "url": "http://hl7.org/fhir/us/cqfmeasures/StructureDefinition/cqfm-isTestCase",
        "valueBoolean": true
      } ],
      "status": "complete",
      "type": "individual",
      "measure": "https://madie.cms.gov/Measure/CMS1028FHIRPCSevereOBComps",
      "period": {
        "start": "2025-01-01",
        "end": "2025-12-31"
      },
      "group": [ {
        "population": [ {
          "code": {
            "coding": [ {
              "system": "http://terminology.hl7.org/CodeSystem/measure-population",
              "code": "initial-population",
              "display": "Initial Population"
            } ]
          },
          "count": 1
        }, {
          "code": {
            "coding": [ {
              "system": "http://terminology.hl7.org/CodeSystem/measure-population",
              "code": "denominator",
              "display": "Denominator"
            } ]
          },
          "count": 1
        }, {
          "code": {
            "coding": [ {
              "system": "http://terminology.hl7.org/CodeSystem/measure-population",
              "code": "numerator",
              "display": "Numerator"
            } ]
          },
          "count": 1
        }, {
          "code": {
            "coding": [ {
              "system": "http://terminology.hl7.org/CodeSystem/measure-population",
              "code": "numerator-exclusion",
              "display": "Numerator Exclusion"
            } ]
          },
          "count": 0
        } ]
      }, {
        "population": [ {
          "code": {
            "coding": [ {
              "system": "http://terminology.hl7.org/CodeSystem/measure-population",
              "code": "initial-population",
              "display": "Initial Population"
            } ]
          },
          "count": 1
        }, {
          "code": {
            "coding": [ {
              "system": "http://terminology.hl7.org/CodeSystem/measure-population",
              "code": "denominator",
              "display": "Denominator"
            } ]
          },
          "count": 1
        }, {
          "code": {
            "coding": [ {
              "system": "http://terminology.hl7.org/CodeSystem/measure-population",
              "code": "numerator",
              "display": "Numerator"
            } ]
          },
          "count": 1
        }, {
          "code": {
            "coding": [ {
              "system": "http://terminology.hl7.org/CodeSystem/measure-population",
              "code": "numerator-exclusion",
              "display": "Numerator Exclusion"
            } ]
          },
          "count": 0
        } ]
      } ],
      "evaluatedResource": [ {
        "reference": "Patient/129c7e3c-f96b-4ce5-a77a-865216e4beef"
      }, {
        "reference": "Observation/c7b3d0c8-c5f0-4ad6-b1c5-2158111944ae"
      }, {
        "reference": "Observation/e5d8d64b-e041-405f-81b8-50301010709a"
      }, {
        "reference": "Encounter/90652e4d-59fc-45da-89b8-b254409cf8b5"
      }, {
        "reference": "Procedure/2d4402bb-07c5-4c90-b6dd-886903975b1d"
      }, {
        "reference": "Condition/2db98bf5-063c-4d8d-9f73-dd557c193742"
      }, {
        "reference": "Condition/a5bce681-3c6e-4270-a7fe-95729115341b"
      } ]
    },
    "request": {
      "method": "PUT",
      "url": "MeasureReport/0c8b98b5-e99e-45c2-8d55-d14b73c4900d"
    }
  } ]
}