{"resourceType":"Bundle","id":"tests-6919fd23-aa69-4a1a-a07e-4752cdc53f46-bundle","type":"transaction","entry":[{"fullUrl":"https://madie.cms.gov/Patient/6919fd23-aa69-4a1a-a07e-4752cdc53f46","resource":{"resourceType":"Patient","id":"6919fd23-aa69-4a1a-a07e-4752cdc53f46","meta":{"profile":["http://hl7.org/fhir/us/qicore/StructureDefinition/qicore-patient"]},"extension":[{"url":"http://hl7.org/fhir/us/core/StructureDefinition/us-core-race","extension":[{"url":"ombCategory","valueCoding":{"system":"urn:oid:2.16.840.1.113883.6.238","code":"1002-5","display":"American Indian or Alaska Native"}},{"url":"text","valueString":"American Indian or Alaska Native"}]},{"url":"http://hl7.org/fhir/us/core/StructureDefinition/us-core-ethnicity","extension":[{"url":"ombCategory","valueCoding":{"system":"urn:oid:2.16.840.1.113883.6.238","code":"2186-5","display":"Not Hispanic or Latino"}},{"url":"text","valueString":"Not Hispanic or Latino"}]}],"identifier":[{"type":{"coding":[{"system":"http://terminology.hl7.org/CodeSystem/v2-0203","code":"MR"}]},"system":"https://bonnie-fhir.healthit.gov/","value":"984685135164568103"}],"active":true,"name":[{"use":"usual","family":"DENEXCEPPop2Pass","given":["Bradycardia "]}],"gender":"female","birthDate":"1922-03-24"},"request":{"method":"PUT","url":"Patient/6919fd23-aa69-4a1a-a07e-4752cdc53f46"}},{"fullUrl":"https://madie.cms.gov/Encounter/5c954d9bb848462de0ae6e76","resource":{"resourceType":"Encounter","id":"a9713da7-3bed-41dd-8687-9389944dae9a","meta":{"profile":["http://hl7.org/fhir/us/qicore/StructureDefinition/qicore-encounter"]},"status":"finished","class":{"system":"http://terminology.hl7.org/CodeSystem/v3-ActCode","code":"AMB","display":"ambulatory encounter"},"type":[{"coding":[{"system":"http://www.ama-assn.org/go/cpt","version":"2024","code":"99205"}]}],"subject":{"reference":"Patient/6919fd23-aa69-4a1a-a07e-4752cdc53f46"},"period":{"start":"2025-04-05T06:00:00+00:00","end":"2025-04-05T07:00:00+00:00"}},"request":{"method":"PUT","url":"Encounter/a9713da7-3bed-41dd-8687-9389944dae9a"}},{"fullUrl":"https://madie.cms.gov/Encounter/5c954d9bb848462de0ae6e77","resource":{"resourceType":"Encounter","id":"a443a963-073d-4b6c-94bb-daff0bbb6b00","meta":{"profile":["http://hl7.org/fhir/us/qicore/StructureDefinition/qicore-encounter"]},"status":"finished","class":{"system":"http://terminology.hl7.org/CodeSystem/v3-ActCode","code":"AMB","display":"ambulatory encounter"},"type":[{"coding":[{"system":"http://www.ama-assn.org/go/cpt","version":"2024","code":"99205"}]}],"subject":{"reference":"Patient/6919fd23-aa69-4a1a-a07e-4752cdc53f46"},"period":{"start":"2025-07-08T09:00:00+00:00","end":"2025-07-08T09:00:00+00:00"}},"request":{"method":"PUT","url":"Encounter/a443a963-073d-4b6c-94bb-daff0bbb6b00"}},{"fullUrl":"https://madie.cms.gov/Condition/87974613546431345348","resource":{"resourceType":"Condition","id":"187f1aa8-972b-4226-a0a5-b52b71808087","meta":{"profile":["http://hl7.org/fhir/us/qicore/StructureDefinition/qicore-condition"]},"clinicalStatus":{"coding":[{"system":"http://terminology.hl7.org/CodeSystem/condition-clinical","code":"active","display":"Active"}]},"verificationStatus":{"coding":[{"system":"http://terminology.hl7.org/CodeSystem/condition-ver-status","code":"confirmed","display":"Confirmed"}]},"category":[{"coding":[{"system":"http://terminology.hl7.org/CodeSystem/condition-category","code":"problem-list-item","display":"Problem List Item"}]}],"code":{"coding":[{"system":"http://hl7.org/fhir/sid/icd-10-cm","version":"2024","code":"I21.09"}]},"subject":{"reference":"Patient/6919fd23-aa69-4a1a-a07e-4752cdc53f46"},"onsetPeriod":{"start":"2025-04-05T06:00:00.000+00:00"}},"request":{"method":"PUT","url":"Condition/187f1aa8-972b-4226-a0a5-b52b71808087"}},{"fullUrl":"https://madie.cms.gov/Condition/6846516356463153","resource":{"resourceType":"Condition","id":"e127ee08-3f34-415f-be45-e903b9188f86","meta":{"profile":["http://hl7.org/fhir/us/qicore/StructureDefinition/qicore-condition"]},"clinicalStatus":{"coding":[{"system":"http://terminology.hl7.org/CodeSystem/condition-clinical","code":"active","display":"Active"}]},"verificationStatus":{"coding":[{"system":"http://terminology.hl7.org/CodeSystem/condition-ver-status","code":"confirmed","display":"Confirmed"}]},"category":[{"coding":[{"system":"http://terminology.hl7.org/CodeSystem/condition-category","code":"problem-list-item","display":"Problem List Item"}]}],"code":{"coding":[{"system":"http://snomed.info/sct","version":"http://snomed.info/sct/731000124108/version/20240301","code":"10365005","display":"Right main coronary artery thrombosis (disorder)"}]},"subject":{"reference":"Patient/6919fd23-aa69-4a1a-a07e-4752cdc53f46"},"onsetPeriod":{"start":"2025-04-05T06:00:00.000+00:00"}},"request":{"method":"PUT","url":"Condition/e127ee08-3f34-415f-be45-e903b9188f86"}},{"fullUrl":"https://madie.cms.gov/Condition/5c954d9bb848462de0ae6e75","resource":{"resourceType":"Condition","id":"3df8ddf7-d813-49dd-b113-f72e718aa730","meta":{"profile":["http://hl7.org/fhir/us/qicore/StructureDefinition/qicore-condition"]},"clinicalStatus":{"coding":[{"system":"http://terminology.hl7.org/CodeSystem/condition-clinical","code":"active","display":"Active"}]},"verificationStatus":{"coding":[{"system":"http://terminology.hl7.org/CodeSystem/condition-ver-status","code":"confirmed","display":"Confirmed"}]},"category":[{"coding":[{"system":"http://terminology.hl7.org/CodeSystem/condition-category","code":"problem-list-item","display":"Problem List Item"}]}],"code":{"coding":[{"system":"http://snomed.info/sct","version":"http://snomed.info/sct/731000124108/version/20240301","code":"29894000"}]},"subject":{"reference":"Patient/6919fd23-aa69-4a1a-a07e-4752cdc53f46"},"onsetDateTime":"2025-04-05T06:00:00+00:00"},"request":{"method":"PUT","url":"Condition/3df8ddf7-d813-49dd-b113-f72e718aa730"}},{"fullUrl":"https://madie.cms.gov/MeasureReport/240903de-ad72-4fc9-a677-b6f9ca7c4253","resource":{"resourceType":"MeasureReport","id":"240903de-ad72-4fc9-a677-b6f9ca7c4253","meta":{"profile":["http://hl7.org/fhir/us/cqfmeasures/StructureDefinition/test-case-cqfm"]},"contained":[{"resourceType":"Parameters","id":"a93c7bb8-6801-44fc-a303-a1efdb87cc61-parameters","parameter":[{"name":"subject","valueString":"6919fd23-aa69-4a1a-a07e-4752cdc53f46"}]}],"extension":[{"url":"http://hl7.org/fhir/us/cqfmeasures/StructureDefinition/cqfm-inputParameters","valueReference":{"reference":"#a93c7bb8-6801-44fc-a303-a1efdb87cc61-parameters"}},{"url":"http://hl7.org/fhir/us/cqfmeasures/StructureDefinition/cqfm-testCaseDescription","valueMarkdown":"Pt > 18, 2 amb. visits during MP, an MI and a CAD Dx (both with onset during 1st visit), and a Bradycardia Dx with onset during 1st visit"}],"modifierExtension":[{"url":"http://hl7.org/fhir/us/cqfmeasures/StructureDefinition/cqfm-isTestCase","valueBoolean":true}],"status":"complete","type":"individual","measure":"https://madie.cms.gov/Measure/CADBetaBlockerTherapyPriorMIorLVSDFHIR","period":{"start":"2025-01-01","end":"2025-12-31"},"group":[{"population":[{"code":{"coding":[{"system":"http://terminology.hl7.org/CodeSystem/measure-population","code":"initial-population","display":"Initial Population"}]},"count":1},{"code":{"coding":[{"system":"http://terminology.hl7.org/CodeSystem/measure-population","code":"denominator","display":"Denominator"}]},"count":0},{"code":{"coding":[{"system":"http://terminology.hl7.org/CodeSystem/measure-population","code":"numerator","display":"Numerator"}]},"count":0},{"code":{"coding":[{"system":"http://terminology.hl7.org/CodeSystem/measure-population","code":"denominator-exception","display":"Denominator Exception"}]},"count":0}]},{"population":[{"code":{"coding":[{"system":"http://terminology.hl7.org/CodeSystem/measure-population","code":"initial-population","display":"Initial Population"}]},"count":1},{"code":{"coding":[{"system":"http://terminology.hl7.org/CodeSystem/measure-population","code":"denominator","display":"Denominator"}]},"count":1},{"code":{"coding":[{"system":"http://terminology.hl7.org/CodeSystem/measure-population","code":"numerator","display":"Numerator"}]},"count":0},{"code":{"coding":[{"system":"http://terminology.hl7.org/CodeSystem/measure-population","code":"denominator-exception","display":"Denominator Exception"}]},"count":1}]}]},"request":{"method":"PUT","url":"MeasureReport/240903de-ad72-4fc9-a677-b6f9ca7c4253"}}]}