{"resourceType":"Bundle","id":"tests-12fda733-0b5d-4f3d-93b2-59c35ba85898-bundle","type":"transaction","entry":[{"fullUrl":"https://madie.cms.gov/Patient/12fda733-0b5d-4f3d-93b2-59c35ba85898","resource":{"resourceType":"Patient","id":"12fda733-0b5d-4f3d-93b2-59c35ba85898","meta":{"profile":["http://hl7.org/fhir/us/qicore/StructureDefinition/qicore-patient"]},"extension":[{"url":"http://hl7.org/fhir/us/core/StructureDefinition/us-core-race","extension":[{"url":"ombCategory","valueCoding":{"system":"urn:oid:2.16.840.1.113883.6.238","code":"1002-5","display":"American Indian or Alaska Native"}},{"url":"text","valueString":"American Indian or Alaska Native"}]},{"url":"http://hl7.org/fhir/us/core/StructureDefinition/us-core-ethnicity","extension":[{"url":"ombCategory","valueCoding":{"system":"urn:oid:2.16.840.1.113883.6.238","code":"2186-5","display":"Not Hispanic or Latino"}},{"url":"text","valueString":"Not Hispanic or Latino"}]}],"identifier":[{"type":{"coding":[{"system":"http://terminology.hl7.org/CodeSystem/v2-0203","code":"MR"}]},"system":"https://bonnie-fhir.healthit.gov/","value":"781351684684116"}],"active":true,"name":[{"use":"usual","family":"NUMERPop1Pass","given":["ActiveBetaBlockerforLVSDStartsB4Enc"]}],"gender":"male","birthDate":"1967-12-14"},"request":{"method":"PUT","url":"Patient/12fda733-0b5d-4f3d-93b2-59c35ba85898"}},{"fullUrl":"https://madie.cms.gov/Encounter/879431341613","resource":{"resourceType":"Encounter","id":"fb7df290-ab98-483e-b654-2408d588a046","meta":{"profile":["http://hl7.org/fhir/us/qicore/StructureDefinition/qicore-encounter"]},"status":"finished","class":{"system":"http://terminology.hl7.org/CodeSystem/v3-ActCode","code":"AMB","display":"ambulatory"},"type":[{"coding":[{"system":"http://www.ama-assn.org/go/cpt","version":"2024","code":"99202","display":"Office or other outpatient visit for the evaluation and management of a new patient, which requires a medically appropriate history and/or examination and straightforward medical decision making. When using time for code selection, 15-29 minutes of total time is spent on the date of the encounter."}]}],"subject":{"reference":"Patient/12fda733-0b5d-4f3d-93b2-59c35ba85898"},"period":{"start":"2025-02-01T12:00:00+00:00","end":"2025-02-01T13:00:00+00:00"},"length":{"value":0,"unit":"days"}},"request":{"method":"PUT","url":"Encounter/fb7df290-ab98-483e-b654-2408d588a046"}},{"fullUrl":"https://madie.cms.gov/Encounter/316846186103030","resource":{"resourceType":"Encounter","id":"daf145db-749c-4214-b1f9-43cefe9dfd5d","meta":{"profile":["http://hl7.org/fhir/us/qicore/StructureDefinition/qicore-encounter"]},"status":"finished","class":{"system":"http://terminology.hl7.org/CodeSystem/v3-ActCode","code":"AMB","display":"ambulatory"},"type":[{"coding":[{"system":"http://www.ama-assn.org/go/cpt","version":"2024","code":"99212","display":"Office or other outpatient visit for the evaluation and management of an established patient, which requires a medically appropriate history and/or examination and straightforward medical decision making. When using time for code selection, 10-19 minutes of total time is spent on the date of the encounter."}]}],"subject":{"reference":"Patient/12fda733-0b5d-4f3d-93b2-59c35ba85898"},"period":{"start":"2025-10-15T12:15:00+00:00","end":"2025-10-15T13:15:00+00:00"},"length":{"value":0,"unit":"days"}},"request":{"method":"PUT","url":"Encounter/daf145db-749c-4214-b1f9-43cefe9dfd5d"}},{"fullUrl":"https://madie.cms.gov/Condition/35161651668474","resource":{"resourceType":"Condition","id":"e0c6c381-db45-4b35-b1db-c2e2cab5f086","meta":{"profile":["http://hl7.org/fhir/us/qicore/StructureDefinition/qicore-condition"]},"clinicalStatus":{"coding":[{"system":"http://terminology.hl7.org/CodeSystem/condition-clinical","code":"active","display":"Active"}]},"verificationStatus":{"coding":[{"system":"http://terminology.hl7.org/CodeSystem/condition-ver-status","code":"confirmed","display":"Confirmed"}]},"category":[{"coding":[{"system":"http://terminology.hl7.org/CodeSystem/condition-category","code":"problem-list-item","display":"Problem List Item"}]}],"severity":{"coding":[{"system":"http://snomed.info/sct","version":"http://snomed.info/sct/731000124108/version/20240301","code":"24484000","display":"Severe (severity modifier) (qualifier value)"}]},"code":{"coding":[{"system":"http://snomed.info/sct","version":"http://snomed.info/sct/731000124108/version/20240301","code":"134401001"}]},"subject":{"reference":"Patient/12fda733-0b5d-4f3d-93b2-59c35ba85898"},"onsetPeriod":{"start":"2025-01-31T12:00:00+00:00"}},"request":{"method":"PUT","url":"Condition/e0c6c381-db45-4b35-b1db-c2e2cab5f086"}},{"fullUrl":"https://madie.cms.gov/Condition/879846351646846","resource":{"resourceType":"Condition","id":"7ee50f47-0d6d-40e1-ad1f-71c4a5a09d5d","meta":{"profile":["http://hl7.org/fhir/us/qicore/StructureDefinition/qicore-condition"]},"clinicalStatus":{"coding":[{"system":"http://terminology.hl7.org/CodeSystem/condition-clinical","code":"active","display":"Active"}]},"verificationStatus":{"coding":[{"system":"http://terminology.hl7.org/CodeSystem/condition-ver-status","code":"confirmed","display":"Confirmed"}]},"category":[{"coding":[{"system":"http://terminology.hl7.org/CodeSystem/condition-category","code":"problem-list-item","display":"Problem List Item"}]}],"code":{"coding":[{"system":"http://snomed.info/sct","version":"http://snomed.info/sct/731000124108/version/20240301","code":"10365005","display":"Right main coronary artery thrombosis (disorder)"}]},"subject":{"reference":"Patient/12fda733-0b5d-4f3d-93b2-59c35ba85898"},"onsetPeriod":{"start":"2025-10-16T00:00:00+00:00"}},"request":{"method":"PUT","url":"Condition/7ee50f47-0d6d-40e1-ad1f-71c4a5a09d5d"}},{"fullUrl":"https://madie.cms.gov/Condition/13196416163163","resource":{"resourceType":"Condition","id":"0a3f0d7a-3180-4e18-a7d3-694006c69aff","meta":{"profile":["http://hl7.org/fhir/us/qicore/StructureDefinition/qicore-condition"]},"clinicalStatus":{"coding":[{"system":"http://terminology.hl7.org/CodeSystem/condition-clinical","code":"active","display":"Active"}]},"category":[{"coding":[{"system":"http://terminology.hl7.org/CodeSystem/condition-category","code":"problem-list-item","display":"Problem List Item"}]}],"code":{"coding":[{"system":"http://snomed.info/sct","version":"http://snomed.info/sct/731000124108/version/20240301","code":"441509002","display":"Cardiac pacemaker in situ"}]},"subject":{"reference":"Patient/12fda733-0b5d-4f3d-93b2-59c35ba85898"},"onsetPeriod":{"start":"2025-10-16T00:00:00+00:00"}},"request":{"method":"PUT","url":"Condition/0a3f0d7a-3180-4e18-a7d3-694006c69aff"}},{"fullUrl":"https://madie.cms.gov/MedicationRequest/8794135165461","resource":{"resourceType":"MedicationRequest","id":"4b0a747d-d759-47c4-a83e-a43c9577716b","meta":{"profile":["http://hl7.org/fhir/us/qicore/StructureDefinition/qicore-medicationrequest"]},"status":"active","intent":"order","medicationCodeableConcept":{"coding":[{"system":"http://www.nlm.nih.gov/research/umls/rxnorm","version":"04012024","code":"686924"}]},"subject":{"reference":"Patient/12fda733-0b5d-4f3d-93b2-59c35ba85898"},"authoredOn":"2025-01-01T12:00:00+00:00","requester":{"reference":"Practitioner/4784311316461"},"dosageInstruction":[{"timing":{"repeat":{"boundsPeriod":{"start":"2025-01-01T12:00:00+00:00"}}}}]},"request":{"method":"PUT","url":"MedicationRequest/4b0a747d-d759-47c4-a83e-a43c9577716b"}},{"fullUrl":"https://madie.cms.gov/Practitioner/4784311316461","resource":{"resourceType":"Practitioner","id":"1191472d-8652-427c-beeb-dc7ae86527ef","meta":{"profile":["http://hl7.org/fhir/us/qicore/StructureDefinition/qicore-practitioner"]},"identifier":[{"use":"temp","system":"urn:oid:2.16.840.1.113883.4.336","value":"Practitioner-23"}],"active":true,"name":[{"family":"Careful","given":["Adam"],"prefix":["Dr"]}],"address":[{"use":"home","line":["534 Erewhon St"],"city":"PleasantVille","state":"UT","postalCode":"84414"}],"qualification":[{"identifier":[{"system":"http://example.org/UniversityIdentifier","value":"12345"}],"code":{"coding":[{"system":"http://terminology.hl7.org/CodeSystem/v2-0360|2.7","code":"BS","display":"Bachelor of Science"}],"text":"Bachelor of Science"},"period":{"start":"1995"},"issuer":{"display":"Example University"}}]},"request":{"method":"PUT","url":"Practitioner/1191472d-8652-427c-beeb-dc7ae86527ef"}},{"fullUrl":"https://madie.cms.gov/Procedure/35464135131654","resource":{"resourceType":"Procedure","id":"9577d912-ba7b-4467-8c4f-6cf0b9c5c3b8","meta":{"profile":["http://hl7.org/fhir/us/qicore/StructureDefinition/qicore-procedure"]},"extension":[{"url":"http://hl7.org/fhir/us/qicore/StructureDefinition/qicore-recorded","valueDateTime":"2025-02-01T12:00:00+00:00"}],"status":"completed","code":{"coding":[{"system":"http://www.ama-assn.org/go/cpt","version":"2024","code":"33536"}]},"subject":{"reference":"Patient/12fda733-0b5d-4f3d-93b2-59c35ba85898"},"performedPeriod":{"start":"2025-02-01T12:00:00+00:00","end":"2025-02-01T12:00:00+00:00"}},"request":{"method":"PUT","url":"Procedure/9577d912-ba7b-4467-8c4f-6cf0b9c5c3b8"}},{"fullUrl":"https://madie.cms.gov/MeasureReport/91eadb04-5cb8-4d77-bc31-3cba3b1b2b86","resource":{"resourceType":"MeasureReport","id":"91eadb04-5cb8-4d77-bc31-3cba3b1b2b86","meta":{"profile":["http://hl7.org/fhir/us/cqfmeasures/StructureDefinition/test-case-cqfm"]},"contained":[{"resourceType":"Parameters","id":"81416683-fe99-417e-85fb-8559a2048224-parameters","parameter":[{"name":"subject","valueString":"12fda733-0b5d-4f3d-93b2-59c35ba85898"}]}],"extension":[{"url":"http://hl7.org/fhir/us/cqfmeasures/StructureDefinition/cqfm-inputParameters","valueReference":{"reference":"#81416683-fe99-417e-85fb-8559a2048224-parameters"}},{"url":"http://hl7.org/fhir/us/cqfmeasures/StructureDefinition/cqfm-testCaseDescription","valueMarkdown":"Pt > 18, 2 visits in MP, a CAD Encounter, Severe LVSD during MP but prior to both visits, and Beta Block Therapy is currently being taken"}],"modifierExtension":[{"url":"http://hl7.org/fhir/us/cqfmeasures/StructureDefinition/cqfm-isTestCase","valueBoolean":true}],"status":"complete","type":"individual","measure":"https://madie.cms.gov/Measure/CADBetaBlockerTherapyPriorMIorLVSDFHIR","period":{"start":"2025-01-01","end":"2025-12-31"},"group":[{"population":[{"code":{"coding":[{"system":"http://terminology.hl7.org/CodeSystem/measure-population","code":"initial-population","display":"Initial Population"}]},"count":1},{"code":{"coding":[{"system":"http://terminology.hl7.org/CodeSystem/measure-population","code":"denominator","display":"Denominator"}]},"count":1},{"code":{"coding":[{"system":"http://terminology.hl7.org/CodeSystem/measure-population","code":"numerator","display":"Numerator"}]},"count":1},{"code":{"coding":[{"system":"http://terminology.hl7.org/CodeSystem/measure-population","code":"denominator-exception","display":"Denominator Exception"}]},"count":0}]},{"population":[{"code":{"coding":[{"system":"http://terminology.hl7.org/CodeSystem/measure-population","code":"initial-population","display":"Initial Population"}]},"count":1},{"code":{"coding":[{"system":"http://terminology.hl7.org/CodeSystem/measure-population","code":"denominator","display":"Denominator"}]},"count":0},{"code":{"coding":[{"system":"http://terminology.hl7.org/CodeSystem/measure-population","code":"numerator","display":"Numerator"}]},"count":0},{"code":{"coding":[{"system":"http://terminology.hl7.org/CodeSystem/measure-population","code":"denominator-exception","display":"Denominator Exception"}]},"count":0}]}]},"request":{"method":"PUT","url":"MeasureReport/91eadb04-5cb8-4d77-bc31-3cba3b1b2b86"}}]}