{"resourceType":"Bundle","id":"tests-314e78ef-a347-41bb-bce3-4b4ed18999ad-bundle","type":"transaction","entry":[{"fullUrl":"https://madie.cms.gov/Patient/314e78ef-a347-41bb-bce3-4b4ed18999ad","resource":{"resourceType":"Patient","id":"314e78ef-a347-41bb-bce3-4b4ed18999ad","meta":{"profile":["http://hl7.org/fhir/us/qicore/StructureDefinition/qicore-patient"]},"extension":[{"url":"http://hl7.org/fhir/us/core/StructureDefinition/us-core-race","extension":[{"url":"ombCategory","valueCoding":{"system":"urn:oid:2.16.840.1.113883.6.238","code":"1002-5","display":"American Indian or Alaska Native"}},{"url":"text","valueString":"American Indian or Alaska Native"}]},{"url":"http://hl7.org/fhir/us/core/StructureDefinition/us-core-ethnicity","extension":[{"url":"ombCategory","valueCoding":{"system":"urn:oid:2.16.840.1.113883.6.238","code":"2186-5","display":"Not Hispanic or Latino"}},{"url":"text","valueString":"Not Hispanic or Latino"}]}],"identifier":[{"type":{"coding":[{"system":"http://terminology.hl7.org/CodeSystem/v2-0203","code":"MR"}]},"system":"https://bonnie-fhir.healthit.gov/","value":"6067458898086b57ea5aa56f"}],"active":true,"name":[{"use":"usual","family":"DENEXCEPPop1Pass","given":["Bradycardia "]}],"gender":"female","birthDate":"1922-03-24"},"request":{"method":"PUT","url":"Patient/314e78ef-a347-41bb-bce3-4b4ed18999ad"}},{"fullUrl":"https://madie.cms.gov/Encounter/5c954d9bb848462de0ae6e76","resource":{"resourceType":"Encounter","id":"15799e91-a03e-48ea-b83c-cff2646a5fd8","meta":{"profile":["http://hl7.org/fhir/us/qicore/StructureDefinition/qicore-encounter"]},"status":"finished","class":{"system":"http://terminology.hl7.org/CodeSystem/v3-ActCode","code":"AMB","display":"ambulatory encounter"},"type":[{"coding":[{"system":"http://www.ama-assn.org/go/cpt","version":"2024","code":"99205"}]}],"subject":{"reference":"Patient/314e78ef-a347-41bb-bce3-4b4ed18999ad"},"period":{"start":"2025-04-05T06:00:00+00:00","end":"2025-04-05T07:00:00+00:00"}},"request":{"method":"PUT","url":"Encounter/15799e91-a03e-48ea-b83c-cff2646a5fd8"}},{"fullUrl":"https://madie.cms.gov/Encounter/5c954d9bb848462de0ae6e77","resource":{"resourceType":"Encounter","id":"a2f2043e-a75b-4116-9de9-e712690f0f32","meta":{"profile":["http://hl7.org/fhir/us/qicore/StructureDefinition/qicore-encounter"]},"status":"finished","class":{"system":"http://terminology.hl7.org/CodeSystem/v3-ActCode","code":"AMB","display":"ambulatory encounter"},"type":[{"coding":[{"system":"http://www.ama-assn.org/go/cpt","version":"2024","code":"99205"}]}],"subject":{"reference":"Patient/314e78ef-a347-41bb-bce3-4b4ed18999ad"},"period":{"start":"2025-07-08T09:00:00+00:00","end":"2025-07-08T09:00:00+00:00"}},"request":{"method":"PUT","url":"Encounter/a2f2043e-a75b-4116-9de9-e712690f0f32"}},{"fullUrl":"https://madie.cms.gov/Condition/5c954d9bb848462de0ae6e75","resource":{"resourceType":"Condition","id":"b64dbc98-2e7a-479e-859b-03df71dffeb6","meta":{"profile":["http://hl7.org/fhir/us/qicore/StructureDefinition/qicore-condition"]},"clinicalStatus":{"coding":[{"system":"http://terminology.hl7.org/CodeSystem/condition-clinical","code":"active","display":"Active"}]},"verificationStatus":{"coding":[{"system":"http://terminology.hl7.org/CodeSystem/condition-ver-status","code":"confirmed","display":"Confirmed"}]},"category":[{"coding":[{"system":"http://terminology.hl7.org/CodeSystem/condition-category","code":"problem-list-item","display":"Problem List Item"}]}],"code":{"coding":[{"system":"http://snomed.info/sct","version":"http://snomed.info/sct/731000124108/version/20240301","code":"29894000"}]},"subject":{"reference":"Patient/314e78ef-a347-41bb-bce3-4b4ed18999ad"},"onsetPeriod":{"start":"2025-04-05T06:00:00+00:00"}},"request":{"method":"PUT","url":"Condition/b64dbc98-2e7a-479e-859b-03df71dffeb6"}},{"fullUrl":"https://madie.cms.gov/Condition/16849846513521","resource":{"resourceType":"Condition","id":"524ad07b-e0db-4c86-9dc7-190da3208cbd","meta":{"profile":["http://hl7.org/fhir/us/qicore/StructureDefinition/qicore-condition"]},"clinicalStatus":{"coding":[{"system":"http://terminology.hl7.org/CodeSystem/condition-clinical","code":"active","display":"Active"}]},"verificationStatus":{"coding":[{"system":"http://terminology.hl7.org/CodeSystem/condition-ver-status","code":"confirmed","display":"Confirmed"}]},"category":[{"coding":[{"system":"http://terminology.hl7.org/CodeSystem/condition-category","code":"problem-list-item","display":"Problem List Item"}]}],"code":{"coding":[{"system":"http://snomed.info/sct","version":"http://snomed.info/sct/731000124108/version/20240301","code":"981000124106","display":"Moderate left ventricular systolic dysfunction (disorder)"}]},"subject":{"reference":"Patient/314e78ef-a347-41bb-bce3-4b4ed18999ad"},"onsetPeriod":{"start":"2025-04-05T06:00:00.000+00:00"}},"request":{"method":"PUT","url":"Condition/524ad07b-e0db-4c86-9dc7-190da3208cbd"}},{"fullUrl":"https://madie.cms.gov/Condition/878135216854168416","resource":{"resourceType":"Condition","id":"a78f2e20-6078-4e2d-84ee-74664b92ad09","meta":{"profile":["http://hl7.org/fhir/us/qicore/StructureDefinition/qicore-condition"]},"clinicalStatus":{"coding":[{"system":"http://terminology.hl7.org/CodeSystem/condition-clinical","code":"active","display":"Active"}]},"verificationStatus":{"coding":[{"system":"http://terminology.hl7.org/CodeSystem/condition-ver-status","code":"confirmed","display":"Confirmed"}]},"category":[{"coding":[{"system":"http://terminology.hl7.org/CodeSystem/condition-category","code":"problem-list-item","display":"Problem List Item"}]}],"code":{"coding":[{"system":"http://snomed.info/sct","version":"http://snomed.info/sct/731000124108/version/20240301","code":"10365005","display":"Right main coronary artery thrombosis (disorder)"}]},"subject":{"reference":"Patient/314e78ef-a347-41bb-bce3-4b4ed18999ad"},"onsetPeriod":{"start":"2025-04-05T06:00:00.000+00:00"}},"request":{"method":"PUT","url":"Condition/a78f2e20-6078-4e2d-84ee-74664b92ad09"}},{"fullUrl":"https://madie.cms.gov/MeasureReport/51603193-deb2-4525-acb0-9a7d6aa5aa9f","resource":{"resourceType":"MeasureReport","id":"51603193-deb2-4525-acb0-9a7d6aa5aa9f","meta":{"profile":["http://hl7.org/fhir/us/cqfmeasures/StructureDefinition/test-case-cqfm"]},"contained":[{"resourceType":"Parameters","id":"ccb7a461-50e2-4afb-aadf-0403f1cadd81-parameters","parameter":[{"name":"subject","valueString":"314e78ef-a347-41bb-bce3-4b4ed18999ad"}]}],"extension":[{"url":"http://hl7.org/fhir/us/cqfmeasures/StructureDefinition/cqfm-inputParameters","valueReference":{"reference":"#ccb7a461-50e2-4afb-aadf-0403f1cadd81-parameters"}},{"url":"http://hl7.org/fhir/us/cqfmeasures/StructureDefinition/cqfm-testCaseDescription","valueMarkdown":"Pt > 18, 2 visits in MP, and Bradycardia, Moderate LVSD and CAD (all with onset during 1st visit)"}],"modifierExtension":[{"url":"http://hl7.org/fhir/us/cqfmeasures/StructureDefinition/cqfm-isTestCase","valueBoolean":true}],"status":"complete","type":"individual","measure":"https://madie.cms.gov/Measure/CADBetaBlockerTherapyPriorMIorLVSDFHIR","period":{"start":"2025-01-01","end":"2025-12-31"},"group":[{"population":[{"code":{"coding":[{"system":"http://terminology.hl7.org/CodeSystem/measure-population","code":"initial-population","display":"Initial Population"}]},"count":1},{"code":{"coding":[{"system":"http://terminology.hl7.org/CodeSystem/measure-population","code":"denominator","display":"Denominator"}]},"count":1},{"code":{"coding":[{"system":"http://terminology.hl7.org/CodeSystem/measure-population","code":"numerator","display":"Numerator"}]},"count":0},{"code":{"coding":[{"system":"http://terminology.hl7.org/CodeSystem/measure-population","code":"denominator-exception","display":"Denominator Exception"}]},"count":1}]},{"population":[{"code":{"coding":[{"system":"http://terminology.hl7.org/CodeSystem/measure-population","code":"initial-population","display":"Initial Population"}]},"count":1},{"code":{"coding":[{"system":"http://terminology.hl7.org/CodeSystem/measure-population","code":"denominator","display":"Denominator"}]},"count":0},{"code":{"coding":[{"system":"http://terminology.hl7.org/CodeSystem/measure-population","code":"numerator","display":"Numerator"}]},"count":0},{"code":{"coding":[{"system":"http://terminology.hl7.org/CodeSystem/measure-population","code":"denominator-exception","display":"Denominator Exception"}]},"count":0}]}]},"request":{"method":"PUT","url":"MeasureReport/51603193-deb2-4525-acb0-9a7d6aa5aa9f"}}]}