{"resourceType":"Bundle","id":"tests-dbb4d4b0-06a5-4354-9dbc-072c01709a3a-bundle","type":"transaction","entry":[{"fullUrl":"https://madie.cms.gov/Patient/dbb4d4b0-06a5-4354-9dbc-072c01709a3a","resource":{"resourceType":"Patient","id":"dbb4d4b0-06a5-4354-9dbc-072c01709a3a","meta":{"profile":["http://hl7.org/fhir/us/qicore/StructureDefinition/qicore-patient"]},"extension":[{"url":"http://hl7.org/fhir/us/core/StructureDefinition/us-core-race","extension":[{"url":"ombCategory","valueCoding":{"system":"urn:oid:2.16.840.1.113883.6.238","code":"1002-5","display":"American Indian or Alaska Native"}},{"url":"text","valueString":"American Indian or Alaska Native"}]},{"url":"http://hl7.org/fhir/us/core/StructureDefinition/us-core-ethnicity","extension":[{"url":"ombCategory","valueCoding":{"system":"urn:oid:2.16.840.1.113883.6.238","code":"2186-5","display":"Not Hispanic or Latino"}},{"url":"text","valueString":"Not Hispanic or Latino"}]}],"identifier":[{"type":{"coding":[{"system":"http://terminology.hl7.org/CodeSystem/v2-0203","code":"MR"}]},"system":"https://bonnie-fhir.healthit.gov/","value":"4987465161613131321"}],"active":true,"name":[{"use":"usual","family":"DENEXCEPPop2Pass","given":["BetaBlockerAllergy"]}],"gender":"female","birthDate":"1922-03-24"},"request":{"method":"PUT","url":"Patient/dbb4d4b0-06a5-4354-9dbc-072c01709a3a"}},{"fullUrl":"https://madie.cms.gov/Encounter/879413541511210325","resource":{"resourceType":"Encounter","id":"c4395c49-bdf3-4d77-afee-b5c319fcde86","meta":{"profile":["http://hl7.org/fhir/us/qicore/StructureDefinition/qicore-encounter"]},"status":"finished","class":{"system":"http://terminology.hl7.org/CodeSystem/v3-ActCode","code":"AMB","display":"ambulatory encounter"},"type":[{"coding":[{"system":"http://www.ama-assn.org/go/cpt","version":"2024","code":"99205"}]}],"subject":{"reference":"Patient/dbb4d4b0-06a5-4354-9dbc-072c01709a3a"},"period":{"start":"2025-04-05T06:00:00+00:00","end":"2025-04-05T07:00:00+00:00"}},"request":{"method":"PUT","url":"Encounter/c4395c49-bdf3-4d77-afee-b5c319fcde86"}},{"fullUrl":"https://madie.cms.gov/Encounter/65481651654651351","resource":{"resourceType":"Encounter","id":"3c053f20-eb6f-4ea6-a4ff-6cc7ad6ba0c7","meta":{"profile":["http://hl7.org/fhir/us/qicore/StructureDefinition/qicore-encounter"]},"status":"finished","class":{"system":"http://terminology.hl7.org/CodeSystem/v3-ActCode","code":"AMB","display":"ambulatory encounter"},"type":[{"coding":[{"system":"http://www.ama-assn.org/go/cpt","version":"2024","code":"99205"}]}],"subject":{"reference":"Patient/dbb4d4b0-06a5-4354-9dbc-072c01709a3a"},"period":{"start":"2025-07-08T09:00:00+00:00","end":"2025-07-08T09:00:00+00:00"}},"request":{"method":"PUT","url":"Encounter/3c053f20-eb6f-4ea6-a4ff-6cc7ad6ba0c7"}},{"fullUrl":"https://madie.cms.gov/Condition/89132515212113152","resource":{"resourceType":"Condition","id":"11ba980f-6426-439f-8f5e-30b6d4c99346","meta":{"profile":["http://hl7.org/fhir/us/qicore/StructureDefinition/qicore-condition"]},"clinicalStatus":{"coding":[{"system":"http://terminology.hl7.org/CodeSystem/condition-clinical","code":"active","display":"Active"}]},"verificationStatus":{"coding":[{"system":"http://terminology.hl7.org/CodeSystem/condition-ver-status","code":"confirmed","display":"Confirmed"}]},"category":[{"coding":[{"system":"http://terminology.hl7.org/CodeSystem/condition-category","code":"problem-list-item","display":"Problem List Item"}]}],"code":{"coding":[{"system":"http://hl7.org/fhir/sid/icd-10-cm","version":"2024","code":"I21.01"}]},"subject":{"reference":"Patient/dbb4d4b0-06a5-4354-9dbc-072c01709a3a"},"onsetPeriod":{"start":"2022-11-22T07:30:00+00:00","end":"2022-11-22T08:30:00+00:00"}},"request":{"method":"PUT","url":"Condition/11ba980f-6426-439f-8f5e-30b6d4c99346"}},{"fullUrl":"https://madie.cms.gov/Condition/65164613513153574","resource":{"resourceType":"Condition","id":"c252d0b1-c9c4-4a4e-8c50-2de62c47ab6f","meta":{"profile":["http://hl7.org/fhir/us/qicore/StructureDefinition/qicore-condition"]},"clinicalStatus":{"coding":[{"system":"http://terminology.hl7.org/CodeSystem/condition-clinical","code":"active","display":"Active"}]},"verificationStatus":{"coding":[{"system":"http://terminology.hl7.org/CodeSystem/condition-ver-status","code":"confirmed"}]},"category":[{"coding":[{"system":"http://terminology.hl7.org/CodeSystem/condition-category","code":"problem-list-item","display":"Problem List Item"}]}],"code":{"coding":[{"system":"http://snomed.info/sct","version":"http://snomed.info/sct/731000124108/version/20240301","code":"10365005","display":"Right main coronary artery thrombosis (disorder)"}]},"subject":{"reference":"Patient/dbb4d4b0-06a5-4354-9dbc-072c01709a3a"},"onsetPeriod":{"start":"2025-01-21T07:00:00.000+00:00"}},"request":{"method":"PUT","url":"Condition/c252d0b1-c9c4-4a4e-8c50-2de62c47ab6f"}},{"fullUrl":"https://madie.cms.gov/AllergyIntolerance/98798136494185781631","resource":{"resourceType":"AllergyIntolerance","id":"868ac874-5adb-4e09-a15b-e8f85d0124c8","meta":{"profile":["http://hl7.org/fhir/us/qicore/StructureDefinition/qicore-allergyintolerance"]},"clinicalStatus":{"coding":[{"system":"http://terminology.hl7.org/CodeSystem/allergyintolerance-clinical","code":"active"}]},"verificationStatus":{"coding":[{"system":"http://terminology.hl7.org/CodeSystem/allergyintolerance-verification","code":"confirmed"}]},"type":"allergy","criticality":"high","code":{"coding":[{"system":"http://www.nlm.nih.gov/research/umls/rxnorm","version":"04032023","code":"1202","display":"atenolol"}]},"patient":{"reference":"Patient/dbb4d4b0-06a5-4354-9dbc-072c01709a3a"},"onsetDateTime":"2021-10-01","recordedDate":"2021-10-01T14:00:00+00:00"},"request":{"method":"PUT","url":"AllergyIntolerance/868ac874-5adb-4e09-a15b-e8f85d0124c8"}},{"fullUrl":"https://madie.cms.gov/MeasureReport/5dd99b48-b1c1-4af6-8fd5-9bceb380abfe","resource":{"resourceType":"MeasureReport","id":"5dd99b48-b1c1-4af6-8fd5-9bceb380abfe","meta":{"profile":["http://hl7.org/fhir/us/cqfmeasures/StructureDefinition/test-case-cqfm"]},"contained":[{"resourceType":"Parameters","id":"89bfcb2a-6a3f-4ee4-b27f-677649093498-parameters","parameter":[{"name":"subject","valueString":"dbb4d4b0-06a5-4354-9dbc-072c01709a3a"}]}],"extension":[{"url":"http://hl7.org/fhir/us/cqfmeasures/StructureDefinition/cqfm-inputParameters","valueReference":{"reference":"#89bfcb2a-6a3f-4ee4-b27f-677649093498-parameters"}},{"url":"http://hl7.org/fhir/us/cqfmeasures/StructureDefinition/cqfm-testCaseDescription","valueMarkdown":"Pt > 18, 2 amb. visits during MP, a MI Dx with onset > 2 yrs before MP, a CAD Dx with onset during MP but before 1st visit, and a Beta Blocker allergy start > 3 years before MP and ongoing"}],"modifierExtension":[{"url":"http://hl7.org/fhir/us/cqfmeasures/StructureDefinition/cqfm-isTestCase","valueBoolean":true}],"status":"complete","type":"individual","measure":"https://madie.cms.gov/Measure/CADBetaBlockerTherapyPriorMIorLVSDFHIR","period":{"start":"2025-01-01","end":"2025-12-31"},"group":[{"population":[{"code":{"coding":[{"system":"http://terminology.hl7.org/CodeSystem/measure-population","code":"initial-population","display":"Initial Population"}]},"count":1},{"code":{"coding":[{"system":"http://terminology.hl7.org/CodeSystem/measure-population","code":"denominator","display":"Denominator"}]},"count":0},{"code":{"coding":[{"system":"http://terminology.hl7.org/CodeSystem/measure-population","code":"numerator","display":"Numerator"}]},"count":0},{"code":{"coding":[{"system":"http://terminology.hl7.org/CodeSystem/measure-population","code":"denominator-exception","display":"Denominator Exception"}]},"count":0}]},{"population":[{"code":{"coding":[{"system":"http://terminology.hl7.org/CodeSystem/measure-population","code":"initial-population","display":"Initial Population"}]},"count":1},{"code":{"coding":[{"system":"http://terminology.hl7.org/CodeSystem/measure-population","code":"denominator","display":"Denominator"}]},"count":1},{"code":{"coding":[{"system":"http://terminology.hl7.org/CodeSystem/measure-population","code":"numerator","display":"Numerator"}]},"count":0},{"code":{"coding":[{"system":"http://terminology.hl7.org/CodeSystem/measure-population","code":"denominator-exception","display":"Denominator Exception"}]},"count":1}]}]},"request":{"method":"PUT","url":"MeasureReport/5dd99b48-b1c1-4af6-8fd5-9bceb380abfe"}}]}