{"resourceType":"Bundle","id":"tests-1f70822b-c513-4c3a-8162-49f0bb9c914b-bundle","type":"transaction","entry":[{"fullUrl":"https://madie.cms.gov/Patient/1f70822b-c513-4c3a-8162-49f0bb9c914b","resource":{"resourceType":"Patient","id":"1f70822b-c513-4c3a-8162-49f0bb9c914b","meta":{"profile":["http://hl7.org/fhir/us/qicore/StructureDefinition/qicore-patient"]},"extension":[{"url":"http://hl7.org/fhir/us/core/StructureDefinition/us-core-race","extension":[{"url":"ombCategory","valueCoding":{"system":"urn:oid:2.16.840.1.113883.6.238","code":"1002-5","display":"American Indian or Alaska Native"}},{"url":"text","valueString":"American Indian or Alaska Native"}]},{"url":"http://hl7.org/fhir/us/core/StructureDefinition/us-core-ethnicity","extension":[{"url":"ombCategory","valueCoding":{"system":"urn:oid:2.16.840.1.113883.6.238","code":"2186-5","display":"Not Hispanic or Latino"}},{"url":"text","valueString":"Not Hispanic or Latino"}]}],"identifier":[{"type":{"coding":[{"system":"http://terminology.hl7.org/CodeSystem/v2-0203","code":"MR"}]},"system":"https://bonnie-fhir.healthit.gov/","value":"3241646431234134355"}],"active":true,"name":[{"use":"usual","family":"DENEXCEPPop2Pass","given":["Carvedilol25MGOralTabletPatRsn"]}],"gender":"male","birthDate":"1953-03-24"},"request":{"method":"PUT","url":"Patient/1f70822b-c513-4c3a-8162-49f0bb9c914b"}},{"fullUrl":"https://madie.cms.gov/Encounter/2134134133413121146","resource":{"resourceType":"Encounter","id":"14d72e93-c221-463b-b15a-db573d51fee0","meta":{"profile":["http://hl7.org/fhir/us/qicore/StructureDefinition/qicore-encounter"]},"status":"finished","class":{"system":"http://terminology.hl7.org/CodeSystem/v3-ActCode","code":"AMB","display":"ambulatory encounter"},"type":[{"coding":[{"system":"http://www.ama-assn.org/go/cpt","version":"2024","code":"99205"}]}],"subject":{"reference":"Patient/1f70822b-c513-4c3a-8162-49f0bb9c914b"},"period":{"start":"2025-04-05T06:00:00+00:00","end":"2025-04-05T07:00:00+00:00"}},"request":{"method":"PUT","url":"Encounter/14d72e93-c221-463b-b15a-db573d51fee0"}},{"fullUrl":"https://madie.cms.gov/Encounter/541633134134132131","resource":{"resourceType":"Encounter","id":"9968c39c-c784-4b2b-a8c9-fbfb4ffa934f","meta":{"profile":["http://hl7.org/fhir/us/qicore/StructureDefinition/qicore-encounter"]},"status":"finished","class":{"system":"http://terminology.hl7.org/CodeSystem/v3-ActCode","code":"AMB","display":"ambulatory encounter"},"type":[{"coding":[{"system":"http://www.ama-assn.org/go/cpt","version":"2024","code":"99205"}]}],"subject":{"reference":"Patient/1f70822b-c513-4c3a-8162-49f0bb9c914b"},"period":{"start":"2025-07-08T09:00:00+00:00","end":"2025-07-08T09:00:00+00:00"}},"request":{"method":"PUT","url":"Encounter/9968c39c-c784-4b2b-a8c9-fbfb4ffa934f"}},{"fullUrl":"https://madie.cms.gov/Condition/9675645313413413241","resource":{"resourceType":"Condition","id":"1fb39479-b5da-43ec-ba52-4761a0a3a7b4","meta":{"profile":["http://hl7.org/fhir/us/qicore/StructureDefinition/qicore-condition"]},"clinicalStatus":{"coding":[{"system":"http://terminology.hl7.org/CodeSystem/condition-clinical","code":"active","display":"Active"}]},"verificationStatus":{"coding":[{"system":"http://terminology.hl7.org/CodeSystem/condition-ver-status","code":"confirmed","display":"Confirmed"}]},"category":[{"coding":[{"system":"http://terminology.hl7.org/CodeSystem/condition-category","code":"problem-list-item","display":"Problem List Item"}]}],"code":{"coding":[{"system":"http://hl7.org/fhir/sid/icd-10-cm","version":"2024","code":"I21.01"}]},"subject":{"reference":"Patient/1f70822b-c513-4c3a-8162-49f0bb9c914b"},"onsetPeriod":{"start":"2022-11-22T07:30:00+00:00","end":"2022-11-22T08:30:00+00:00"}},"request":{"method":"PUT","url":"Condition/1fb39479-b5da-43ec-ba52-4761a0a3a7b4"}},{"fullUrl":"https://madie.cms.gov/Condition/4132415413164324152","resource":{"resourceType":"Condition","id":"0f7f26fd-71ed-4fe2-961e-efb211318e38","meta":{"profile":["http://hl7.org/fhir/us/qicore/StructureDefinition/qicore-condition"]},"clinicalStatus":{"coding":[{"system":"http://terminology.hl7.org/CodeSystem/condition-clinical","code":"active","display":"Active"}]},"verificationStatus":{"coding":[{"system":"http://terminology.hl7.org/CodeSystem/condition-ver-status","code":"confirmed"}]},"category":[{"coding":[{"system":"http://terminology.hl7.org/CodeSystem/condition-category","code":"problem-list-item","display":"Problem List Item"}]}],"code":{"coding":[{"system":"http://snomed.info/sct","version":"http://snomed.info/sct/731000124108/version/20240301","code":"10365005","display":"Right main coronary artery thrombosis (disorder)"}]},"subject":{"reference":"Patient/1f70822b-c513-4c3a-8162-49f0bb9c914b"},"onsetPeriod":{"start":"2025-01-21T07:00:00.000+00:00"}},"request":{"method":"PUT","url":"Condition/0f7f26fd-71ed-4fe2-961e-efb211318e38"}},{"fullUrl":"https://madie.cms.gov/MedicationRequest/3453453456434342342","resource":{"resourceType":"MedicationRequest","id":"7f0126a1-36f7-422e-9d1a-0a52e0c0a2d3","meta":{"profile":["http://hl7.org/fhir/us/qicore/StructureDefinition/qicore-mednotrequested"]},"status":"completed","intent":"order","doNotPerform":true,"medicationCodeableConcept":{"coding":[{"system":"http://www.nlm.nih.gov/research/umls/rxnorm","version":"04012024","code":"200033","display":"carvedilol 25 MG Oral Tablet"}]},"subject":{"reference":"Patient/1f70822b-c513-4c3a-8162-49f0bb9c914b"},"authoredOn":"2025-04-05T06:00:00+00:00","requester":{"reference":"Practitioner/32343131323232432"},"reasonCode":[{"coding":[{"system":"http://snomed.info/sct","version":"http://snomed.info/sct/731000124108/version/20230301","code":"406149000","display":"Medication declined (situation)"}]}]},"request":{"method":"PUT","url":"MedicationRequest/7f0126a1-36f7-422e-9d1a-0a52e0c0a2d3"}},{"fullUrl":"https://madie.cms.gov/Practitioner/32343131323232432","resource":{"resourceType":"Practitioner","id":"d6cbc183-fa4a-481f-9122-d6599df0a68d","meta":{"profile":["http://hl7.org/fhir/us/qicore/StructureDefinition/qicore-practitioner"]},"identifier":[{"use":"temp","system":"urn:oid:2.16.840.1.113883.4.336","value":"Practitioner-45"}],"active":true,"name":[{"family":"Strangelove","given":["Adam"],"prefix":["Dr"]}],"qualification":[{"identifier":[{"system":"http://example.org/UniversityIdentifier","value":"12345"}],"code":{"coding":[{"system":"http://terminology.hl7.org/CodeSystem/v2-0360|2.7","code":"BS","display":"Bachelor of Science"}],"text":"Bachelor of Science"},"period":{"start":"1995"},"issuer":{"display":"Example University"}}]},"request":{"method":"PUT","url":"Practitioner/d6cbc183-fa4a-481f-9122-d6599df0a68d"}},{"fullUrl":"https://madie.cms.gov/MeasureReport/65288259-a7e8-4411-a655-2b2521557fb7","resource":{"resourceType":"MeasureReport","id":"65288259-a7e8-4411-a655-2b2521557fb7","meta":{"profile":["http://hl7.org/fhir/us/cqfmeasures/StructureDefinition/test-case-cqfm"]},"contained":[{"resourceType":"Parameters","id":"037cc89b-6670-4889-8c0f-9530f564eb46-parameters","parameter":[{"name":"subject","valueString":"1f70822b-c513-4c3a-8162-49f0bb9c914b"}]}],"extension":[{"url":"http://hl7.org/fhir/us/cqfmeasures/StructureDefinition/cqfm-inputParameters","valueReference":{"reference":"#037cc89b-6670-4889-8c0f-9530f564eb46-parameters"}},{"url":"http://hl7.org/fhir/us/cqfmeasures/StructureDefinition/cqfm-testCaseDescription","valueMarkdown":"Pt > 18, 2 visits in MP, MI onset > 2 years b4 MP, CAD onset during MP b4 1st visit, and med not ordered during 1st visit - patient reason *CQL-Execution Issue 296*"}],"modifierExtension":[{"url":"http://hl7.org/fhir/us/cqfmeasures/StructureDefinition/cqfm-isTestCase","valueBoolean":true}],"status":"complete","type":"individual","measure":"https://madie.cms.gov/Measure/CADBetaBlockerTherapyPriorMIorLVSDFHIR","period":{"start":"2025-01-01","end":"2025-12-31"},"group":[{"population":[{"code":{"coding":[{"system":"http://terminology.hl7.org/CodeSystem/measure-population","code":"initial-population","display":"Initial Population"}]},"count":1},{"code":{"coding":[{"system":"http://terminology.hl7.org/CodeSystem/measure-population","code":"denominator","display":"Denominator"}]},"count":0},{"code":{"coding":[{"system":"http://terminology.hl7.org/CodeSystem/measure-population","code":"numerator","display":"Numerator"}]},"count":0},{"code":{"coding":[{"system":"http://terminology.hl7.org/CodeSystem/measure-population","code":"denominator-exception","display":"Denominator Exception"}]},"count":0}]},{"population":[{"code":{"coding":[{"system":"http://terminology.hl7.org/CodeSystem/measure-population","code":"initial-population","display":"Initial Population"}]},"count":1},{"code":{"coding":[{"system":"http://terminology.hl7.org/CodeSystem/measure-population","code":"denominator","display":"Denominator"}]},"count":1},{"code":{"coding":[{"system":"http://terminology.hl7.org/CodeSystem/measure-population","code":"numerator","display":"Numerator"}]},"count":0},{"code":{"coding":[{"system":"http://terminology.hl7.org/CodeSystem/measure-population","code":"denominator-exception","display":"Denominator Exception"}]},"count":0}]}]},"request":{"method":"PUT","url":"MeasureReport/65288259-a7e8-4411-a655-2b2521557fb7"}}]}