{"resourceType":"Bundle","id":"tests-fdbc9919-4ab0-446a-8c0b-29ac687d8d3b-bundle","type":"transaction","entry":[{"fullUrl":"https://madie.cms.gov/Patient/fdbc9919-4ab0-446a-8c0b-29ac687d8d3b","resource":{"resourceType":"Patient","id":"fdbc9919-4ab0-446a-8c0b-29ac687d8d3b","meta":{"profile":["http://hl7.org/fhir/us/qicore/StructureDefinition/qicore-patient"]},"extension":[{"url":"http://hl7.org/fhir/us/core/StructureDefinition/us-core-race","extension":[{"url":"ombCategory","valueCoding":{"system":"urn:oid:2.16.840.1.113883.6.238","code":"1002-5","display":"American Indian or Alaska Native"}},{"url":"text","valueString":"American Indian or Alaska Native"}]},{"url":"http://hl7.org/fhir/us/core/StructureDefinition/us-core-ethnicity","extension":[{"url":"ombCategory","valueCoding":{"system":"urn:oid:2.16.840.1.113883.6.238","code":"2186-5","display":"Not Hispanic or Latino"}},{"url":"text","valueString":"Not Hispanic or Latino"}]}],"identifier":[{"type":{"coding":[{"system":"http://terminology.hl7.org/CodeSystem/v2-0203","code":"MR"}]},"system":"https://bonnie-fhir.healthit.gov/","value":"6549456436453423"}],"active":true,"name":[{"use":"usual","family":"DENEXCEPPop1Pass","given":["ConsecHeartRatesLT50"]}],"gender":"male","birthDate":"1946-03-24"},"request":{"method":"PUT","url":"Patient/fdbc9919-4ab0-446a-8c0b-29ac687d8d3b"}},{"fullUrl":"https://madie.cms.gov/Encounter/3456463416434641342532","resource":{"resourceType":"Encounter","id":"04043853-d1d3-4b15-b2a3-341747d4c608","meta":{"profile":["http://hl7.org/fhir/us/qicore/StructureDefinition/qicore-encounter"]},"status":"finished","class":{"system":"http://terminology.hl7.org/CodeSystem/v3-ActCode","code":"AMB","display":"ambulatory encounter"},"type":[{"coding":[{"system":"http://www.ama-assn.org/go/cpt","version":"2024","code":"99205"}]}],"subject":{"reference":"Patient/fdbc9919-4ab0-446a-8c0b-29ac687d8d3b"},"period":{"start":"2025-04-05T06:00:00+00:00","end":"2025-04-05T07:00:00+00:00"}},"request":{"method":"PUT","url":"Encounter/04043853-d1d3-4b15-b2a3-341747d4c608"}},{"fullUrl":"https://madie.cms.gov/Encounter/642945642364231263","resource":{"resourceType":"Encounter","id":"669333fa-d3f0-4ba5-805e-1671b6ea795b","meta":{"profile":["http://hl7.org/fhir/us/qicore/StructureDefinition/qicore-encounter"]},"status":"finished","class":{"system":"http://terminology.hl7.org/CodeSystem/v3-ActCode","code":"AMB","display":"ambulatory encounter"},"type":[{"coding":[{"system":"http://www.ama-assn.org/go/cpt","version":"2024","code":"99205"}]}],"subject":{"reference":"Patient/fdbc9919-4ab0-446a-8c0b-29ac687d8d3b"},"period":{"start":"2025-07-08T08:00:00+00:00","end":"2025-07-08T09:00:00+00:00"}},"request":{"method":"PUT","url":"Encounter/669333fa-d3f0-4ba5-805e-1671b6ea795b"}},{"fullUrl":"https://madie.cms.gov/Condition/5484567461345945613","resource":{"resourceType":"Condition","id":"b65ae5af-f841-45cf-8d05-1705a5abe4f0","meta":{"profile":["http://hl7.org/fhir/us/qicore/StructureDefinition/qicore-condition"]},"clinicalStatus":{"coding":[{"system":"http://terminology.hl7.org/CodeSystem/condition-clinical","code":"active","display":"Active"}]},"verificationStatus":{"coding":[{"system":"http://terminology.hl7.org/CodeSystem/condition-ver-status","code":"confirmed","display":"Confirmed"}]},"category":[{"coding":[{"system":"http://terminology.hl7.org/CodeSystem/condition-category","code":"problem-list-item","display":"Problem List Item"}]}],"code":{"coding":[{"system":"http://snomed.info/sct","version":"http://snomed.info/sct/731000124108/version/20240301","code":"981000124106","display":"Moderate left ventricular systolic dysfunction (disorder)"}]},"subject":{"reference":"Patient/fdbc9919-4ab0-446a-8c0b-29ac687d8d3b"},"onsetPeriod":{"start":"2025-04-05T06:00:00.000+00:00"}},"request":{"method":"PUT","url":"Condition/b65ae5af-f841-45cf-8d05-1705a5abe4f0"}},{"fullUrl":"https://madie.cms.gov/Condition/949531346345324634132","resource":{"resourceType":"Condition","id":"e67dfb0a-6f65-4e91-bcec-dcdbb8dae051","meta":{"profile":["http://hl7.org/fhir/us/qicore/StructureDefinition/qicore-condition"]},"clinicalStatus":{"coding":[{"system":"http://terminology.hl7.org/CodeSystem/condition-clinical","code":"active","display":"Active"}]},"verificationStatus":{"coding":[{"system":"http://terminology.hl7.org/CodeSystem/condition-ver-status","code":"confirmed","display":"Confirmed"}]},"category":[{"coding":[{"system":"http://terminology.hl7.org/CodeSystem/condition-category","code":"problem-list-item","display":"Problem List Item"}]}],"code":{"coding":[{"system":"http://snomed.info/sct","version":"http://snomed.info/sct/731000124108/version/20240301","code":"10365005","display":"Right main coronary artery thrombosis (disorder)"}]},"subject":{"reference":"Patient/fdbc9919-4ab0-446a-8c0b-29ac687d8d3b"},"onsetPeriod":{"start":"2025-04-05T06:00:00.000+00:00"}},"request":{"method":"PUT","url":"Condition/e67dfb0a-6f65-4e91-bcec-dcdbb8dae051"}},{"fullUrl":"https://madie.cms.gov/Observation/1654654642642356526","resource":{"resourceType":"Observation","id":"9cd0e45f-ca88-49b5-89d2-157f30a8da76","meta":{"profile":["http://hl7.org/fhir/StructureDefinition/heartrate"]},"status":"final","category":[{"coding":[{"system":"http://terminology.hl7.org/CodeSystem/observation-category","code":"vital-signs","display":"Vital Signs"}]}],"code":{"coding":[{"system":"http://loinc.org","version":"2.76","code":"8867-4"}]},"subject":{"reference":"Patient/fdbc9919-4ab0-446a-8c0b-29ac687d8d3b"},"effectiveDateTime":"2025-07-08T08:15:00+00:00","valueQuantity":{"value":40,"unit":"/min","system":"http://unitsofmeasure.org","code":"/min"}},"request":{"method":"PUT","url":"Observation/9cd0e45f-ca88-49b5-89d2-157f30a8da76"}},{"fullUrl":"https://madie.cms.gov/Observation/94564342342645342332","resource":{"resourceType":"Observation","id":"bba54a97-c3ce-4d83-8d68-524a0bac2973","meta":{"profile":["http://hl7.org/fhir/StructureDefinition/heartrate"]},"status":"final","category":[{"coding":[{"system":"http://terminology.hl7.org/CodeSystem/observation-category","code":"vital-signs","display":"Vital Signs"}]}],"code":{"coding":[{"system":"http://loinc.org","version":"2.76","code":"8867-4"}]},"subject":{"reference":"Patient/fdbc9919-4ab0-446a-8c0b-29ac687d8d3b"},"effectiveDateTime":"2025-07-08T08:30:00+00:00","valueQuantity":{"value":45,"unit":"/min","system":"http://unitsofmeasure.org","code":"/min"}},"request":{"method":"PUT","url":"Observation/bba54a97-c3ce-4d83-8d68-524a0bac2973"}},{"fullUrl":"https://madie.cms.gov/MeasureReport/24541687-54c3-4745-8fb8-85b610409239","resource":{"resourceType":"MeasureReport","id":"24541687-54c3-4745-8fb8-85b610409239","meta":{"profile":["http://hl7.org/fhir/us/cqfmeasures/StructureDefinition/test-case-cqfm"]},"contained":[{"resourceType":"Parameters","id":"27821908-3b95-4f48-80d9-660c09f1603f-parameters","parameter":[{"name":"subject","valueString":"fdbc9919-4ab0-446a-8c0b-29ac687d8d3b"}]}],"extension":[{"url":"http://hl7.org/fhir/us/cqfmeasures/StructureDefinition/cqfm-inputParameters","valueReference":{"reference":"#27821908-3b95-4f48-80d9-660c09f1603f-parameters"}},{"url":"http://hl7.org/fhir/us/cqfmeasures/StructureDefinition/cqfm-testCaseDescription","valueMarkdown":"Pt > 18, 2 visits during MP, Moderate LVSD and CAD (both with onset during 1st visit), and consecutive Heart Rates < 50 on day of 2nd visit"}],"modifierExtension":[{"url":"http://hl7.org/fhir/us/cqfmeasures/StructureDefinition/cqfm-isTestCase","valueBoolean":true}],"status":"complete","type":"individual","measure":"https://madie.cms.gov/Measure/CADBetaBlockerTherapyPriorMIorLVSDFHIR","period":{"start":"2025-01-01","end":"2025-12-31"},"group":[{"population":[{"code":{"coding":[{"system":"http://terminology.hl7.org/CodeSystem/measure-population","code":"initial-population","display":"Initial Population"}]},"count":1},{"code":{"coding":[{"system":"http://terminology.hl7.org/CodeSystem/measure-population","code":"denominator","display":"Denominator"}]},"count":1},{"code":{"coding":[{"system":"http://terminology.hl7.org/CodeSystem/measure-population","code":"numerator","display":"Numerator"}]},"count":0},{"code":{"coding":[{"system":"http://terminology.hl7.org/CodeSystem/measure-population","code":"denominator-exception","display":"Denominator Exception"}]},"count":1}]},{"population":[{"code":{"coding":[{"system":"http://terminology.hl7.org/CodeSystem/measure-population","code":"initial-population","display":"Initial Population"}]},"count":1},{"code":{"coding":[{"system":"http://terminology.hl7.org/CodeSystem/measure-population","code":"denominator","display":"Denominator"}]},"count":0},{"code":{"coding":[{"system":"http://terminology.hl7.org/CodeSystem/measure-population","code":"numerator","display":"Numerator"}]},"count":0},{"code":{"coding":[{"system":"http://terminology.hl7.org/CodeSystem/measure-population","code":"denominator-exception","display":"Denominator Exception"}]},"count":0}]}]},"request":{"method":"PUT","url":"MeasureReport/24541687-54c3-4745-8fb8-85b610409239"}}]}