{"resourceType":"Bundle","id":"tests-6cf089cd-0c1a-4e4f-b8d9-11c0db757c4b-bundle","type":"transaction","entry":[{"fullUrl":"https://madie.cms.gov/Patient/6cf089cd-0c1a-4e4f-b8d9-11c0db757c4b","resource":{"resourceType":"Patient","id":"6cf089cd-0c1a-4e4f-b8d9-11c0db757c4b","meta":{"profile":["http://hl7.org/fhir/us/qicore/StructureDefinition/qicore-patient"]},"extension":[{"url":"http://hl7.org/fhir/us/core/StructureDefinition/us-core-race","extension":[{"url":"ombCategory","valueCoding":{"system":"urn:oid:2.16.840.1.113883.6.238","code":"1002-5","display":"American Indian or Alaska Native"}},{"url":"text","valueString":"American Indian or Alaska Native"}]},{"url":"http://hl7.org/fhir/us/core/StructureDefinition/us-core-ethnicity","extension":[{"url":"ombCategory","valueCoding":{"system":"urn:oid:2.16.840.1.113883.6.238","code":"2186-5","display":"Not Hispanic or Latino"}},{"url":"text","valueString":"Not Hispanic or Latino"}]}],"identifier":[{"type":{"coding":[{"system":"http://terminology.hl7.org/CodeSystem/v2-0203","code":"MR"}]},"system":"https://bonnie-fhir.healthit.gov/","value":"576545341346746345"}],"active":true,"name":[{"use":"usual","family":"DENEXCEPPop2Pass","given":["ConsecHeartRatesLT50"]}],"gender":"male","birthDate":"1957-05-30"},"request":{"method":"PUT","url":"Patient/6cf089cd-0c1a-4e4f-b8d9-11c0db757c4b"}},{"fullUrl":"https://madie.cms.gov/Encounter/63464343432452425","resource":{"resourceType":"Encounter","id":"9eec0db7-4179-4249-beaa-04245da47845","meta":{"profile":["http://hl7.org/fhir/us/qicore/StructureDefinition/qicore-encounter"]},"status":"finished","class":{"system":"http://terminology.hl7.org/CodeSystem/v3-ActCode","code":"AMB","display":"ambulatory encounter"},"type":[{"coding":[{"system":"http://snomed.info/sct","version":"http://snomed.info/sct/731000124108/version/20240301","code":"209099002","display":"History and physical examination with management of domiciliary or rest home patient (procedure)"}]}],"subject":{"reference":"Patient/6cf089cd-0c1a-4e4f-b8d9-11c0db757c4b"},"period":{"start":"2025-04-05T06:00:00+00:00","end":"2025-04-05T07:00:00+00:00"}},"request":{"method":"PUT","url":"Encounter/9eec0db7-4179-4249-beaa-04245da47845"}},{"fullUrl":"https://madie.cms.gov/Encounter/4945964321341324132","resource":{"resourceType":"Encounter","id":"cccbbc16-c2c8-423e-aaae-2de8f7bab61e","meta":{"profile":["http://hl7.org/fhir/us/qicore/StructureDefinition/qicore-encounter"]},"status":"finished","class":{"system":"http://terminology.hl7.org/CodeSystem/v3-ActCode","code":"AMB","display":"ambulatory encounter"},"type":[{"coding":[{"system":"http://snomed.info/sct","version":"http://snomed.info/sct/731000124108/version/20240301","code":"209099002","display":"History and physical examination with management of domiciliary or rest home patient (procedure)"}]}],"subject":{"reference":"Patient/6cf089cd-0c1a-4e4f-b8d9-11c0db757c4b"},"period":{"start":"2025-07-08T09:00:00+00:00","end":"2025-07-08T10:00:00+00:00"}},"request":{"method":"PUT","url":"Encounter/cccbbc16-c2c8-423e-aaae-2de8f7bab61e"}},{"fullUrl":"https://madie.cms.gov/Condition/5246546346563433465","resource":{"resourceType":"Condition","id":"c4e3929a-7907-47ef-8745-64e954ac5252","meta":{"profile":["http://hl7.org/fhir/us/qicore/StructureDefinition/qicore-condition"]},"clinicalStatus":{"coding":[{"system":"http://terminology.hl7.org/CodeSystem/condition-clinical","code":"active","display":"Active"}]},"verificationStatus":{"coding":[{"system":"http://terminology.hl7.org/CodeSystem/condition-ver-status","code":"confirmed","display":"Confirmed"}]},"category":[{"coding":[{"system":"http://terminology.hl7.org/CodeSystem/condition-category","code":"problem-list-item","display":"Problem List Item"}]}],"code":{"coding":[{"system":"http://hl7.org/fhir/sid/icd-10-cm","version":"2024","code":"I21.01"}]},"subject":{"reference":"Patient/6cf089cd-0c1a-4e4f-b8d9-11c0db757c4b"},"onsetPeriod":{"start":"2022-11-22T07:30:00+00:00","end":"2022-11-22T08:30:00+00:00"}},"request":{"method":"PUT","url":"Condition/c4e3929a-7907-47ef-8745-64e954ac5252"}},{"fullUrl":"https://madie.cms.gov/Condition/68953343434343413","resource":{"resourceType":"Condition","id":"fe5a5316-dd17-4fee-96ed-1e556da25b9e","meta":{"profile":["http://hl7.org/fhir/us/qicore/StructureDefinition/qicore-condition"]},"clinicalStatus":{"coding":[{"system":"http://terminology.hl7.org/CodeSystem/condition-clinical","code":"active","display":"Active"}]},"verificationStatus":{"coding":[{"system":"http://terminology.hl7.org/CodeSystem/condition-ver-status","code":"confirmed"}]},"category":[{"coding":[{"system":"http://terminology.hl7.org/CodeSystem/condition-category","code":"problem-list-item","display":"Problem List Item"}]}],"code":{"coding":[{"system":"http://snomed.info/sct","version":"http://snomed.info/sct/731000124108/version/20240301","code":"10365005","display":"Right main coronary artery thrombosis (disorder)"}]},"subject":{"reference":"Patient/6cf089cd-0c1a-4e4f-b8d9-11c0db757c4b"},"onsetPeriod":{"start":"2025-01-21T07:00:00.000+00:00"}},"request":{"method":"PUT","url":"Condition/fe5a5316-dd17-4fee-96ed-1e556da25b9e"}},{"fullUrl":"https://madie.cms.gov/Observation/3416634646465124546","resource":{"resourceType":"Observation","id":"dbe22d79-b1d9-486c-80d3-49017b748b64","meta":{"profile":["http://hl7.org/fhir/StructureDefinition/heartrate"]},"status":"final","category":[{"coding":[{"system":"http://terminology.hl7.org/CodeSystem/observation-category","code":"vital-signs","display":"Vital Signs"}]}],"code":{"coding":[{"system":"http://loinc.org","version":"2.76","code":"8867-4"}]},"subject":{"reference":"Patient/6cf089cd-0c1a-4e4f-b8d9-11c0db757c4b"},"effectiveDateTime":"2025-07-08T09:15:00+00:00","valueQuantity":{"value":40,"unit":"/min","system":"http://unitsofmeasure.org","code":"/min"}},"request":{"method":"PUT","url":"Observation/dbe22d79-b1d9-486c-80d3-49017b748b64"}},{"fullUrl":"https://madie.cms.gov/Observation/6345645312563463226","resource":{"resourceType":"Observation","id":"7a617f79-871a-4ad0-aeb5-e871f10f6a67","meta":{"profile":["http://hl7.org/fhir/StructureDefinition/heartrate"]},"status":"final","category":[{"coding":[{"system":"http://terminology.hl7.org/CodeSystem/observation-category","code":"vital-signs","display":"Vital Signs"}]}],"code":{"coding":[{"system":"http://loinc.org","version":"2.76","code":"8867-4"}]},"subject":{"reference":"Patient/6cf089cd-0c1a-4e4f-b8d9-11c0db757c4b"},"effectiveDateTime":"2025-07-08T09:30:00+00:00","valueQuantity":{"value":45,"unit":"/min","system":"http://unitsofmeasure.org","code":"/min"}},"request":{"method":"PUT","url":"Observation/7a617f79-871a-4ad0-aeb5-e871f10f6a67"}},{"fullUrl":"https://madie.cms.gov/MeasureReport/801c8548-4ac5-4f38-9c69-85a6267ed7d7","resource":{"resourceType":"MeasureReport","id":"801c8548-4ac5-4f38-9c69-85a6267ed7d7","meta":{"profile":["http://hl7.org/fhir/us/cqfmeasures/StructureDefinition/test-case-cqfm"]},"contained":[{"resourceType":"Parameters","id":"e0abed80-684f-47bf-8e37-93f36d519cce-parameters","parameter":[{"name":"subject","valueString":"6cf089cd-0c1a-4e4f-b8d9-11c0db757c4b"}]}],"extension":[{"url":"http://hl7.org/fhir/us/cqfmeasures/StructureDefinition/cqfm-inputParameters","valueReference":{"reference":"#e0abed80-684f-47bf-8e37-93f36d519cce-parameters"}},{"url":"http://hl7.org/fhir/us/cqfmeasures/StructureDefinition/cqfm-testCaseDescription","valueMarkdown":"Pt > 18, 2 visits in MP, MI onset > 2 yrs b4 MP, CAD onset during MP b4 1st visit, and 2 consecutive heart rate readings on day of last visit < 50"}],"modifierExtension":[{"url":"http://hl7.org/fhir/us/cqfmeasures/StructureDefinition/cqfm-isTestCase","valueBoolean":true}],"status":"complete","type":"individual","measure":"https://madie.cms.gov/Measure/CADBetaBlockerTherapyPriorMIorLVSDFHIR","period":{"start":"2025-01-01","end":"2025-12-31"},"group":[{"population":[{"code":{"coding":[{"system":"http://terminology.hl7.org/CodeSystem/measure-population","code":"initial-population","display":"Initial Population"}]},"count":1},{"code":{"coding":[{"system":"http://terminology.hl7.org/CodeSystem/measure-population","code":"denominator","display":"Denominator"}]},"count":0},{"code":{"coding":[{"system":"http://terminology.hl7.org/CodeSystem/measure-population","code":"numerator","display":"Numerator"}]},"count":0},{"code":{"coding":[{"system":"http://terminology.hl7.org/CodeSystem/measure-population","code":"denominator-exception","display":"Denominator Exception"}]},"count":0}]},{"population":[{"code":{"coding":[{"system":"http://terminology.hl7.org/CodeSystem/measure-population","code":"initial-population","display":"Initial Population"}]},"count":1},{"code":{"coding":[{"system":"http://terminology.hl7.org/CodeSystem/measure-population","code":"denominator","display":"Denominator"}]},"count":1},{"code":{"coding":[{"system":"http://terminology.hl7.org/CodeSystem/measure-population","code":"numerator","display":"Numerator"}]},"count":0},{"code":{"coding":[{"system":"http://terminology.hl7.org/CodeSystem/measure-population","code":"denominator-exception","display":"Denominator Exception"}]},"count":1}]}]},"request":{"method":"PUT","url":"MeasureReport/801c8548-4ac5-4f38-9c69-85a6267ed7d7"}}]}