{"resourceType":"Bundle","id":"tests-f929563b-a5a0-4d55-9613-d75d383d3c6a-bundle","type":"transaction","entry":[{"fullUrl":"https://madie.cms.gov/Patient/f929563b-a5a0-4d55-9613-d75d383d3c6a","resource":{"resourceType":"Patient","id":"f929563b-a5a0-4d55-9613-d75d383d3c6a","meta":{"profile":["http://hl7.org/fhir/us/qicore/StructureDefinition/qicore-patient"]},"extension":[{"url":"http://hl7.org/fhir/us/core/StructureDefinition/us-core-race","extension":[{"url":"ombCategory","valueCoding":{"system":"urn:oid:2.16.840.1.113883.6.238","code":"1002-5","display":"American Indian or Alaska Native"}},{"url":"text","valueString":"American Indian or Alaska Native"}]},{"url":"http://hl7.org/fhir/us/core/StructureDefinition/us-core-ethnicity","extension":[{"url":"ombCategory","valueCoding":{"system":"urn:oid:2.16.840.1.113883.6.238","code":"2186-5","display":"Not Hispanic or Latino"}},{"url":"text","valueString":"Not Hispanic or Latino"}]}],"identifier":[{"type":{"coding":[{"system":"http://terminology.hl7.org/CodeSystem/v2-0203","code":"MR"}]},"system":"https://bonnie-fhir.healthit.gov/","value":"4513216841616563513"}],"active":true,"name":[{"use":"usual","family":"DENEXCEPPop1Pass","given":["AtrioBlock"]}],"gender":"female","birthDate":"1982-06-28"},"request":{"method":"PUT","url":"Patient/f929563b-a5a0-4d55-9613-d75d383d3c6a"}},{"fullUrl":"https://madie.cms.gov/Encounter/8496151651131521351","resource":{"resourceType":"Encounter","id":"698dfa60-b523-4d0a-a496-1cf11468874e","meta":{"profile":["http://hl7.org/fhir/us/qicore/StructureDefinition/qicore-encounter"]},"status":"finished","class":{"system":"http://terminology.hl7.org/CodeSystem/v3-ActCode","code":"AMB","display":"ambulatory encounter"},"type":[{"coding":[{"system":"http://www.ama-assn.org/go/cpt","version":"2024","code":"99205"}]}],"subject":{"reference":"Patient/f929563b-a5a0-4d55-9613-d75d383d3c6a"},"period":{"start":"2025-01-23T11:00:00.000+00:00","end":"2025-01-23T11:15:00.000+00:00"}},"request":{"method":"PUT","url":"Encounter/698dfa60-b523-4d0a-a496-1cf11468874e"}},{"fullUrl":"https://madie.cms.gov/Encounter/54646165461321145646","resource":{"resourceType":"Encounter","id":"b2f53c7e-33bf-4cf6-a934-e6c376a93eac","meta":{"profile":["http://hl7.org/fhir/us/qicore/StructureDefinition/qicore-encounter"]},"status":"finished","class":{"system":"http://terminology.hl7.org/CodeSystem/v3-ActCode","code":"AMB","display":"ambulatory encounter"},"type":[{"coding":[{"system":"http://www.ama-assn.org/go/cpt","version":"2024","code":"99203"}]}],"subject":{"reference":"Patient/f929563b-a5a0-4d55-9613-d75d383d3c6a"},"period":{"start":"2025-02-25T13:15:00+00:00","end":"2025-02-25T14:15:00+00:00"}},"request":{"method":"PUT","url":"Encounter/b2f53c7e-33bf-4cf6-a934-e6c376a93eac"}},{"fullUrl":"https://madie.cms.gov/Observation/8494651646113131313","resource":{"resourceType":"Observation","id":"97c723f8-e896-44d3-b96a-1120021ea3b8","meta":{"profile":["http://hl7.org/fhir/StructureDefinition/heartrate"]},"status":"final","category":[{"coding":[{"system":"http://terminology.hl7.org/CodeSystem/observation-category","code":"vital-signs","display":"Vital Signs"}]}],"code":{"coding":[{"system":"http://loinc.org","version":"2.76","code":"8867-4"}]},"subject":{"reference":"Patient/f929563b-a5a0-4d55-9613-d75d383d3c6a"},"effectiveDateTime":"2025-02-25T13:15:00+00:00","valueQuantity":{"value":25,"unit":"/min","system":"http://unitsofmeasure.org","code":"/min"}},"request":{"method":"PUT","url":"Observation/97c723f8-e896-44d3-b96a-1120021ea3b8"}},{"fullUrl":"https://madie.cms.gov/Observation/524165461649846511","resource":{"resourceType":"Observation","id":"c316f91f-a3a9-4d0a-a247-ea80cfe360dc","meta":{"profile":["http://hl7.org/fhir/StructureDefinition/heartrate"]},"status":"final","category":[{"coding":[{"system":"http://terminology.hl7.org/CodeSystem/observation-category","code":"vital-signs","display":"Vital Signs"}]}],"code":{"coding":[{"system":"http://loinc.org","version":"2.76","code":"8867-4"}]},"subject":{"reference":"Patient/f929563b-a5a0-4d55-9613-d75d383d3c6a"},"effectiveDateTime":"2025-02-25T18:15:00+00:00","valueQuantity":{"value":20,"unit":"/min","system":"http://unitsofmeasure.org","code":"/min"}},"request":{"method":"PUT","url":"Observation/c316f91f-a3a9-4d0a-a247-ea80cfe360dc"}},{"fullUrl":"https://madie.cms.gov/Condition/8461651648613151651","resource":{"resourceType":"Condition","id":"7837feb7-5d02-4156-98f3-30926bb7abce","meta":{"profile":["http://hl7.org/fhir/us/qicore/StructureDefinition/qicore-condition"]},"clinicalStatus":{"coding":[{"system":"http://terminology.hl7.org/CodeSystem/condition-clinical","code":"active","display":"Active"}]},"verificationStatus":{"coding":[{"system":"http://terminology.hl7.org/CodeSystem/condition-ver-status","code":"confirmed","display":"Confirmed"}]},"category":[{"coding":[{"system":"http://terminology.hl7.org/CodeSystem/condition-category","code":"problem-list-item","display":"Problem List Item"}]}],"code":{"coding":[{"system":"http://snomed.info/sct","version":"http://snomed.info/sct/731000124108/version/20240301","code":"981000124106","display":"Moderate left ventricular systolic dysfunction (disorder)"}]},"subject":{"reference":"Patient/f929563b-a5a0-4d55-9613-d75d383d3c6a"},"onsetPeriod":{"start":"2025-01-05T17:00:00.000+00:00","end":"2025-02-02T17:00:00.000+00:00"}},"request":{"method":"PUT","url":"Condition/7837feb7-5d02-4156-98f3-30926bb7abce"}},{"fullUrl":"https://madie.cms.gov/Condition/6164984964984651651","resource":{"resourceType":"Condition","id":"78d272f1-3ff4-47ed-a1fe-8e6d1d1b7b21","meta":{"profile":["http://hl7.org/fhir/us/qicore/StructureDefinition/qicore-condition"]},"clinicalStatus":{"coding":[{"system":"http://terminology.hl7.org/CodeSystem/condition-clinical","code":"active","display":"Active"}]},"verificationStatus":{"coding":[{"system":"http://terminology.hl7.org/CodeSystem/condition-ver-status","code":"confirmed","display":"Confirmed"}]},"category":[{"coding":[{"system":"http://terminology.hl7.org/CodeSystem/condition-category","code":"problem-list-item","display":"Problem List Item"}]}],"code":{"coding":[{"system":"http://snomed.info/sct","version":"http://snomed.info/sct/731000124108/version/20240301","code":"10365005","display":"Right main coronary artery thrombosis (disorder)"}]},"subject":{"reference":"Patient/f929563b-a5a0-4d55-9613-d75d383d3c6a"},"onsetPeriod":{"start":"2025-02-25T13:15:00.000+00:00","end":"2025-02-25T13:15:00.000+00:00"}},"request":{"method":"PUT","url":"Condition/78d272f1-3ff4-47ed-a1fe-8e6d1d1b7b21"}},{"fullUrl":"https://madie.cms.gov/Condition/1232135151313513854","resource":{"resourceType":"Condition","id":"b2ab1fe9-c67a-4de4-b40d-8e83ee584371","meta":{"profile":["http://hl7.org/fhir/us/qicore/StructureDefinition/qicore-condition"]},"clinicalStatus":{"coding":[{"system":"http://terminology.hl7.org/CodeSystem/condition-clinical","code":"active","display":"Active"}]},"verificationStatus":{"coding":[{"system":"http://terminology.hl7.org/CodeSystem/condition-ver-status","code":"confirmed","display":"Confirmed"}]},"category":[{"coding":[{"system":"http://terminology.hl7.org/CodeSystem/condition-category","code":"problem-list-item","display":"Problem List Item"}]}],"code":{"coding":[{"system":"http://hl7.org/fhir/sid/icd-10-cm","version":"2024","code":"I44.1"}]},"subject":{"reference":"Patient/f929563b-a5a0-4d55-9613-d75d383d3c6a"},"onsetPeriod":{"start":"2025-01-23T15:00:00+00:00"}},"request":{"method":"PUT","url":"Condition/b2ab1fe9-c67a-4de4-b40d-8e83ee584371"}},{"fullUrl":"https://madie.cms.gov/MeasureReport/264c54c2-30fc-415d-b5d2-6c667abc28b3","resource":{"resourceType":"MeasureReport","id":"264c54c2-30fc-415d-b5d2-6c667abc28b3","meta":{"profile":["http://hl7.org/fhir/us/cqfmeasures/StructureDefinition/test-case-cqfm"]},"contained":[{"resourceType":"Parameters","id":"9feb7746-bb1f-4f26-afc2-daf2b13648cb-parameters","parameter":[{"name":"subject","valueString":"f929563b-a5a0-4d55-9613-d75d383d3c6a"}]}],"extension":[{"url":"http://hl7.org/fhir/us/cqfmeasures/StructureDefinition/cqfm-inputParameters","valueReference":{"reference":"#9feb7746-bb1f-4f26-afc2-daf2b13648cb-parameters"}},{"url":"http://hl7.org/fhir/us/cqfmeasures/StructureDefinition/cqfm-testCaseDescription","valueMarkdown":"Pt > 18, 2 visits in MP, 2 heart rate checks during day of 2nd visit (earlier pulse 25 bpm, later pulse 20 bpm), moderate LVSD (onset b4 1st visit), CAD onset during 2nd visit,  AV Block after but day of 1st visit"}],"modifierExtension":[{"url":"http://hl7.org/fhir/us/cqfmeasures/StructureDefinition/cqfm-isTestCase","valueBoolean":true}],"status":"complete","type":"individual","measure":"https://madie.cms.gov/Measure/CADBetaBlockerTherapyPriorMIorLVSDFHIR","period":{"start":"2025-01-01","end":"2025-12-31"},"group":[{"population":[{"code":{"coding":[{"system":"http://terminology.hl7.org/CodeSystem/measure-population","code":"initial-population","display":"Initial Population"}]},"count":1},{"code":{"coding":[{"system":"http://terminology.hl7.org/CodeSystem/measure-population","code":"denominator","display":"Denominator"}]},"count":1},{"code":{"coding":[{"system":"http://terminology.hl7.org/CodeSystem/measure-population","code":"numerator","display":"Numerator"}]},"count":0},{"code":{"coding":[{"system":"http://terminology.hl7.org/CodeSystem/measure-population","code":"denominator-exception","display":"Denominator Exception"}]},"count":1}]},{"population":[{"code":{"coding":[{"system":"http://terminology.hl7.org/CodeSystem/measure-population","code":"initial-population","display":"Initial Population"}]},"count":1},{"code":{"coding":[{"system":"http://terminology.hl7.org/CodeSystem/measure-population","code":"denominator","display":"Denominator"}]},"count":0},{"code":{"coding":[{"system":"http://terminology.hl7.org/CodeSystem/measure-population","code":"numerator","display":"Numerator"}]},"count":0},{"code":{"coding":[{"system":"http://terminology.hl7.org/CodeSystem/measure-population","code":"denominator-exception","display":"Denominator Exception"}]},"count":0}]}]},"request":{"method":"PUT","url":"MeasureReport/264c54c2-30fc-415d-b5d2-6c667abc28b3"}}]}