{"resourceType":"Bundle","id":"tests-6919fd23-aa69-4a1a-a07e-4752cdc53f46-bundle","type":"transaction","entry":[{"fullUrl":"https://madie.cms.gov/Patient/6919fd23-aa69-4a1a-a07e-4752cdc53f46","resource":{"resourceType":"Patient","id":"6919fd23-aa69-4a1a-a07e-4752cdc53f46","meta":{"profile":["http://hl7.org/fhir/us/qicore/StructureDefinition/qicore-patient"]},"extension":[{"url":"http://hl7.org/fhir/us/core/StructureDefinition/us-core-race","extension":[{"url":"ombCategory","valueCoding":{"system":"urn:oid:2.16.840.1.113883.6.238","code":"1002-5","display":"American Indian or Alaska Native"}},{"url":"text","valueString":"American Indian or Alaska Native"}]},{"url":"http://hl7.org/fhir/us/core/StructureDefinition/us-core-ethnicity","extension":[{"url":"ombCategory","valueCoding":{"system":"urn:oid:2.16.840.1.113883.6.238","code":"2186-5","display":"Not Hispanic or Latino"}},{"url":"text","valueString":"Not Hispanic or Latino"}]}],"identifier":[{"type":{"coding":[{"system":"http://terminology.hl7.org/CodeSystem/v2-0203","code":"MR"}]},"system":"https://bonnie-fhir.healthit.gov/","value":"984685135164568103"}],"active":true,"name":[{"use":"usual","family":"DENEXCEPPop2Pass","given":["Bradycardia "]}],"gender":"female","birthDate":"1922-03-24"},"request":{"method":"PUT","url":"Patient/6919fd23-aa69-4a1a-a07e-4752cdc53f46"}},{"fullUrl":"https://madie.cms.gov/Encounter/5c954d9bb848462de0ae6e76","resource":{"resourceType":"Encounter","id":"6e72800b-1860-40b8-91a9-78a2b6534556","meta":{"profile":["http://hl7.org/fhir/us/qicore/StructureDefinition/qicore-encounter"]},"status":"finished","class":{"system":"http://terminology.hl7.org/CodeSystem/v3-ActCode","code":"AMB","display":"ambulatory encounter"},"type":[{"coding":[{"system":"http://www.ama-assn.org/go/cpt","version":"2024","code":"99205"}]}],"subject":{"reference":"Patient/6919fd23-aa69-4a1a-a07e-4752cdc53f46"},"period":{"start":"2025-04-05T06:00:00+00:00","end":"2025-04-05T07:00:00+00:00"}},"request":{"method":"PUT","url":"Encounter/6e72800b-1860-40b8-91a9-78a2b6534556"}},{"fullUrl":"https://madie.cms.gov/Encounter/5c954d9bb848462de0ae6e77","resource":{"resourceType":"Encounter","id":"60fb43d9-57ef-4f1a-b135-2bcef2c7ee72","meta":{"profile":["http://hl7.org/fhir/us/qicore/StructureDefinition/qicore-encounter"]},"status":"finished","class":{"system":"http://terminology.hl7.org/CodeSystem/v3-ActCode","code":"AMB","display":"ambulatory encounter"},"type":[{"coding":[{"system":"http://www.ama-assn.org/go/cpt","version":"2024","code":"99205"}]}],"subject":{"reference":"Patient/6919fd23-aa69-4a1a-a07e-4752cdc53f46"},"period":{"start":"2025-07-08T09:00:00+00:00","end":"2025-07-08T09:00:00+00:00"}},"request":{"method":"PUT","url":"Encounter/60fb43d9-57ef-4f1a-b135-2bcef2c7ee72"}},{"fullUrl":"https://madie.cms.gov/Condition/87974613546431345348","resource":{"resourceType":"Condition","id":"fd6ae4d4-106f-41ec-82b0-2c8c50896dfa","meta":{"profile":["http://hl7.org/fhir/us/qicore/StructureDefinition/qicore-condition"]},"clinicalStatus":{"coding":[{"system":"http://terminology.hl7.org/CodeSystem/condition-clinical","code":"active","display":"Active"}]},"verificationStatus":{"coding":[{"system":"http://terminology.hl7.org/CodeSystem/condition-ver-status","code":"confirmed","display":"Confirmed"}]},"category":[{"coding":[{"system":"http://terminology.hl7.org/CodeSystem/condition-category","code":"problem-list-item","display":"Problem List Item"}]}],"code":{"coding":[{"system":"http://hl7.org/fhir/sid/icd-10-cm","version":"2024","code":"I21.09"}]},"subject":{"reference":"Patient/6919fd23-aa69-4a1a-a07e-4752cdc53f46"},"onsetPeriod":{"start":"2025-04-05T06:00:00.000+00:00"}},"request":{"method":"PUT","url":"Condition/fd6ae4d4-106f-41ec-82b0-2c8c50896dfa"}},{"fullUrl":"https://madie.cms.gov/Condition/6846516356463153","resource":{"resourceType":"Condition","id":"ca760d3c-76e5-4a57-a627-b38e3c614316","meta":{"profile":["http://hl7.org/fhir/us/qicore/StructureDefinition/qicore-condition"]},"clinicalStatus":{"coding":[{"system":"http://terminology.hl7.org/CodeSystem/condition-clinical","code":"active","display":"Active"}]},"verificationStatus":{"coding":[{"system":"http://terminology.hl7.org/CodeSystem/condition-ver-status","code":"confirmed","display":"Confirmed"}]},"category":[{"coding":[{"system":"http://terminology.hl7.org/CodeSystem/condition-category","code":"problem-list-item","display":"Problem List Item"}]}],"code":{"coding":[{"system":"http://snomed.info/sct","version":"http://snomed.info/sct/731000124108/version/20240301","code":"10365005","display":"Right main coronary artery thrombosis (disorder)"}]},"subject":{"reference":"Patient/6919fd23-aa69-4a1a-a07e-4752cdc53f46"},"onsetPeriod":{"start":"2025-04-05T06:00:00.000+00:00"}},"request":{"method":"PUT","url":"Condition/ca760d3c-76e5-4a57-a627-b38e3c614316"}},{"fullUrl":"https://madie.cms.gov/Condition/5c954d9bb848462de0ae6e75","resource":{"resourceType":"Condition","id":"1bfcd500-a022-4ffa-bb76-687c78964b43","meta":{"profile":["http://hl7.org/fhir/us/qicore/StructureDefinition/qicore-condition"]},"clinicalStatus":{"coding":[{"system":"http://terminology.hl7.org/CodeSystem/condition-clinical","code":"active","display":"Active"}]},"verificationStatus":{"coding":[{"system":"http://terminology.hl7.org/CodeSystem/condition-ver-status","code":"confirmed","display":"Confirmed"}]},"category":[{"coding":[{"system":"http://terminology.hl7.org/CodeSystem/condition-category","code":"problem-list-item","display":"Problem List Item"}]}],"code":{"coding":[{"system":"http://snomed.info/sct","version":"http://snomed.info/sct/731000124108/version/20240301","code":"29894000"}]},"subject":{"reference":"Patient/6919fd23-aa69-4a1a-a07e-4752cdc53f46"},"onsetDateTime":"2025-04-05T06:00:00+00:00"},"request":{"method":"PUT","url":"Condition/1bfcd500-a022-4ffa-bb76-687c78964b43"}},{"fullUrl":"https://madie.cms.gov/MeasureReport/240903de-ad72-4fc9-a677-b6f9ca7c4253","resource":{"resourceType":"MeasureReport","id":"240903de-ad72-4fc9-a677-b6f9ca7c4253","meta":{"profile":["http://hl7.org/fhir/us/cqfmeasures/StructureDefinition/test-case-cqfm"]},"contained":[{"resourceType":"Parameters","id":"a93c7bb8-6801-44fc-a303-a1efdb87cc61-parameters","parameter":[{"name":"subject","valueString":"6919fd23-aa69-4a1a-a07e-4752cdc53f46"}]}],"extension":[{"url":"http://hl7.org/fhir/us/cqfmeasures/StructureDefinition/cqfm-inputParameters","valueReference":{"reference":"#a93c7bb8-6801-44fc-a303-a1efdb87cc61-parameters"}},{"url":"http://hl7.org/fhir/us/cqfmeasures/StructureDefinition/cqfm-testCaseDescription","valueMarkdown":"Pt > 18, 2 amb. visits during MP, an MI and a CAD Dx (both with onset during 1st visit), and a Bradycardia Dx with onset during 1st visit"}],"modifierExtension":[{"url":"http://hl7.org/fhir/us/cqfmeasures/StructureDefinition/cqfm-isTestCase","valueBoolean":true}],"status":"complete","type":"individual","measure":"https://madie.cms.gov/Measure/CADBetaBlockerTherapyPriorMIorLVSDFHIR","period":{"start":"2025-01-01","end":"2025-12-31"},"group":[{"population":[{"code":{"coding":[{"system":"http://terminology.hl7.org/CodeSystem/measure-population","code":"initial-population","display":"Initial Population"}]},"count":1},{"code":{"coding":[{"system":"http://terminology.hl7.org/CodeSystem/measure-population","code":"denominator","display":"Denominator"}]},"count":0},{"code":{"coding":[{"system":"http://terminology.hl7.org/CodeSystem/measure-population","code":"numerator","display":"Numerator"}]},"count":0},{"code":{"coding":[{"system":"http://terminology.hl7.org/CodeSystem/measure-population","code":"denominator-exception","display":"Denominator Exception"}]},"count":0}]},{"population":[{"code":{"coding":[{"system":"http://terminology.hl7.org/CodeSystem/measure-population","code":"initial-population","display":"Initial Population"}]},"count":1},{"code":{"coding":[{"system":"http://terminology.hl7.org/CodeSystem/measure-population","code":"denominator","display":"Denominator"}]},"count":1},{"code":{"coding":[{"system":"http://terminology.hl7.org/CodeSystem/measure-population","code":"numerator","display":"Numerator"}]},"count":0},{"code":{"coding":[{"system":"http://terminology.hl7.org/CodeSystem/measure-population","code":"denominator-exception","display":"Denominator Exception"}]},"count":1}]}]},"request":{"method":"PUT","url":"MeasureReport/240903de-ad72-4fc9-a677-b6f9ca7c4253"}}]}