{"resourceType":"Bundle","id":"tests-b65680a0-9768-4ce4-b08d-972fcd84e28e-bundle","type":"transaction","entry":[{"fullUrl":"https://madie.cms.gov/Patient/b65680a0-9768-4ce4-b08d-972fcd84e28e","resource":{"resourceType":"Patient","id":"b65680a0-9768-4ce4-b08d-972fcd84e28e","meta":{"profile":["http://hl7.org/fhir/us/qicore/StructureDefinition/qicore-patient"]},"extension":[{"url":"http://hl7.org/fhir/us/core/StructureDefinition/us-core-race","extension":[{"url":"ombCategory","valueCoding":{"system":"urn:oid:2.16.840.1.113883.6.238","code":"1002-5","display":"American Indian or Alaska Native"}},{"url":"text","valueString":"American Indian or Alaska Native"}]},{"url":"http://hl7.org/fhir/us/core/StructureDefinition/us-core-ethnicity","extension":[{"url":"ombCategory","valueCoding":{"system":"urn:oid:2.16.840.1.113883.6.238","code":"2186-5","display":"Not Hispanic or Latino"}},{"url":"text","valueString":"Not Hispanic or Latino"}]}],"identifier":[{"type":{"coding":[{"system":"http://terminology.hl7.org/CodeSystem/v2-0203","code":"MR"}]},"system":"https://bonnie-fhir.healthit.gov/","value":"1648416489461613"}],"active":true,"name":[{"use":"usual","family":"DENEXCEPPop2Pass","given":["BetaBlockerAllergyDiagnosis "]}],"gender":"female","birthDate":"1922-03-24"},"request":{"method":"PUT","url":"Patient/b65680a0-9768-4ce4-b08d-972fcd84e28e"}},{"fullUrl":"https://madie.cms.gov/Encounter/987984613541646153","resource":{"resourceType":"Encounter","id":"dc411da0-2733-45b5-a439-b3f52a26c9b7","meta":{"profile":["http://hl7.org/fhir/us/qicore/StructureDefinition/qicore-encounter"]},"status":"finished","class":{"system":"http://terminology.hl7.org/CodeSystem/v3-ActCode","code":"AMB","display":"ambulatory encounter"},"type":[{"coding":[{"system":"http://www.ama-assn.org/go/cpt","version":"2024","code":"99205"}]}],"subject":{"reference":"Patient/b65680a0-9768-4ce4-b08d-972fcd84e28e"},"period":{"start":"2025-04-05T06:00:00+00:00","end":"2025-04-05T07:00:00+00:00"}},"request":{"method":"PUT","url":"Encounter/dc411da0-2733-45b5-a439-b3f52a26c9b7"}},{"fullUrl":"https://madie.cms.gov/Encounter/9879415321515321","resource":{"resourceType":"Encounter","id":"b3c0443b-a05e-4bc8-9d58-7d1a7ddcc9ba","meta":{"profile":["http://hl7.org/fhir/us/qicore/StructureDefinition/qicore-encounter"]},"status":"finished","class":{"system":"http://terminology.hl7.org/CodeSystem/v3-ActCode","code":"AMB","display":"ambulatory encounter"},"type":[{"coding":[{"system":"http://www.ama-assn.org/go/cpt","version":"2024","code":"99205"}]}],"subject":{"reference":"Patient/b65680a0-9768-4ce4-b08d-972fcd84e28e"},"period":{"start":"2025-07-08T09:00:00+00:00","end":"2025-07-08T09:00:00+00:00"}},"request":{"method":"PUT","url":"Encounter/b3c0443b-a05e-4bc8-9d58-7d1a7ddcc9ba"}},{"fullUrl":"https://madie.cms.gov/Condition/68498431354164251","resource":{"resourceType":"Condition","id":"c947a301-ab57-4d4a-8b5e-de128b9465c7","meta":{"profile":["http://hl7.org/fhir/us/qicore/StructureDefinition/qicore-condition"]},"clinicalStatus":{"coding":[{"system":"http://terminology.hl7.org/CodeSystem/condition-clinical","code":"active","display":"Active"}]},"verificationStatus":{"coding":[{"system":"http://terminology.hl7.org/CodeSystem/condition-ver-status","code":"confirmed","display":"Confirmed"}]},"category":[{"coding":[{"system":"http://terminology.hl7.org/CodeSystem/condition-category","code":"problem-list-item","display":"Problem List Item"}]}],"code":{"coding":[{"system":"http://hl7.org/fhir/sid/icd-10-cm","version":"2024","code":"I21.01"}]},"subject":{"reference":"Patient/b65680a0-9768-4ce4-b08d-972fcd84e28e"},"onsetPeriod":{"start":"2022-11-22T07:30:00+00:00","end":"2022-11-22T08:30:00+00:00"}},"request":{"method":"PUT","url":"Condition/c947a301-ab57-4d4a-8b5e-de128b9465c7"}},{"fullUrl":"https://madie.cms.gov/Condition/64945461313135512","resource":{"resourceType":"Condition","id":"be4654f2-1558-43d1-b349-99b44f9edd49","meta":{"profile":["http://hl7.org/fhir/us/qicore/StructureDefinition/qicore-condition"]},"clinicalStatus":{"coding":[{"system":"http://terminology.hl7.org/CodeSystem/condition-clinical","code":"active","display":"Active"}]},"verificationStatus":{"coding":[{"system":"http://terminology.hl7.org/CodeSystem/condition-ver-status","code":"confirmed"}]},"category":[{"coding":[{"system":"http://terminology.hl7.org/CodeSystem/condition-category","code":"problem-list-item","display":"Problem List Item"}]}],"code":{"coding":[{"system":"http://snomed.info/sct","version":"http://snomed.info/sct/731000124108/version/20240301","code":"10365005","display":"Right main coronary artery thrombosis (disorder)"}]},"subject":{"reference":"Patient/b65680a0-9768-4ce4-b08d-972fcd84e28e"},"onsetPeriod":{"start":"2025-01-21T07:00:00.000+00:00"}},"request":{"method":"PUT","url":"Condition/be4654f2-1558-43d1-b349-99b44f9edd49"}},{"fullUrl":"https://madie.cms.gov/Condition/646874651549684351","resource":{"resourceType":"Condition","id":"cdb80b68-5fe3-428b-8f9a-612ef8f56f9f","meta":{"profile":["http://hl7.org/fhir/us/qicore/StructureDefinition/qicore-condition"]},"clinicalStatus":{"coding":[{"system":"http://terminology.hl7.org/CodeSystem/condition-clinical","code":"active","display":"Active"}]},"verificationStatus":{"coding":[{"system":"http://terminology.hl7.org/CodeSystem/condition-ver-status","code":"confirmed","display":"Confirmed"}]},"category":[{"coding":[{"system":"http://terminology.hl7.org/CodeSystem/condition-category","code":"problem-list-item","display":"Problem List Item"}]}],"code":{"coding":[{"system":"http://snomed.info/sct","version":"http://snomed.info/sct/731000124108/version/20240301","code":"293970004","display":"Allergy to metoprolol (finding)"}]},"subject":{"reference":"Patient/b65680a0-9768-4ce4-b08d-972fcd84e28e"},"onsetPeriod":{"start":"2024-04-05T06:00:00.000+00:00"}},"request":{"method":"PUT","url":"Condition/cdb80b68-5fe3-428b-8f9a-612ef8f56f9f"}},{"fullUrl":"https://madie.cms.gov/MeasureReport/00477cc7-49f7-478b-97df-45a291193c08","resource":{"resourceType":"MeasureReport","id":"00477cc7-49f7-478b-97df-45a291193c08","meta":{"profile":["http://hl7.org/fhir/us/cqfmeasures/StructureDefinition/test-case-cqfm"]},"contained":[{"resourceType":"Parameters","id":"50a6b880-0ceb-40cf-99d4-580865f29e58-parameters","parameter":[{"name":"subject","valueString":"b65680a0-9768-4ce4-b08d-972fcd84e28e"}]}],"extension":[{"url":"http://hl7.org/fhir/us/cqfmeasures/StructureDefinition/cqfm-inputParameters","valueReference":{"reference":"#50a6b880-0ceb-40cf-99d4-580865f29e58-parameters"}},{"url":"http://hl7.org/fhir/us/cqfmeasures/StructureDefinition/cqfm-testCaseDescription","valueMarkdown":"Pt > 18, 2 amb. visits during MP, a MI Dx with onset > 2 years b4 MP, a CAD Dx with onset during MP but before 1st visit, and Beta Blocker allergy Dx with onset during 1st visit"}],"modifierExtension":[{"url":"http://hl7.org/fhir/us/cqfmeasures/StructureDefinition/cqfm-isTestCase","valueBoolean":true}],"status":"complete","type":"individual","measure":"https://madie.cms.gov/Measure/CADBetaBlockerTherapyPriorMIorLVSDFHIR","period":{"start":"2025-01-01","end":"2025-12-31"},"group":[{"population":[{"code":{"coding":[{"system":"http://terminology.hl7.org/CodeSystem/measure-population","code":"initial-population","display":"Initial Population"}]},"count":1},{"code":{"coding":[{"system":"http://terminology.hl7.org/CodeSystem/measure-population","code":"denominator","display":"Denominator"}]},"count":0},{"code":{"coding":[{"system":"http://terminology.hl7.org/CodeSystem/measure-population","code":"numerator","display":"Numerator"}]},"count":0},{"code":{"coding":[{"system":"http://terminology.hl7.org/CodeSystem/measure-population","code":"denominator-exception","display":"Denominator Exception"}]},"count":0}]},{"population":[{"code":{"coding":[{"system":"http://terminology.hl7.org/CodeSystem/measure-population","code":"initial-population","display":"Initial Population"}]},"count":1},{"code":{"coding":[{"system":"http://terminology.hl7.org/CodeSystem/measure-population","code":"denominator","display":"Denominator"}]},"count":1},{"code":{"coding":[{"system":"http://terminology.hl7.org/CodeSystem/measure-population","code":"numerator","display":"Numerator"}]},"count":0},{"code":{"coding":[{"system":"http://terminology.hl7.org/CodeSystem/measure-population","code":"denominator-exception","display":"Denominator Exception"}]},"count":1}]}]},"request":{"method":"PUT","url":"MeasureReport/00477cc7-49f7-478b-97df-45a291193c08"}}]}