{"resourceType":"Bundle","id":"tests-4a3086cd-63f3-41c3-8ce9-f75b4b18b85c-bundle","type":"transaction","entry":[{"fullUrl":"https://madie.cms.gov/Patient/4a3086cd-63f3-41c3-8ce9-f75b4b18b85c","resource":{"resourceType":"Patient","id":"4a3086cd-63f3-41c3-8ce9-f75b4b18b85c","meta":{"profile":["http://hl7.org/fhir/us/qicore/StructureDefinition/qicore-patient"]},"extension":[{"url":"http://hl7.org/fhir/us/core/StructureDefinition/us-core-race","extension":[{"url":"ombCategory","valueCoding":{"system":"urn:oid:2.16.840.1.113883.6.238","code":"1002-5","display":"American Indian or Alaska Native"}},{"url":"text","valueString":"American Indian or Alaska Native"}]},{"url":"http://hl7.org/fhir/us/core/StructureDefinition/us-core-ethnicity","extension":[{"url":"ombCategory","valueCoding":{"system":"urn:oid:2.16.840.1.113883.6.238","code":"2186-5","display":"Not Hispanic or Latino"}},{"url":"text","valueString":"Not Hispanic or Latino"}]}],"identifier":[{"type":{"coding":[{"system":"http://terminology.hl7.org/CodeSystem/v2-0203","code":"MR"}]},"system":"https://bonnie-fhir.healthit.gov/","value":"2419678324968631646"}],"active":true,"name":[{"use":"usual","family":"DENEXCEPPop1Pass","given":["MedNotOrderedPatRsn"]}],"gender":"male","birthDate":"1967-12-14"},"request":{"method":"PUT","url":"Patient/4a3086cd-63f3-41c3-8ce9-f75b4b18b85c"}},{"fullUrl":"https://madie.cms.gov/Encounter/3249649674964532165","resource":{"resourceType":"Encounter","id":"eba4ffc4-2d43-4a3a-952e-749a94522159","meta":{"profile":["http://hl7.org/fhir/us/qicore/StructureDefinition/qicore-encounter"]},"status":"finished","class":{"system":"http://terminology.hl7.org/CodeSystem/v3-ActCode","code":"AMB","display":"ambulatory"},"type":[{"coding":[{"system":"http://www.ama-assn.org/go/cpt","version":"2024","code":"99202","display":"Office or other outpatient visit for the evaluation and management of a new patient, which requires a medically appropriate history and/or examination and straightforward medical decision making. When using time for code selection, 15-29 minutes of total time is spent on the date of the encounter."}]}],"subject":{"reference":"Patient/4a3086cd-63f3-41c3-8ce9-f75b4b18b85c"},"period":{"start":"2025-02-01T12:00:00+00:00","end":"2025-02-01T13:00:00+00:00"},"length":{"value":0,"unit":"days"}},"request":{"method":"PUT","url":"Encounter/eba4ffc4-2d43-4a3a-952e-749a94522159"}},{"fullUrl":"https://madie.cms.gov/Encounter/31634646316566316","resource":{"resourceType":"Encounter","id":"0e20ac76-8b3a-4714-aa43-529bfa82ed5e","meta":{"profile":["http://hl7.org/fhir/us/qicore/StructureDefinition/qicore-encounter"]},"status":"finished","class":{"system":"http://terminology.hl7.org/CodeSystem/v3-ActCode","code":"AMB","display":"ambulatory"},"type":[{"coding":[{"system":"http://www.ama-assn.org/go/cpt","version":"2024","code":"99212","display":"Office or other outpatient visit for the evaluation and management of an established patient, which requires a medically appropriate history and/or examination and straightforward medical decision making. When using time for code selection, 10-19 minutes of total time is spent on the date of the encounter."}]}],"subject":{"reference":"Patient/4a3086cd-63f3-41c3-8ce9-f75b4b18b85c"},"period":{"start":"2025-10-15T12:15:00+00:00","end":"2025-10-15T13:15:00+00:00"},"length":{"value":0,"unit":"days"}},"request":{"method":"PUT","url":"Encounter/0e20ac76-8b3a-4714-aa43-529bfa82ed5e"}},{"fullUrl":"https://madie.cms.gov/Condition/34645685623126123","resource":{"resourceType":"Condition","id":"0e34a190-90df-4fea-9e1a-52c65a532e2a","meta":{"profile":["http://hl7.org/fhir/us/qicore/StructureDefinition/qicore-condition"]},"clinicalStatus":{"coding":[{"system":"http://terminology.hl7.org/CodeSystem/condition-clinical","code":"active","display":"Active"}]},"verificationStatus":{"coding":[{"system":"http://terminology.hl7.org/CodeSystem/condition-ver-status","code":"confirmed","display":"Confirmed"}]},"category":[{"coding":[{"system":"http://terminology.hl7.org/CodeSystem/condition-category","code":"problem-list-item","display":"Problem List Item"}]}],"severity":{"coding":[{"system":"http://snomed.info/sct","version":"http://snomed.info/sct/731000124108/version/20240301","code":"24484000","display":"Severe (severity modifier) (qualifier value)"}]},"code":{"coding":[{"system":"http://snomed.info/sct","version":"http://snomed.info/sct/731000124108/version/20240301","code":"134401001"}]},"subject":{"reference":"Patient/4a3086cd-63f3-41c3-8ce9-f75b4b18b85c"},"onsetPeriod":{"start":"2025-01-31T12:00:00+00:00"}},"request":{"method":"PUT","url":"Condition/0e34a190-90df-4fea-9e1a-52c65a532e2a"}},{"fullUrl":"https://madie.cms.gov/Condition/324645967324163132","resource":{"resourceType":"Condition","id":"714bf67d-3a46-4c67-a3be-46e95d11114e","meta":{"profile":["http://hl7.org/fhir/us/qicore/StructureDefinition/qicore-condition"]},"clinicalStatus":{"coding":[{"system":"http://terminology.hl7.org/CodeSystem/condition-clinical","code":"active","display":"Active"}]},"verificationStatus":{"coding":[{"system":"http://terminology.hl7.org/CodeSystem/condition-ver-status","code":"confirmed","display":"Confirmed"}]},"category":[{"coding":[{"system":"http://terminology.hl7.org/CodeSystem/condition-category","code":"problem-list-item","display":"Problem List Item"}]}],"code":{"coding":[{"system":"http://snomed.info/sct","version":"http://snomed.info/sct/731000124108/version/20240301","code":"10365005","display":"Right main coronary artery thrombosis (disorder)"}]},"subject":{"reference":"Patient/4a3086cd-63f3-41c3-8ce9-f75b4b18b85c"},"onsetPeriod":{"start":"2025-10-16T00:00:00+00:00"}},"request":{"method":"PUT","url":"Condition/714bf67d-3a46-4c67-a3be-46e95d11114e"}},{"fullUrl":"https://madie.cms.gov/Condition/345463562312312341","resource":{"resourceType":"Condition","id":"f70ecfa8-2a09-49ab-bffa-6954f0fe3391","meta":{"profile":["http://hl7.org/fhir/us/qicore/StructureDefinition/qicore-condition"]},"clinicalStatus":{"coding":[{"system":"http://terminology.hl7.org/CodeSystem/condition-clinical","code":"active","display":"Active"}]},"category":[{"coding":[{"system":"http://terminology.hl7.org/CodeSystem/condition-category","code":"problem-list-item","display":"Problem List Item"}]}],"code":{"coding":[{"system":"http://snomed.info/sct","version":"http://snomed.info/sct/731000124108/version/20240301","code":"441509002","display":"Cardiac pacemaker in situ"}]},"subject":{"reference":"Patient/4a3086cd-63f3-41c3-8ce9-f75b4b18b85c"},"onsetPeriod":{"start":"2025-10-16T00:00:00+00:00"}},"request":{"method":"PUT","url":"Condition/f70ecfa8-2a09-49ab-bffa-6954f0fe3391"}},{"fullUrl":"https://madie.cms.gov/MedicationRequest/341652656434634353","resource":{"resourceType":"MedicationRequest","id":"f79c2b0a-7824-41b6-b073-ca4e7b906914","meta":{"profile":["http://hl7.org/fhir/us/qicore/StructureDefinition/qicore-mednotrequested"]},"status":"completed","intent":"order","doNotPerform":true,"medicationCodeableConcept":{"extension":[{"url":"http://hl7.org/fhir/us/qicore/StructureDefinition/qicore-notDoneValueSet","valueCanonical":"http://cts.nlm.nih.gov/fhir/ValueSet/2.16.840.1.113883.3.526.3.1184"}],"text":"Not Done Value Set: Beta Blocker Therapy for LVSD"},"subject":{"reference":"Patient/4a3086cd-63f3-41c3-8ce9-f75b4b18b85c"},"authoredOn":"2025-10-15T12:15:00+00:00","requester":{"reference":"Practitioner/341659856413164"},"reasonCode":[{"coding":[{"system":"http://snomed.info/sct","version":"http://snomed.info/sct/731000124108/version/20230301","code":"406149000","display":"Medication declined (situation)"}]}]},"request":{"method":"PUT","url":"MedicationRequest/f79c2b0a-7824-41b6-b073-ca4e7b906914"}},{"fullUrl":"https://madie.cms.gov/Practitioner/341659856413164","resource":{"resourceType":"Practitioner","id":"39079a47-db4c-4b3c-8571-938780fddcf7","meta":{"profile":["http://hl7.org/fhir/us/qicore/StructureDefinition/qicore-practitioner"]},"identifier":[{"use":"temp","system":"urn:oid:2.16.840.1.113883.4.336","value":"Practitioner-45"}],"active":true,"name":[{"family":"Strangelove","given":["Adam"],"prefix":["Dr"]}],"qualification":[{"identifier":[{"system":"http://example.org/UniversityIdentifier","value":"12345"}],"code":{"coding":[{"system":"http://terminology.hl7.org/CodeSystem/v2-0360|2.7","code":"BS","display":"Bachelor of Science"}],"text":"Bachelor of Science"},"period":{"start":"1995"},"issuer":{"display":"Example University"}}]},"request":{"method":"PUT","url":"Practitioner/39079a47-db4c-4b3c-8571-938780fddcf7"}},{"fullUrl":"https://madie.cms.gov/Procedure/654651564868416546","resource":{"resourceType":"Procedure","id":"2af76884-682b-4245-b772-368f9043ac2b","meta":{"profile":["http://hl7.org/fhir/us/qicore/StructureDefinition/qicore-procedure"]},"extension":[{"url":"http://hl7.org/fhir/us/qicore/StructureDefinition/qicore-recorded","valueDateTime":"2025-02-01T12:00:00+00:00"}],"status":"completed","code":{"coding":[{"system":"http://www.ama-assn.org/go/cpt","version":"2024","code":"33536"}]},"subject":{"reference":"Patient/4a3086cd-63f3-41c3-8ce9-f75b4b18b85c"},"performedPeriod":{"start":"2025-02-01T12:00:00+00:00","end":"2025-02-01T12:00:00+00:00"}},"request":{"method":"PUT","url":"Procedure/2af76884-682b-4245-b772-368f9043ac2b"}},{"fullUrl":"https://madie.cms.gov/MeasureReport/7d1a12c3-4dcd-4de3-959b-f5bf893dfc7c","resource":{"resourceType":"MeasureReport","id":"7d1a12c3-4dcd-4de3-959b-f5bf893dfc7c","meta":{"profile":["http://hl7.org/fhir/us/cqfmeasures/StructureDefinition/test-case-cqfm"]},"contained":[{"resourceType":"Parameters","id":"ea9f9759-bc0b-4855-91de-f5b96cbb6d39-parameters","parameter":[{"name":"subject","valueString":"4a3086cd-63f3-41c3-8ce9-f75b4b18b85c"}]}],"extension":[{"url":"http://hl7.org/fhir/us/cqfmeasures/StructureDefinition/cqfm-inputParameters","valueReference":{"reference":"#ea9f9759-bc0b-4855-91de-f5b96cbb6d39-parameters"}},{"url":"http://hl7.org/fhir/us/cqfmeasures/StructureDefinition/cqfm-testCaseDescription","valueMarkdown":"Pt > 18, 2 visits in MP, LVSD onset in MP b4 1st visit, CAD after last visit, Cardiac Pacer in Situ after last visit, Beta Blocker not ordered at 2nd visit (patient declined) *CQL-Execution Issue 296*, and arterial grafting during 1st visit. "}],"modifierExtension":[{"url":"http://hl7.org/fhir/us/cqfmeasures/StructureDefinition/cqfm-isTestCase","valueBoolean":true}],"status":"complete","type":"individual","measure":"https://madie.cms.gov/Measure/CADBetaBlockerTherapyPriorMIorLVSDFHIR","period":{"start":"2025-01-01","end":"2025-12-31"},"group":[{"population":[{"code":{"coding":[{"system":"http://terminology.hl7.org/CodeSystem/measure-population","code":"initial-population","display":"Initial Population"}]},"count":1},{"code":{"coding":[{"system":"http://terminology.hl7.org/CodeSystem/measure-population","code":"denominator","display":"Denominator"}]},"count":1},{"code":{"coding":[{"system":"http://terminology.hl7.org/CodeSystem/measure-population","code":"numerator","display":"Numerator"}]},"count":0},{"code":{"coding":[{"system":"http://terminology.hl7.org/CodeSystem/measure-population","code":"denominator-exception","display":"Denominator Exception"}]},"count":0}]},{"population":[{"code":{"coding":[{"system":"http://terminology.hl7.org/CodeSystem/measure-population","code":"initial-population","display":"Initial Population"}]},"count":1},{"code":{"coding":[{"system":"http://terminology.hl7.org/CodeSystem/measure-population","code":"denominator","display":"Denominator"}]},"count":0},{"code":{"coding":[{"system":"http://terminology.hl7.org/CodeSystem/measure-population","code":"numerator","display":"Numerator"}]},"count":0},{"code":{"coding":[{"system":"http://terminology.hl7.org/CodeSystem/measure-population","code":"denominator-exception","display":"Denominator Exception"}]},"count":0}]}]},"request":{"method":"PUT","url":"MeasureReport/7d1a12c3-4dcd-4de3-959b-f5bf893dfc7c"}}]}