{"resourceType":"Bundle","id":"tests-8fc3dac2-816b-4ef2-b14c-85264bb3f2c4-bundle","type":"transaction","entry":[{"fullUrl":"https://madie.cms.gov/Patient/8fc3dac2-816b-4ef2-b14c-85264bb3f2c4","resource":{"resourceType":"Patient","id":"8fc3dac2-816b-4ef2-b14c-85264bb3f2c4","meta":{"profile":["http://hl7.org/fhir/us/qicore/StructureDefinition/qicore-patient"]},"extension":[{"url":"http://hl7.org/fhir/us/core/StructureDefinition/us-core-race","extension":[{"url":"ombCategory","valueCoding":{"system":"urn:oid:2.16.840.1.113883.6.238","code":"2106-3","display":"White"}},{"url":"detailed","valueCoding":{"system":"urn:oid:2.16.840.1.113883.6.238","code":"2036-2","display":"Filipino"}},{"url":"text","valueString":"mixed"}]},{"url":"http://hl7.org/fhir/us/core/StructureDefinition/us-core-ethnicity","extension":[{"url":"ombCategory","valueCoding":{"system":"urn:oid:2.16.840.1.113883.6.238","code":"2135-2","display":"Hispanic or Latino"}},{"url":"detailed","valueCoding":{"system":"urn:oid:2.16.840.1.113883.6.238","code":"2148-5","display":"Mexican"}},{"url":"text","valueString":"Hispanic or Latino"}]}],"identifier":[{"type":{"coding":[{"system":"http://terminology.hl7.org/CodeSystem/v2-0203","code":"MR"}]},"system":"https://bonnie-fhir.healthit.gov/","value":"6067458998086b57ea5aa696"}],"active":true,"name":[{"use":"usual","family":"NUMERPop2Fail","given":["BetaBlockerInactive"]}],"gender":"female","birthDate":"1983-08-11"},"request":{"method":"PUT","url":"Patient/8fc3dac2-816b-4ef2-b14c-85264bb3f2c4"}},{"fullUrl":"https://madie.cms.gov/Encounter/5c954d9bb848462de0ae6ed1","resource":{"resourceType":"Encounter","id":"aba24682-aadf-4482-abbf-8afdffeb1f64","meta":{"profile":["http://hl7.org/fhir/us/qicore/StructureDefinition/qicore-encounter"]},"status":"finished","class":{"system":"http://terminology.hl7.org/CodeSystem/v3-ActCode","code":"AMB","display":"ambulatory encounter"},"type":[{"coding":[{"system":"http://www.ama-assn.org/go/cpt","version":"2024","code":"99205"}]}],"subject":{"reference":"Patient/8fc3dac2-816b-4ef2-b14c-85264bb3f2c4"},"period":{"start":"2025-08-16T17:00:00+00:00","end":"2025-08-16T17:00:00+00:00"},"length":{"value":0,"unit":"days"}},"request":{"method":"PUT","url":"Encounter/aba24682-aadf-4482-abbf-8afdffeb1f64"}},{"fullUrl":"https://madie.cms.gov/Encounter/5c954d9bb848462de0ae6ed2","resource":{"resourceType":"Encounter","id":"3d8e9c92-8190-4185-8332-924a2b332ba9","meta":{"profile":["http://hl7.org/fhir/us/qicore/StructureDefinition/qicore-encounter"]},"status":"finished","class":{"system":"http://terminology.hl7.org/CodeSystem/v3-ActCode","code":"AMB","display":"amblatory encounter"},"type":[{"coding":[{"system":"http://www.ama-assn.org/go/cpt","version":"2024","code":"99205"}]}],"subject":{"reference":"Patient/8fc3dac2-816b-4ef2-b14c-85264bb3f2c4"},"period":{"start":"2025-12-03T16:45:00+00:00","end":"2025-12-03T16:45:00+00:00"},"length":{"value":0,"unit":"days"}},"request":{"method":"PUT","url":"Encounter/3d8e9c92-8190-4185-8332-924a2b332ba9"}},{"fullUrl":"https://madie.cms.gov/Condition/5c954d9bb848462de0ae6ece","resource":{"resourceType":"Condition","id":"3275610b-b5f5-4c51-b894-49513c6bd491","meta":{"profile":["http://hl7.org/fhir/us/qicore/StructureDefinition/qicore-condition"]},"clinicalStatus":{"coding":[{"system":"http://terminology.hl7.org/CodeSystem/condition-clinical","code":"active","display":"Active"}]},"category":[{"coding":[{"system":"http://terminology.hl7.org/CodeSystem/condition-category","code":"problem-list-item","display":"Problem List Item"}]}],"code":{"coding":[{"system":"http://hl7.org/fhir/sid/icd-10-cm","version":"2024","code":"I21.09"}]},"subject":{"reference":"Patient/8fc3dac2-816b-4ef2-b14c-85264bb3f2c4"},"onsetPeriod":{"start":"2022-10-13T16:45:00+00:00","end":"2022-10-13T17:00:00+00:00"}},"request":{"method":"PUT","url":"Condition/3275610b-b5f5-4c51-b894-49513c6bd491"}},{"fullUrl":"https://madie.cms.gov/Condition/5c954d9bb848462de0ae6ecf","resource":{"resourceType":"Condition","id":"8eb68fc0-2ab4-40f0-a825-e08fa5ec8956","meta":{"profile":["http://hl7.org/fhir/us/qicore/StructureDefinition/qicore-condition"]},"clinicalStatus":{"coding":[{"system":"http://terminology.hl7.org/CodeSystem/condition-clinical","code":"active","display":"Active"}]},"verificationStatus":{"coding":[{"system":"http://terminology.hl7.org/CodeSystem/condition-ver-status","code":"confirmed","display":"Confirmed"}]},"category":[{"coding":[{"system":"http://terminology.hl7.org/CodeSystem/condition-category","code":"problem-list-item","display":"Problem List Item"}]}],"code":{"coding":[{"system":"http://hl7.org/fhir/sid/icd-10-cm","version":"2024","code":"I21.01"}]},"subject":{"reference":"Patient/8fc3dac2-816b-4ef2-b14c-85264bb3f2c4"},"onsetPeriod":{"start":"2025-08-16T17:00:00+00:00","end":"2025-08-16T17:00:00+00:00"}},"request":{"method":"PUT","url":"Condition/8eb68fc0-2ab4-40f0-a825-e08fa5ec8956"}},{"fullUrl":"https://madie.cms.gov/MedicationRequest/5c954d9bb848462de0ae6ed3","resource":{"resourceType":"MedicationRequest","id":"7f0a6e3c-2545-4356-926e-21aaf09fa2ea","meta":{"profile":["http://hl7.org/fhir/us/qicore/StructureDefinition/qicore-medicationrequest"]},"status":"completed","intent":"order","medicationCodeableConcept":{"coding":[{"system":"http://www.nlm.nih.gov/research/umls/rxnorm","version":"04012024","code":"860532"}]},"subject":{"reference":"Patient/8fc3dac2-816b-4ef2-b14c-85264bb3f2c4"},"authoredOn":"2022-10-13T17:00:00+00:00","requester":{"reference":"Practitioner/41465131231"},"dosageInstruction":[{"timing":{"repeat":{"boundsPeriod":{"start":"2022-10-13T17:00:00+00:00","end":"2023-10-13T08:15:00+00:00"}}}}]},"request":{"method":"PUT","url":"MedicationRequest/7f0a6e3c-2545-4356-926e-21aaf09fa2ea"}},{"fullUrl":"https://madie.cms.gov/Practitioner/41465131231","resource":{"resourceType":"Practitioner","id":"f297c340-309d-40f0-94c3-b1e320a7bfd8","meta":{"profile":["http://hl7.org/fhir/us/qicore/StructureDefinition/qicore-practitioner"]},"identifier":[{"use":"temp","system":"urn:oid:2.16.840.1.113883.4.336","value":"Practitioner-23"}],"active":true,"name":[{"family":"Careful","given":["Adam"],"prefix":["Dr"]}],"address":[{"use":"home","line":["534 Erewhon St"],"city":"PleasantVille","state":"UT","postalCode":"84414"}],"qualification":[{"identifier":[{"system":"http://example.org/UniversityIdentifier","value":"12345"}],"code":{"coding":[{"system":"http://terminology.hl7.org/CodeSystem/v2-0360|2.7","code":"BS","display":"Bachelor of Science"}],"text":"Bachelor of Science"},"period":{"start":"1995"},"issuer":{"display":"Example University"}}]},"request":{"method":"PUT","url":"Practitioner/f297c340-309d-40f0-94c3-b1e320a7bfd8"}},{"fullUrl":"https://madie.cms.gov/Condition/468465168468468516","resource":{"resourceType":"Condition","id":"75f74684-70fa-40de-a6c0-64a16e2371ee","meta":{"profile":["http://hl7.org/fhir/us/qicore/StructureDefinition/qicore-condition"]},"clinicalStatus":{"coding":[{"system":"http://terminology.hl7.org/CodeSystem/condition-clinical","code":"active","display":"Active"}]},"verificationStatus":{"coding":[{"system":"http://terminology.hl7.org/CodeSystem/condition-ver-status","code":"confirmed","display":"Confirmed"}]},"category":[{"coding":[{"system":"http://terminology.hl7.org/CodeSystem/condition-category","code":"problem-list-item","display":"Problem List Item"}]}],"code":{"coding":[{"system":"http://snomed.info/sct","version":"http://snomed.info/sct/731000124108/version/20240301","code":"10365005","display":"Right main coronary artery thrombosis (disorder)"}]},"subject":{"reference":"Patient/8fc3dac2-816b-4ef2-b14c-85264bb3f2c4"},"onsetPeriod":{"start":"2025-12-02T16:45:00.000+00:00"}},"request":{"method":"PUT","url":"Condition/75f74684-70fa-40de-a6c0-64a16e2371ee"}},{"fullUrl":"https://madie.cms.gov/Coverage/5468135213161","resource":{"resourceType":"Coverage","id":"ee98aee6-79bf-4ce1-872b-9b8cd2a74319","meta":{"profile":["http://hl7.org/fhir/us/qicore/StructureDefinition/qicore-coverage"]},"identifier":[{"system":"http://benefitsinc.com/certificate","value":"6846816"}],"status":"active","type":{"coding":[{"system":"https://nahdo.org/sopt","version":"9.2","code":"59","display":"Other Private Insurance"}]},"beneficiary":{"reference":"Patient/8fc3dac2-816b-4ef2-b14c-85264bb3f2c4"},"dependent":"0","relationship":{"coding":[{"system":"http://terminology.hl7.org/CodeSystem/subscriber-relationship","code":"self"}]},"period":{"start":"2012-05-23","end":"2013-05-23"},"payor":[{"reference":"Organization/3e899f33-84eb-4634-a770-a5a0bd7a80e7"}],"order":9},"request":{"method":"PUT","url":"Coverage/ee98aee6-79bf-4ce1-872b-9b8cd2a74319"}},{"fullUrl":"https://madie.cms.gov/Organization/4654531645616","resource":{"resourceType":"Organization","id":"3e899f33-84eb-4634-a770-a5a0bd7a80e7","meta":{"profile":["http://hl7.org/fhir/us/qicore/StructureDefinition/qicore-organization"]},"identifier":[{"use":"temp","system":"http://terminology.hl7.org/NamingSystem/USEIN","value":"48915164351354"}],"active":true,"type":[{"coding":[{"system":"http://terminology.hl7.org/CodeSystem/organization-type","code":"team","display":"Organizational team"}]}],"name":"Good Healthcare, LLC","telecom":[{"system":"phone","value":"(+1) 901-683-7777"},{"system":"fax","value":"(+1) 901-683-6622"},{"system":"email","value":"BetterYourHealth@GoodHealthcare.com"}],"address":[{"line":["3651 Wentrow Blvd, Suite 227"],"city":"Germantown","state":"TN","postalCode":"38138","country":"USA"}]},"request":{"method":"PUT","url":"Organization/3e899f33-84eb-4634-a770-a5a0bd7a80e7"}},{"fullUrl":"https://madie.cms.gov/MeasureReport/bb9e641d-127d-4f8f-9d95-2855ff94694c","resource":{"resourceType":"MeasureReport","id":"bb9e641d-127d-4f8f-9d95-2855ff94694c","meta":{"profile":["http://hl7.org/fhir/us/cqfmeasures/StructureDefinition/test-case-cqfm"]},"contained":[{"resourceType":"Parameters","id":"1f4183e3-c347-4b1f-a4b1-4052ad1d014f-parameters","parameter":[{"name":"subject","valueString":"8fc3dac2-816b-4ef2-b14c-85264bb3f2c4"}]}],"extension":[{"url":"http://hl7.org/fhir/us/cqfmeasures/StructureDefinition/cqfm-inputParameters","valueReference":{"reference":"#1f4183e3-c347-4b1f-a4b1-4052ad1d014f-parameters"}},{"url":"http://hl7.org/fhir/us/cqfmeasures/StructureDefinition/cqfm-testCaseDescription","valueMarkdown":"Pt > 18, has two qualifying encounters, a CAD encounter with prior MI, and a past order for beta blocker therapy outside the MP"}],"modifierExtension":[{"url":"http://hl7.org/fhir/us/cqfmeasures/StructureDefinition/cqfm-isTestCase","valueBoolean":true}],"status":"complete","type":"individual","measure":"https://madie.cms.gov/Measure/CADBetaBlockerTherapyPriorMIorLVSDFHIR","period":{"start":"2025-01-01","end":"2025-12-31"},"group":[{"population":[{"code":{"coding":[{"system":"http://terminology.hl7.org/CodeSystem/measure-population","code":"initial-population","display":"Initial Population"}]},"count":1},{"code":{"coding":[{"system":"http://terminology.hl7.org/CodeSystem/measure-population","code":"denominator","display":"Denominator"}]},"count":0},{"code":{"coding":[{"system":"http://terminology.hl7.org/CodeSystem/measure-population","code":"numerator","display":"Numerator"}]},"count":0},{"code":{"coding":[{"system":"http://terminology.hl7.org/CodeSystem/measure-population","code":"denominator-exception","display":"Denominator Exception"}]},"count":0}]},{"population":[{"code":{"coding":[{"system":"http://terminology.hl7.org/CodeSystem/measure-population","code":"initial-population","display":"Initial Population"}]},"count":1},{"code":{"coding":[{"system":"http://terminology.hl7.org/CodeSystem/measure-population","code":"denominator","display":"Denominator"}]},"count":1},{"code":{"coding":[{"system":"http://terminology.hl7.org/CodeSystem/measure-population","code":"numerator","display":"Numerator"}]},"count":0},{"code":{"coding":[{"system":"http://terminology.hl7.org/CodeSystem/measure-population","code":"denominator-exception","display":"Denominator Exception"}]},"count":0}]}]},"request":{"method":"PUT","url":"MeasureReport/bb9e641d-127d-4f8f-9d95-2855ff94694c"}}]}