{"resourceType":"Bundle","id":"tests-10a6f006-eabc-4a40-80bd-2a135e45e597-bundle","type":"transaction","entry":[{"fullUrl":"https://madie.cms.gov/Patient/10a6f006-eabc-4a40-80bd-2a135e45e597","resource":{"resourceType":"Patient","id":"10a6f006-eabc-4a40-80bd-2a135e45e597","meta":{"profile":["http://hl7.org/fhir/us/qicore/StructureDefinition/qicore-patient"]},"extension":[{"url":"http://hl7.org/fhir/us/core/StructureDefinition/us-core-race","extension":[{"url":"ombCategory","valueCoding":{"system":"urn:oid:2.16.840.1.113883.6.238","code":"1002-5","display":"American Indian or Alaska Native"}},{"url":"text","valueString":"American Indian or Alaska Native"}]},{"url":"http://hl7.org/fhir/us/core/StructureDefinition/us-core-ethnicity","extension":[{"url":"ombCategory","valueCoding":{"system":"urn:oid:2.16.840.1.113883.6.238","code":"2186-5","display":"Not Hispanic or Latino"}},{"url":"text","valueString":"Not Hispanic or Latino"}]}],"identifier":[{"type":{"coding":[{"system":"http://terminology.hl7.org/CodeSystem/v2-0203","code":"MR"}]},"system":"https://bonnie-fhir.healthit.gov/","value":"58486461648961313"}],"active":true,"name":[{"use":"usual","family":"DENEXCEPPop2Pass","given":["AtrioBlockEC"]}],"gender":"other","birthDate":"1922-03-24"},"request":{"method":"PUT","url":"Patient/10a6f006-eabc-4a40-80bd-2a135e45e597"}},{"fullUrl":"https://madie.cms.gov/Encounter/6846513514135131","resource":{"resourceType":"Encounter","id":"3c63c8a9-21e0-4070-bafb-f3adecf6bb5c","meta":{"profile":["http://hl7.org/fhir/us/qicore/StructureDefinition/qicore-encounter"]},"status":"finished","class":{"system":"http://terminology.hl7.org/CodeSystem/v3-ActCode","code":"AMB","display":"ambulatory encounter"},"type":[{"coding":[{"system":"http://www.ama-assn.org/go/cpt","version":"2024","code":"99205"}]}],"subject":{"reference":"Patient/10a6f006-eabc-4a40-80bd-2a135e45e597"},"period":{"start":"2025-04-05T06:00:00+00:00","end":"2025-04-05T07:00:00+00:00"}},"request":{"method":"PUT","url":"Encounter/3c63c8a9-21e0-4070-bafb-f3adecf6bb5c"}},{"fullUrl":"https://madie.cms.gov/Encounter/494613516846103131","resource":{"resourceType":"Encounter","id":"d02a7037-d8b6-4bc7-8110-5110d8c26f07","meta":{"profile":["http://hl7.org/fhir/us/qicore/StructureDefinition/qicore-encounter"]},"status":"finished","class":{"system":"http://terminology.hl7.org/CodeSystem/v3-ActCode","code":"AMB","display":"ambulatory encounter"},"type":[{"coding":[{"system":"http://www.ama-assn.org/go/cpt","version":"2024","code":"99205"}]}],"subject":{"reference":"Patient/10a6f006-eabc-4a40-80bd-2a135e45e597"},"period":{"start":"2025-07-08T08:45:00+00:00","end":"2025-07-08T09:00:00+00:00"}},"request":{"method":"PUT","url":"Encounter/d02a7037-d8b6-4bc7-8110-5110d8c26f07"}},{"fullUrl":"https://madie.cms.gov/Condition/4687498461351611231","resource":{"resourceType":"Condition","id":"23f4508d-f1f1-4313-9ae5-a94fc700b03c","meta":{"profile":["http://hl7.org/fhir/us/qicore/StructureDefinition/qicore-condition"]},"clinicalStatus":{"coding":[{"system":"http://terminology.hl7.org/CodeSystem/condition-clinical","code":"active","display":"Active"}]},"verificationStatus":{"coding":[{"system":"http://terminology.hl7.org/CodeSystem/condition-ver-status","code":"confirmed","display":"Confirmed"}]},"category":[{"coding":[{"system":"http://terminology.hl7.org/CodeSystem/condition-category","code":"problem-list-item","display":"Problem List Item"}]}],"code":{"coding":[{"system":"http://hl7.org/fhir/sid/icd-10-cm","version":"2024","code":"I21.09"}]},"subject":{"reference":"Patient/10a6f006-eabc-4a40-80bd-2a135e45e597"},"onsetPeriod":{"start":"2025-04-05T06:00:00.000+00:00"}},"request":{"method":"PUT","url":"Condition/23f4508d-f1f1-4313-9ae5-a94fc700b03c"}},{"fullUrl":"https://madie.cms.gov/Condition/49746351568435131","resource":{"resourceType":"Condition","id":"57a3748a-8ce7-468d-9541-7f262a79a8ce","meta":{"profile":["http://hl7.org/fhir/us/qicore/StructureDefinition/qicore-condition"]},"clinicalStatus":{"coding":[{"system":"http://terminology.hl7.org/CodeSystem/condition-clinical","code":"active","display":"Active"}]},"verificationStatus":{"coding":[{"system":"http://terminology.hl7.org/CodeSystem/condition-ver-status","code":"confirmed","display":"Confirmed"}]},"category":[{"coding":[{"system":"http://terminology.hl7.org/CodeSystem/condition-category","code":"problem-list-item","display":"Problem List Item"}]}],"code":{"coding":[{"system":"http://snomed.info/sct","version":"http://snomed.info/sct/731000124108/version/20240301","code":"10365005","display":"Right main coronary artery thrombosis (disorder)"}]},"subject":{"reference":"Patient/10a6f006-eabc-4a40-80bd-2a135e45e597"},"onsetPeriod":{"start":"2025-04-05T06:00:00.000+00:00"}},"request":{"method":"PUT","url":"Condition/57a3748a-8ce7-468d-9541-7f262a79a8ce"}},{"fullUrl":"https://madie.cms.gov/Condition/46441868446613132045","resource":{"resourceType":"Condition","id":"d790b276-0594-4b86-a9b8-db3802998fc4","meta":{"profile":["http://hl7.org/fhir/us/qicore/StructureDefinition/qicore-condition"]},"clinicalStatus":{"coding":[{"system":"http://terminology.hl7.org/CodeSystem/condition-clinical","code":"active","display":"Active"}]},"verificationStatus":{"coding":[{"system":"http://terminology.hl7.org/CodeSystem/condition-ver-status","code":"confirmed","display":"Confirmed"}]},"category":[{"coding":[{"system":"http://terminology.hl7.org/CodeSystem/condition-category","code":"problem-list-item","display":"Problem List Item"}]}],"code":{"coding":[{"system":"http://snomed.info/sct","version":"http://snomed.info/sct/731000124108/version/20240301","code":"102451000119107","display":"Complete atrioventricular block as complication of atrioventricular nodal ablation (disorder)"}]},"subject":{"reference":"Patient/10a6f006-eabc-4a40-80bd-2a135e45e597"},"onsetDateTime":"2025-07-08T23:59:59.999+00:00"},"request":{"method":"PUT","url":"Condition/d790b276-0594-4b86-a9b8-db3802998fc4"}},{"fullUrl":"https://madie.cms.gov/MeasureReport/5b3840af-f7a7-4d24-a200-83b955bf4115","resource":{"resourceType":"MeasureReport","id":"5b3840af-f7a7-4d24-a200-83b955bf4115","meta":{"profile":["http://hl7.org/fhir/us/cqfmeasures/StructureDefinition/test-case-cqfm"]},"contained":[{"resourceType":"Parameters","id":"587a61d9-f281-452c-9ea8-865013732141-parameters","parameter":[{"name":"subject","valueString":"10a6f006-eabc-4a40-80bd-2a135e45e597"}]}],"extension":[{"url":"http://hl7.org/fhir/us/cqfmeasures/StructureDefinition/cqfm-inputParameters","valueReference":{"reference":"#587a61d9-f281-452c-9ea8-865013732141-parameters"}},{"url":"http://hl7.org/fhir/us/cqfmeasures/StructureDefinition/cqfm-testCaseDescription","valueMarkdown":"Pt > 185, 2 visits in MP, MI and CAD (both with onset during 1st visit), and AV Block starts on very last second of day of last qualifying encounter"}],"modifierExtension":[{"url":"http://hl7.org/fhir/us/cqfmeasures/StructureDefinition/cqfm-isTestCase","valueBoolean":true}],"status":"complete","type":"individual","measure":"https://madie.cms.gov/Measure/CADBetaBlockerTherapyPriorMIorLVSDFHIR","period":{"start":"2025-01-01","end":"2025-12-31"},"group":[{"population":[{"code":{"coding":[{"system":"http://terminology.hl7.org/CodeSystem/measure-population","code":"initial-population","display":"Initial Population"}]},"count":1},{"code":{"coding":[{"system":"http://terminology.hl7.org/CodeSystem/measure-population","code":"denominator","display":"Denominator"}]},"count":0},{"code":{"coding":[{"system":"http://terminology.hl7.org/CodeSystem/measure-population","code":"numerator","display":"Numerator"}]},"count":0},{"code":{"coding":[{"system":"http://terminology.hl7.org/CodeSystem/measure-population","code":"denominator-exception","display":"Denominator Exception"}]},"count":0}]},{"population":[{"code":{"coding":[{"system":"http://terminology.hl7.org/CodeSystem/measure-population","code":"initial-population","display":"Initial Population"}]},"count":1},{"code":{"coding":[{"system":"http://terminology.hl7.org/CodeSystem/measure-population","code":"denominator","display":"Denominator"}]},"count":1},{"code":{"coding":[{"system":"http://terminology.hl7.org/CodeSystem/measure-population","code":"numerator","display":"Numerator"}]},"count":0},{"code":{"coding":[{"system":"http://terminology.hl7.org/CodeSystem/measure-population","code":"denominator-exception","display":"Denominator Exception"}]},"count":1}]}]},"request":{"method":"PUT","url":"MeasureReport/5b3840af-f7a7-4d24-a200-83b955bf4115"}}]}