{"resourceType":"Bundle","id":"tests-1968ff78-9027-4ea9-99c8-42282743bfc3-bundle","type":"transaction","entry":[{"fullUrl":"https://madie.cms.gov/Patient/1968ff78-9027-4ea9-99c8-42282743bfc3","resource":{"resourceType":"Patient","id":"1968ff78-9027-4ea9-99c8-42282743bfc3","meta":{"profile":["http://hl7.org/fhir/us/qicore/StructureDefinition/qicore-patient"]},"extension":[{"url":"http://hl7.org/fhir/us/core/StructureDefinition/us-core-race","extension":[{"url":"ombCategory","valueCoding":{"system":"urn:oid:2.16.840.1.113883.6.238","code":"2028-9","display":"Asian","userSelected":true}},{"url":"text","valueString":"Asian"}]},{"url":"http://hl7.org/fhir/us/core/StructureDefinition/us-core-ethnicity","extension":[{"url":"ombCategory","valueCoding":{"system":"urn:oid:2.16.840.1.113883.6.238","code":"2135-2","display":"Hispanic or Latino","userSelected":true}},{"url":"text","valueString":"Hispanic or Latino"}]}],"identifier":[{"type":{"coding":[{"system":"http://terminology.hl7.org/CodeSystem/v2-0203","code":"MR"}]},"system":"http://hospital.smarthealthit.org","value":"999999995"}],"name":[{"family":"Bertha","given":["Betty"]}],"gender":"female","birthDate":"1960-01-01"},"request":{"method":"PUT","url":"Patient/1968ff78-9027-4ea9-99c8-42282743bfc3"}},{"fullUrl":"https://madie.cms.gov/Encounter/Encounter-29","resource":{"resourceType":"Encounter","id":"c8b5f4d2-5e56-465f-89e3-d4467af9fa11","meta":{"profile":["http://hl7.org/fhir/us/qicore/StructureDefinition/qicore-encounter"]},"status":"finished","class":{"system":"http://terminology.hl7.org/CodeSystem/v3-ActCode","code":"AMB","display":"ambulatory"},"type":[{"coding":[{"system":"http://snomed.info/sct","code":"185317003","display":"Telephone contact by consultant (procedure)"}]}],"subject":{"reference":"Patient/1968ff78-9027-4ea9-99c8-42282743bfc3"},"period":{"start":"2025-01-01T00:00:00.000Z","end":"2025-01-01T01:15:00.000Z"}},"request":{"method":"PUT","url":"Encounter/c8b5f4d2-5e56-465f-89e3-d4467af9fa11"}},{"fullUrl":"https://madie.cms.gov/MedicationRequest/MedicationRequest-19","resource":{"resourceType":"MedicationRequest","id":"37da1db5-511e-4182-bf56-00d51c60ef1f","meta":{"profile":["http://hl7.org/fhir/us/qicore/StructureDefinition/qicore-medicationrequest"]},"status":"active","intent":"order","category":[{"coding":[{"system":"http://terminology.hl7.org/CodeSystem/medicationrequest-category","code":"discharge","display":"Discharge"}]}],"medicationCodeableConcept":{"coding":[{"system":"http://www.nlm.nih.gov/research/umls/rxnorm","code":"197745","display":"guanfacine 1 MG Oral Tablet","userSelected":true}]},"subject":{"reference":"Patient/1968ff78-9027-4ea9-99c8-42282743bfc3"},"authoredOn":"2025-01-01T00:00:00.000Z","requester":{"reference":"Practitioner/example"}},"request":{"method":"PUT","url":"MedicationRequest/37da1db5-511e-4182-bf56-00d51c60ef1f"}},{"fullUrl":"https://madie.cms.gov/MedicationRequest/MedicationRequest-20","resource":{"resourceType":"MedicationRequest","id":"9eaf09a9-c1f1-4fe8-9c75-f7930e9c1c34","meta":{"profile":["http://hl7.org/fhir/us/qicore/StructureDefinition/qicore-medicationrequest"]},"status":"active","intent":"order","category":[{"coding":[{"system":"http://terminology.hl7.org/CodeSystem/medicationrequest-category","code":"discharge","display":"Discharge"}]}],"medicationCodeableConcept":{"coding":[{"system":"http://www.nlm.nih.gov/research/umls/rxnorm","code":"197745","display":"guanfacine 1 MG Oral Tablet","userSelected":true}]},"subject":{"reference":"Patient/1968ff78-9027-4ea9-99c8-42282743bfc3"},"authoredOn":"2025-01-02T00:00:00.000Z","requester":{"reference":"Practitioner/example"}},"request":{"method":"PUT","url":"MedicationRequest/9eaf09a9-c1f1-4fe8-9c75-f7930e9c1c34"}},{"fullUrl":"https://madie.cms.gov/MeasureReport/7bb3dbc3-d8db-451c-a028-809826e9d88e","resource":{"resourceType":"MeasureReport","id":"7bb3dbc3-d8db-451c-a028-809826e9d88e","meta":{"profile":["http://hl7.org/fhir/us/cqfmeasures/StructureDefinition/test-case-cqfm"]},"contained":[{"resourceType":"Parameters","id":"0de1e48e-94bd-4823-9240-647700ea21ee-parameters","parameter":[{"name":"subject","valueString":"1968ff78-9027-4ea9-99c8-42282743bfc3"}]}],"extension":[{"url":"http://hl7.org/fhir/us/cqfmeasures/StructureDefinition/cqfm-inputParameters","valueReference":{"reference":"#0de1e48e-94bd-4823-9240-647700ea21ee-parameters"}},{"url":"http://hl7.org/fhir/us/cqfmeasures/StructureDefinition/cqfm-testCaseDescription","valueMarkdown":"Guanfacine meds ordered on different days"}],"modifierExtension":[{"url":"http://hl7.org/fhir/us/cqfmeasures/StructureDefinition/cqfm-isTestCase","valueBoolean":true}],"status":"complete","type":"individual","measure":"https://madie.cms.gov/Measure/UseofHighRiskMedicationsintheElderlyFHIR","period":{"start":"2025-01-01","end":"2025-12-31"},"group":[{"population":[{"code":{"coding":[{"system":"http://terminology.hl7.org/CodeSystem/measure-population","code":"initial-population","display":"Initial Population"}]},"count":1},{"code":{"coding":[{"system":"http://terminology.hl7.org/CodeSystem/measure-population","code":"denominator","display":"Denominator"}]},"count":1},{"code":{"coding":[{"system":"http://terminology.hl7.org/CodeSystem/measure-population","code":"denominator-exclusion","display":"Denominator Exclusion"}]},"count":0},{"code":{"coding":[{"system":"http://terminology.hl7.org/CodeSystem/measure-population","code":"numerator","display":"Numerator"}]},"count":1}]},{"population":[{"code":{"coding":[{"system":"http://terminology.hl7.org/CodeSystem/measure-population","code":"initial-population","display":"Initial Population"}]},"count":1},{"code":{"coding":[{"system":"http://terminology.hl7.org/CodeSystem/measure-population","code":"denominator","display":"Denominator"}]},"count":1},{"code":{"coding":[{"system":"http://terminology.hl7.org/CodeSystem/measure-population","code":"denominator-exclusion","display":"Denominator Exclusion"}]},"count":0},{"code":{"coding":[{"system":"http://terminology.hl7.org/CodeSystem/measure-population","code":"numerator","display":"Numerator"}]},"count":0}]},{"population":[{"code":{"coding":[{"system":"http://terminology.hl7.org/CodeSystem/measure-population","code":"initial-population","display":"Initial Population"}]},"count":1},{"code":{"coding":[{"system":"http://terminology.hl7.org/CodeSystem/measure-population","code":"denominator","display":"Denominator"}]},"count":1},{"code":{"coding":[{"system":"http://terminology.hl7.org/CodeSystem/measure-population","code":"denominator-exclusion","display":"Denominator Exclusion"}]},"count":0},{"code":{"coding":[{"system":"http://terminology.hl7.org/CodeSystem/measure-population","code":"numerator","display":"Numerator"}]},"count":1}]}]},"request":{"method":"PUT","url":"MeasureReport/7bb3dbc3-d8db-451c-a028-809826e9d88e"}}]}