{"resourceType":"Bundle","id":"tests-407618d7-e2c7-4aae-9744-b447193c4c15-bundle","type":"transaction","entry":[{"fullUrl":"https://madie.cms.gov/Patient/407618d7-e2c7-4aae-9744-b447193c4c15","resource":{"resourceType":"Patient","id":"407618d7-e2c7-4aae-9744-b447193c4c15","meta":{"profile":["http://hl7.org/fhir/us/qicore/StructureDefinition/qicore-patient"]},"extension":[{"url":"http://hl7.org/fhir/us/core/StructureDefinition/us-core-race","extension":[{"url":"ombCategory","valueCoding":{"system":"urn:oid:2.16.840.1.113883.6.238","code":"2028-9","display":"Asian","userSelected":true}},{"url":"text","valueString":"Asian"}]},{"url":"http://hl7.org/fhir/us/core/StructureDefinition/us-core-ethnicity","extension":[{"url":"ombCategory","valueCoding":{"system":"urn:oid:2.16.840.1.113883.6.238","code":"2135-2","display":"Hispanic or Latino","userSelected":true}},{"url":"text","valueString":"Hispanic or Latino"}]}],"identifier":[{"type":{"coding":[{"system":"http://terminology.hl7.org/CodeSystem/v2-0203","code":"MR"}]},"system":"http://hospital.smarthealthit.org","value":"999999995"}],"name":[{"family":"Bertha","given":["Betty"]}],"gender":"female","birthDate":"1960-01-01"},"request":{"method":"PUT","url":"Patient/407618d7-e2c7-4aae-9744-b447193c4c15"}},{"fullUrl":"https://madie.cms.gov/Encounter/Encounter-34","resource":{"resourceType":"Encounter","id":"ed06e60d-721e-47d3-b3c5-6bf74d8c4abb","meta":{"profile":["http://hl7.org/fhir/us/qicore/StructureDefinition/qicore-encounter"]},"status":"finished","class":{"system":"http://terminology.hl7.org/CodeSystem/v3-ActCode","code":"AMB","display":"ambulatory"},"type":[{"coding":[{"system":"http://snomed.info/sct","code":"185317003","display":"Telephone contact by consultant (procedure)"}]}],"subject":{"reference":"Patient/407618d7-e2c7-4aae-9744-b447193c4c15"},"period":{"start":"2025-01-01T00:00:00.000Z","end":"2025-01-01T01:15:00.000Z"}},"request":{"method":"PUT","url":"Encounter/ed06e60d-721e-47d3-b3c5-6bf74d8c4abb"}},{"fullUrl":"https://madie.cms.gov/MedicationRequest/MedicationRequest-28","resource":{"resourceType":"MedicationRequest","id":"94257cfa-542b-4ce5-a9a4-64d467208aca","meta":{"profile":["http://hl7.org/fhir/us/qicore/StructureDefinition/qicore-medicationrequest"]},"status":"active","intent":"order","category":[{"coding":[{"system":"http://terminology.hl7.org/CodeSystem/medicationrequest-category","code":"discharge","display":"Discharge"}]}],"medicationCodeableConcept":{"coding":[{"system":"http://www.nlm.nih.gov/research/umls/rxnorm","code":"197928","display":"meprobamate 200 MG Oral Tablet","userSelected":true}]},"subject":{"reference":"Patient/407618d7-e2c7-4aae-9744-b447193c4c15"},"authoredOn":"2025-01-01T00:00:00.000Z","requester":{"reference":"Practitioner/example"}},"request":{"method":"PUT","url":"MedicationRequest/94257cfa-542b-4ce5-a9a4-64d467208aca"}},{"fullUrl":"https://madie.cms.gov/MedicationRequest/MedicationRequest-29","resource":{"resourceType":"MedicationRequest","id":"22a6a427-fbc6-44df-bec1-94c0c8967a8f","meta":{"profile":["http://hl7.org/fhir/us/qicore/StructureDefinition/qicore-medicationrequest"]},"status":"active","intent":"order","category":[{"coding":[{"system":"http://terminology.hl7.org/CodeSystem/medicationrequest-category","code":"discharge","display":"Discharge"}]}],"medicationCodeableConcept":{"coding":[{"system":"http://www.nlm.nih.gov/research/umls/rxnorm","code":"197928","display":"meprobamate 200 MG Oral Tablet","userSelected":true}]},"subject":{"reference":"Patient/407618d7-e2c7-4aae-9744-b447193c4c15"},"authoredOn":"2025-01-02T00:00:00.000Z","requester":{"reference":"Practitioner/example"}},"request":{"method":"PUT","url":"MedicationRequest/22a6a427-fbc6-44df-bec1-94c0c8967a8f"}},{"fullUrl":"https://madie.cms.gov/MeasureReport/fe5fcbc7-c494-462e-ba9e-2aef37fe82d3","resource":{"resourceType":"MeasureReport","id":"fe5fcbc7-c494-462e-ba9e-2aef37fe82d3","meta":{"profile":["http://hl7.org/fhir/us/cqfmeasures/StructureDefinition/test-case-cqfm"]},"contained":[{"resourceType":"Parameters","id":"b2c9bee7-bc65-4a31-b074-36b2779ee1a5-parameters","parameter":[{"name":"subject","valueString":"407618d7-e2c7-4aae-9744-b447193c4c15"}]}],"extension":[{"url":"http://hl7.org/fhir/us/cqfmeasures/StructureDefinition/cqfm-inputParameters","valueReference":{"reference":"#b2c9bee7-bc65-4a31-b074-36b2779ee1a5-parameters"}},{"url":"http://hl7.org/fhir/us/cqfmeasures/StructureDefinition/cqfm-testCaseDescription","valueMarkdown":"Meprobamate meds ordered on different days"}],"modifierExtension":[{"url":"http://hl7.org/fhir/us/cqfmeasures/StructureDefinition/cqfm-isTestCase","valueBoolean":true}],"status":"complete","type":"individual","measure":"https://madie.cms.gov/Measure/UseofHighRiskMedicationsintheElderlyFHIR","period":{"start":"2025-01-01","end":"2025-12-31"},"group":[{"population":[{"code":{"coding":[{"system":"http://terminology.hl7.org/CodeSystem/measure-population","code":"initial-population","display":"Initial Population"}]},"count":1},{"code":{"coding":[{"system":"http://terminology.hl7.org/CodeSystem/measure-population","code":"denominator","display":"Denominator"}]},"count":1},{"code":{"coding":[{"system":"http://terminology.hl7.org/CodeSystem/measure-population","code":"denominator-exclusion","display":"Denominator Exclusion"}]},"count":0},{"code":{"coding":[{"system":"http://terminology.hl7.org/CodeSystem/measure-population","code":"numerator","display":"Numerator"}]},"count":1}]},{"population":[{"code":{"coding":[{"system":"http://terminology.hl7.org/CodeSystem/measure-population","code":"initial-population","display":"Initial Population"}]},"count":1},{"code":{"coding":[{"system":"http://terminology.hl7.org/CodeSystem/measure-population","code":"denominator","display":"Denominator"}]},"count":1},{"code":{"coding":[{"system":"http://terminology.hl7.org/CodeSystem/measure-population","code":"denominator-exclusion","display":"Denominator Exclusion"}]},"count":0},{"code":{"coding":[{"system":"http://terminology.hl7.org/CodeSystem/measure-population","code":"numerator","display":"Numerator"}]},"count":0}]},{"population":[{"code":{"coding":[{"system":"http://terminology.hl7.org/CodeSystem/measure-population","code":"initial-population","display":"Initial Population"}]},"count":1},{"code":{"coding":[{"system":"http://terminology.hl7.org/CodeSystem/measure-population","code":"denominator","display":"Denominator"}]},"count":1},{"code":{"coding":[{"system":"http://terminology.hl7.org/CodeSystem/measure-population","code":"denominator-exclusion","display":"Denominator Exclusion"}]},"count":0},{"code":{"coding":[{"system":"http://terminology.hl7.org/CodeSystem/measure-population","code":"numerator","display":"Numerator"}]},"count":1}]}]},"request":{"method":"PUT","url":"MeasureReport/fe5fcbc7-c494-462e-ba9e-2aef37fe82d3"}}]}