{
  "resourceType": "Bundle",
  "id": "633b3fa00968f80122503d2a",
  "type": "transaction",
  "entry": [ {
    "fullUrl": "https://madie.cms.gov/Patient/e0de513e-db51-4a11-9592-546b8c7a15e5",
    "resource": {
      "resourceType": "Patient",
      "id": "e0de513e-db51-4a11-9592-546b8c7a15e5",
      "meta": {
        "profile": [ "http://hl7.org/fhir/us/qicore/StructureDefinition/qicore-patient" ]
      },
      "text": {
        "status": "generated",
        "div": "<div xmlns=\"http://www.w3.org/1999/xhtml\"><div class=\"hapiHeaderText\">DelProcRelDtTmMidnightDayAftEncEnds <b>IPFAIL </b></div><table class=\"hapiPropertyTable\"><tbody><tr><td>Date of birth</td><td><span>31 January 2004</span></td></tr></tbody></table></div>"
      },
      "extension": [ {
        "url": "http://hl7.org/fhir/us/core/StructureDefinition/us-core-race",
        "extension": [ {
          "url": "ombCategory",
          "valueCoding": {
            "system": "urn:oid:2.16.840.1.113883.6.238",
            "code": "1002-5",
            "display": "American Indian or Alaska Native",
            "userSelected": true
          }
        }, {
          "url": "text",
          "valueString": "American Indian or Alaska Native"
        } ]
      }, {
        "url": "http://hl7.org/fhir/us/core/StructureDefinition/us-core-ethnicity",
        "extension": [ {
          "url": "ombCategory",
          "valueCoding": {
            "system": "urn:oid:2.16.840.1.113883.6.238",
            "code": "2135-2",
            "display": "Hispanic or Latino",
            "userSelected": true
          }
        }, {
          "url": "text",
          "valueString": "Hispanic or Latino"
        } ]
      } ],
      "identifier": [ {
        "type": {
          "coding": [ {
            "system": "http://terminology.hl7.org/CodeSystem/v2-0203",
            "code": "MR"
          } ]
        },
        "system": "https://bonnie-fhir.healthit.gov/",
        "value": "633b3fa00968f80122503d2a"
      } ],
      "active": true,
      "name": [ {
        "use": "usual",
        "family": "IPFail",
        "given": [ "DelProcRelDtTmMidnightDayAftEncEnds" ]
      } ],
      "gender": "female",
      "birthDate": "2004-01-31"
    },
    "request": {
      "method": "PUT",
      "url": "Patient/e0de513e-db51-4a11-9592-546b8c7a15e5"
    }
  }, {
    "fullUrl": "https://madie.cms.gov/Encounter/98e7ccf8-25b9-478a-a75a-1d274df1dcb0",
    "resource": {
      "resourceType": "Encounter",
      "id": "98e7ccf8-25b9-478a-a75a-1d274df1dcb0",
      "meta": {
        "profile": [ "http://hl7.org/fhir/us/qicore/StructureDefinition/qicore-encounter" ]
      },
      "status": "finished",
      "class": {
        "system": "http://terminology.hl7.org/CodeSystem/v3-ActCode",
        "code": "IMP",
        "display": "inpatient encounter"
      },
      "type": [ {
        "coding": [ {
          "system": "http://snomed.info/sct",
          "code": "183452005"
        } ]
      } ],
      "subject": {
        "reference": "Patient/e0de513e-db51-4a11-9592-546b8c7a15e5"
      },
      "period": {
        "start": "2025-02-01T09:00:00.000Z",
        "end": "2025-02-05T08:15:00.000Z"
      }
    },
    "request": {
      "method": "PUT",
      "url": "Encounter/98e7ccf8-25b9-478a-a75a-1d274df1dcb0"
    }
  }, {
    "fullUrl": "https://madie.cms.gov/Procedure/1a80b0ed-7ed8-4fbc-90ff-ca18ebeafd66",
    "resource": {
      "resourceType": "Procedure",
      "id": "1a80b0ed-7ed8-4fbc-90ff-ca18ebeafd66",
      "meta": {
        "profile": [ "http://hl7.org/fhir/us/qicore/StructureDefinition/qicore-procedure" ]
      },
      "extension": [ {
        "url": "http://hl7.org/fhir/us/qicore/StructureDefinition/qicore-recorded",
        "valueDateTime": "2013-04-05T09:35:00-04:00"
      } ],
      "status": "completed",
      "code": {
        "coding": [ {
          "system": "http://snomed.info/sct",
          "code": "10745001"
        } ]
      },
      "subject": {
        "reference": "Patient/e0de513e-db51-4a11-9592-546b8c7a15e5"
      },
      "performedDateTime": "2025-02-06T00:00:00.000+00:00"
    },
    "request": {
      "method": "PUT",
      "url": "Procedure/1a80b0ed-7ed8-4fbc-90ff-ca18ebeafd66"
    }
  }, {
    "fullUrl": "https://madie.cms.gov/Coverage/063b9915-a9a6-4ad3-baa8-8298850e2317",
    "resource": {
      "resourceType": "Coverage",
      "id": "063b9915-a9a6-4ad3-baa8-8298850e2317",
      "meta": {
        "profile": [ "http://hl7.org/fhir/us/qicore/StructureDefinition/qicore-coverage" ]
      },
      "status": "active",
      "beneficiary": {
        "reference": "Patient/e0de513e-db51-4a11-9592-546b8c7a15e5"
      },
      "payor": [ {
        "reference": "Organization/18faf31f-0694-48b6-913a-08ad8e411e68"
      } ]
    },
    "request": {
      "method": "PUT",
      "url": "Coverage/063b9915-a9a6-4ad3-baa8-8298850e2317"
    }
  }, {
    "fullUrl": "https://madie.cms.gov/Organization/18faf31f-0694-48b6-913a-08ad8e411e68",
    "resource": {
      "resourceType": "Organization",
      "id": "18faf31f-0694-48b6-913a-08ad8e411e68",
      "meta": {
        "profile": [ "http://hl7.org/fhir/us/qicore/StructureDefinition/qicore-organization" ]
      },
      "identifier": [ {
        "use": "temp",
        "system": "urn:oid:2.16.840.1.113883.4.4",
        "value": "21-3259825"
      } ],
      "active": true,
      "type": [ {
        "coding": [ {
          "system": "http://terminology.hl7.org/CodeSystem/organization-type",
          "code": "pay",
          "display": "Payer"
        } ]
      } ],
      "name": "Blue Cross Blue Shield of Texas",
      "telecom": [ {
        "system": "phone",
        "value": "(+1) 972-766-6900"
      } ],
      "address": [ {
        "use": "billing",
        "type": "postal",
        "line": [ "P.O. Box 660044" ],
        "city": "Dallas",
        "state": "TX",
        "postalCode": "75266-0044",
        "country": "USA"
      } ]
    },
    "request": {
      "method": "PUT",
      "url": "Organization/18faf31f-0694-48b6-913a-08ad8e411e68"
    }
  }, {
    "fullUrl": "https://madie.cms.gov/Practitioner/70e58814-8e60-47a7-b559-c347b3da18b2",
    "resource": {
      "resourceType": "Practitioner",
      "id": "70e58814-8e60-47a7-b559-c347b3da18b2",
      "identifier": [ {
        "system": "http://hl7.org/fhir/sid/us-npi",
        "value": "123456"
      } ],
      "name": [ {
        "family": "Evil",
        "prefix": [ "Dr" ]
      } ]
    },
    "request": {
      "method": "PUT",
      "url": "Practitioner/70e58814-8e60-47a7-b559-c347b3da18b2"
    }
  }, {
    "fullUrl": "https://madie.cms.gov/MeasureReport/c8f319ec-3055-4d12-b2ab-69587b3e291e",
    "resource": {
      "resourceType": "MeasureReport",
      "id": "c8f319ec-3055-4d12-b2ab-69587b3e291e",
      "meta": {
        "profile": [ "http://hl7.org/fhir/us/cqfmeasures/StructureDefinition/test-case-cqfm" ]
      },
      "contained": [ {
        "resourceType": "Parameters",
        "id": "bf81398a-0c20-4210-a476-1eb61c0dd6f7-parameters",
        "parameter": [ {
          "name": "subject",
          "valueString": "e0de513e-db51-4a11-9592-546b8c7a15e5"
        } ]
      } ],
      "extension": [ {
        "url": "http://hl7.org/fhir/us/cqfmeasures/StructureDefinition/cqfm-inputParameters",
        "valueReference": {
          "reference": "#bf81398a-0c20-4210-a476-1eb61c0dd6f7-parameters"
        }
      }, {
        "url": "http://hl7.org/fhir/us/cqfmeasures/StructureDefinition/cqfm-testCaseDescription",
        "valueMarkdown": "Delivery Procedure rel date/time = midnight day after encounter ends.\n"
      } ],
      "modifierExtension": [ {
        "url": "http://hl7.org/fhir/us/cqfmeasures/StructureDefinition/cqfm-isTestCase",
        "valueBoolean": true
      } ],
      "status": "complete",
      "type": "individual",
      "measure": "https://madie.cms.gov/Measure/CMS1028FHIRPCSevereOBComps",
      "period": {
        "start": "2025-01-01",
        "end": "2025-12-31"
      },
      "group": [ {
        "population": [ {
          "code": {
            "coding": [ {
              "system": "http://terminology.hl7.org/CodeSystem/measure-population",
              "code": "initial-population",
              "display": "Initial Population"
            } ]
          },
          "count": 0
        }, {
          "code": {
            "coding": [ {
              "system": "http://terminology.hl7.org/CodeSystem/measure-population",
              "code": "denominator",
              "display": "Denominator"
            } ]
          },
          "count": 0
        }, {
          "code": {
            "coding": [ {
              "system": "http://terminology.hl7.org/CodeSystem/measure-population",
              "code": "numerator",
              "display": "Numerator"
            } ]
          },
          "count": 0
        }, {
          "code": {
            "coding": [ {
              "system": "http://terminology.hl7.org/CodeSystem/measure-population",
              "code": "numerator-exclusion",
              "display": "Numerator Exclusion"
            } ]
          },
          "count": 0
        } ]
      } ],
      "evaluatedResource": [ {
        "reference": "Patient/e0de513e-db51-4a11-9592-546b8c7a15e5"
      }, {
        "reference": "Encounter/98e7ccf8-25b9-478a-a75a-1d274df1dcb0"
      }, {
        "reference": "Procedure/1a80b0ed-7ed8-4fbc-90ff-ca18ebeafd66"
      }, {
        "reference": "Coverage/063b9915-a9a6-4ad3-baa8-8298850e2317"
      }, {
        "reference": "Organization/18faf31f-0694-48b6-913a-08ad8e411e68"
      }, {
        "reference": "Practitioner/70e58814-8e60-47a7-b559-c347b3da18b2"
      } ]
    },
    "request": {
      "method": "PUT",
      "url": "MeasureReport/c8f319ec-3055-4d12-b2ab-69587b3e291e"
    }
  } ]
}