{
  "resourceType": "Bundle",
  "id": "Patient-9-NumPass-FutureFallRiskScreened",
  "type": "transaction",
  "entry": [ {
    "fullUrl": "https://madie.cms.gov/Patient/67723351-e3ad-40b1-be93-e4b7cd7b92f0",
    "resource": {
      "resourceType": "Patient",
      "id": "67723351-e3ad-40b1-be93-e4b7cd7b92f0",
      "meta": {
        "profile": [ "http://hl7.org/fhir/us/qicore/StructureDefinition/qicore-patient" ]
      },
      "extension": [ {
        "url": "http://hl7.org/fhir/us/core/StructureDefinition/us-core-race",
        "extension": [ {
          "url": "ombCategory",
          "valueCoding": {
            "system": "urn:oid:2.16.840.1.113883.6.238",
            "code": "2028-9",
            "display": "Asian"
          }
        }, {
          "url": "text",
          "valueString": "Asian"
        } ]
      }, {
        "url": "http://hl7.org/fhir/us/core/StructureDefinition/us-core-ethnicity",
        "extension": [ {
          "url": "ombCategory",
          "valueCoding": {
            "system": "urn:oid:2.16.840.1.113883.6.238",
            "code": "2135-2",
            "display": "Hispanic or Latino"
          }
        }, {
          "url": "text",
          "valueString": "Hispanic or Latino"
        } ]
      } ],
      "identifier": [ {
        "system": "http://hospital.smarthealthit.org",
        "value": "999999995"
      } ],
      "name": [ {
        "family": "Bertha",
        "given": [ "Betty" ]
      } ],
      "gender": "female",
      "birthDate": "1960-01-01"
    },
    "request": {
      "method": "PUT",
      "url": "Patient/67723351-e3ad-40b1-be93-e4b7cd7b92f0"
    }
  }, {
    "fullUrl": "https://madie.cms.gov/Encounter/Encounter-11",
    "resource": {
      "resourceType": "Encounter",
      "id": "Encounter-11",
      "meta": {
        "profile": [ "http://hl7.org/fhir/us/qicore/StructureDefinition/qicore-encounter" ]
      },
      "status": "finished",
      "class": {
        "system": "http://terminology.hl7.org/CodeSystem/v3-ActCode",
        "code": "AMB",
        "display": "ambulatory"
      },
      "type": [ {
        "coding": [ {
          "system": "http://snomed.info/sct",
          "code": "78831002",
          "display": "Comprehensive eye examination (procedure)"
        } ]
      } ],
      "subject": {
        "reference": "Patient/67723351-e3ad-40b1-be93-e4b7cd7b92f0"
      },
      "period": {
        "start": "2025-01-01T00:00:00.000Z",
        "end": "2025-01-01T00:15:00.000Z"
      }
    },
    "request": {
      "method": "PUT",
      "url": "Encounter/Encounter-11"
    }
  }, {
    "fullUrl": "https://madie.cms.gov/Observation/Observation-2",
    "resource": {
      "resourceType": "Observation",
      "id": "Observation-2",
      "meta": {
        "profile": [ "http://hl7.org/fhir/us/qicore/StructureDefinition/qicore-observation" ]
      },
      "status": "final",
      "category": [ {
        "coding": [ {
          "system": "http://terminology.hl7.org/CodeSystem/observation-category",
          "code": "survey"
        } ]
      } ],
      "code": {
        "coding": [ {
          "system": "http://loinc.org",
          "code": "52552-7",
          "display": "Falls in the past year"
        } ]
      },
      "subject": {
        "reference": "Patient/67723351-e3ad-40b1-be93-e4b7cd7b92f0"
      },
      "effectivePeriod": {
        "start": "2025-01-01T00:00:00.000Z",
        "end": "2025-01-01T00:15:00.000Z"
      },
      "valueCodeableConcept": {
        "coding": [ {
          "system": "http://snomed.info/sct",
          "code": "373066001",
          "display": "Yes (qualifier value)"
        } ]
      }
    },
    "request": {
      "method": "PUT",
      "url": "Observation/Observation-2"
    }
  }, {
    "fullUrl": "https://madie.cms.gov/MeasureReport/dacce235-8027-421e-aaae-d01da228757a",
    "resource": {
      "resourceType": "MeasureReport",
      "id": "dacce235-8027-421e-aaae-d01da228757a",
      "meta": {
        "profile": [ "http://hl7.org/fhir/us/cqfmeasures/StructureDefinition/test-case-cqfm" ]
      },
      "contained": [ {
        "resourceType": "Parameters",
        "id": "972881a4-8beb-4603-9c1d-b7b1b177cb94-parameters",
        "parameter": [ {
          "name": "subject",
          "valueString": "67723351-e3ad-40b1-be93-e4b7cd7b92f0"
        } ]
      } ],
      "extension": [ {
        "url": "http://hl7.org/fhir/us/cqfmeasures/StructureDefinition/cqfm-inputParameters",
        "valueReference": {
          "reference": "#972881a4-8beb-4603-9c1d-b7b1b177cb94-parameters"
        }
      }, {
        "url": "http://hl7.org/fhir/us/cqfmeasures/StructureDefinition/cqfm-testCaseDescription",
        "valueMarkdown": "Patient that has a future falls risk screening done."
      } ],
      "modifierExtension": [ {
        "url": "http://hl7.org/fhir/us/cqfmeasures/StructureDefinition/cqfm-isTestCase",
        "valueBoolean": true
      } ],
      "status": "complete",
      "type": "individual",
      "measure": "https://madie.cms.gov/Measure/FallsScreeningForFutureFallRiskFHIR",
      "period": {
        "start": "2025-01-01",
        "end": "2025-12-31"
      },
      "group": [ {
        "population": [ {
          "code": {
            "coding": [ {
              "system": "http://terminology.hl7.org/CodeSystem/measure-population",
              "code": "initial-population",
              "display": "Initial Population"
            } ]
          },
          "count": 1
        }, {
          "code": {
            "coding": [ {
              "system": "http://terminology.hl7.org/CodeSystem/measure-population",
              "code": "denominator",
              "display": "Denominator"
            } ]
          },
          "count": 1
        }, {
          "code": {
            "coding": [ {
              "system": "http://terminology.hl7.org/CodeSystem/measure-population",
              "code": "denominator-exclusion",
              "display": "Denominator Exclusion"
            } ]
          },
          "count": 0
        }, {
          "code": {
            "coding": [ {
              "system": "http://terminology.hl7.org/CodeSystem/measure-population",
              "code": "numerator",
              "display": "Numerator"
            } ]
          },
          "count": 1
        } ]
      } ],
      "evaluatedResource": [ {
        "reference": "Patient/67723351-e3ad-40b1-be93-e4b7cd7b92f0"
      }, {
        "reference": "Encounter/Encounter-11"
      }, {
        "reference": "Observation/Observation-2"
      } ]
    },
    "request": {
      "method": "PUT",
      "url": "MeasureReport/dacce235-8027-421e-aaae-d01da228757a"
    }
  } ]
}