{
  "resourceType": "Bundle",
  "id": "633b3f9e0968f80122503cd8",
  "type": "transaction",
  "entry": [ {
    "fullUrl": "https://madie.cms.gov/Patient/608797a7-54ce-4533-aa4b-81bb646a35bc",
    "resource": {
      "resourceType": "Patient",
      "id": "608797a7-54ce-4533-aa4b-81bb646a35bc",
      "meta": {
        "profile": [ "http://hl7.org/fhir/us/qicore/StructureDefinition/qicore-patient" ]
      },
      "text": {
        "status": "generated",
        "div": "<div xmlns=\"http://www.w3.org/1999/xhtml\"><div class=\"hapiHeaderText\">Test3EDDMinutesImpactOnWksGest <b>DENOMPASS </b></div><table class=\"hapiPropertyTable\"><tbody><tr><td>Date of birth</td><td><span>01 February 1958</span></td></tr></tbody></table></div>"
      },
      "extension": [ {
        "url": "http://hl7.org/fhir/us/core/StructureDefinition/us-core-race",
        "extension": [ {
          "url": "ombCategory",
          "valueCoding": {
            "system": "urn:oid:2.16.840.1.113883.6.238",
            "code": "1002-5",
            "display": "American Indian or Alaska Native",
            "userSelected": true
          }
        }, {
          "url": "text",
          "valueString": "American Indian or Alaska Native"
        } ]
      }, {
        "url": "http://hl7.org/fhir/us/core/StructureDefinition/us-core-ethnicity",
        "extension": [ {
          "url": "ombCategory",
          "valueCoding": {
            "system": "urn:oid:2.16.840.1.113883.6.238",
            "code": "2135-2",
            "display": "Hispanic or Latino",
            "userSelected": true
          }
        }, {
          "url": "text",
          "valueString": "Hispanic or Latino"
        } ]
      } ],
      "identifier": [ {
        "type": {
          "coding": [ {
            "system": "http://terminology.hl7.org/CodeSystem/v2-0203",
            "code": "MR"
          } ]
        },
        "system": "https://bonnie-fhir.healthit.gov/",
        "value": "633b3f9e0968f80122503cd8"
      } ],
      "active": true,
      "name": [ {
        "use": "usual",
        "family": "DENOMPass",
        "given": [ "Test3EDDMinutesImpactOnWksGest" ]
      } ],
      "gender": "female",
      "birthDate": "1970-02-01"
    },
    "request": {
      "method": "PUT",
      "url": "Patient/608797a7-54ce-4533-aa4b-81bb646a35bc"
    }
  }, {
    "fullUrl": "https://madie.cms.gov/Observation/e2ea1b32-4112-434c-9b9f-191449a6501b",
    "resource": {
      "resourceType": "Observation",
      "id": "e2ea1b32-4112-434c-9b9f-191449a6501b",
      "meta": {
        "profile": [ "http://hl7.org/fhir/us/qicore/StructureDefinition/qicore-observation" ]
      },
      "status": "final",
      "category": [ {
        "coding": [ {
          "system": "http://terminology.hl7.org/CodeSystem/observation-category",
          "code": "exam",
          "display": "exam",
          "userSelected": true
        } ]
      } ],
      "code": {
        "coding": [ {
          "system": "http://loinc.org",
          "code": "93857-1"
        } ]
      },
      "subject": {
        "reference": "Patient/608797a7-54ce-4533-aa4b-81bb646a35bc"
      },
      "effectiveDateTime": "2025-02-01T08:00:00.000+00:00",
      "valueDateTime": "2025-02-01T08:00:00+00:00"
    },
    "request": {
      "method": "PUT",
      "url": "Observation/e2ea1b32-4112-434c-9b9f-191449a6501b"
    }
  }, {
    "fullUrl": "https://madie.cms.gov/Observation/620df25d-ec5c-4489-b683-0b393cd3cd4e",
    "resource": {
      "resourceType": "Observation",
      "id": "620df25d-ec5c-4489-b683-0b393cd3cd4e",
      "meta": {
        "profile": [ "http://hl7.org/fhir/us/qicore/StructureDefinition/qicore-observation" ]
      },
      "status": "final",
      "category": [ {
        "coding": [ {
          "system": "http://terminology.hl7.org/CodeSystem/observation-category",
          "code": "exam",
          "display": "exam",
          "userSelected": true
        } ]
      } ],
      "code": {
        "coding": [ {
          "system": "http://loinc.org",
          "code": "11778-8"
        } ]
      },
      "subject": {
        "reference": "Patient/608797a7-54ce-4533-aa4b-81bb646a35bc"
      },
      "effectiveDateTime": "2024-04-13T08:01:00.000+00:00",
      "valueDateTime": "2025-02-01T08:01:00.000+00:00"
    },
    "request": {
      "method": "PUT",
      "url": "Observation/620df25d-ec5c-4489-b683-0b393cd3cd4e"
    }
  }, {
    "fullUrl": "https://madie.cms.gov/Encounter/2d34b647-d4b1-41e2-8cbf-bc0ac6c726ba",
    "resource": {
      "resourceType": "Encounter",
      "id": "2d34b647-d4b1-41e2-8cbf-bc0ac6c726ba",
      "meta": {
        "profile": [ "http://hl7.org/fhir/us/qicore/StructureDefinition/qicore-encounter" ]
      },
      "status": "finished",
      "class": {
        "system": "http://terminology.hl7.org/CodeSystem/v3-ActCode",
        "code": "IMP",
        "display": "inpatient encounter"
      },
      "type": [ {
        "coding": [ {
          "system": "http://snomed.info/sct",
          "code": "183452005"
        } ]
      } ],
      "subject": {
        "reference": "Patient/608797a7-54ce-4533-aa4b-81bb646a35bc"
      },
      "period": {
        "start": "2025-01-30T08:00:00.000Z",
        "end": "2025-02-05T08:15:00.000Z"
      }
    },
    "request": {
      "method": "PUT",
      "url": "Encounter/2d34b647-d4b1-41e2-8cbf-bc0ac6c726ba"
    }
  }, {
    "fullUrl": "https://madie.cms.gov/Procedure/8a114e83-8abc-4326-81f0-3883d9b92c6d",
    "resource": {
      "resourceType": "Procedure",
      "id": "8a114e83-8abc-4326-81f0-3883d9b92c6d",
      "meta": {
        "profile": [ "http://hl7.org/fhir/us/qicore/StructureDefinition/qicore-procedure" ]
      },
      "extension": [ {
        "url": "http://hl7.org/fhir/us/qicore/StructureDefinition/qicore-recorded",
        "valueDateTime": "2013-04-05T09:35:00-04:00"
      } ],
      "status": "completed",
      "code": {
        "coding": [ {
          "system": "http://snomed.info/sct",
          "code": "10745001"
        } ]
      },
      "subject": {
        "reference": "Patient/608797a7-54ce-4533-aa4b-81bb646a35bc"
      },
      "performedPeriod": {
        "start": "2025-02-01T08:00:00.000Z"
      }
    },
    "request": {
      "method": "PUT",
      "url": "Procedure/8a114e83-8abc-4326-81f0-3883d9b92c6d"
    }
  }, {
    "fullUrl": "https://madie.cms.gov/Coverage/11c209f4-37df-4c7e-bfd2-8fd475a00019",
    "resource": {
      "resourceType": "Coverage",
      "id": "11c209f4-37df-4c7e-bfd2-8fd475a00019",
      "meta": {
        "profile": [ "http://hl7.org/fhir/us/qicore/StructureDefinition/qicore-coverage" ]
      },
      "status": "active",
      "beneficiary": {
        "reference": "Patient/608797a7-54ce-4533-aa4b-81bb646a35bc"
      },
      "payor": [ {
        "reference": "Organization/72f8bba1-95da-4c4a-bdc0-79ae557443d3"
      } ]
    },
    "request": {
      "method": "PUT",
      "url": "Coverage/11c209f4-37df-4c7e-bfd2-8fd475a00019"
    }
  }, {
    "fullUrl": "https://madie.cms.gov/Organization/72f8bba1-95da-4c4a-bdc0-79ae557443d3",
    "resource": {
      "resourceType": "Organization",
      "id": "72f8bba1-95da-4c4a-bdc0-79ae557443d3",
      "meta": {
        "profile": [ "http://hl7.org/fhir/us/qicore/StructureDefinition/qicore-organization" ]
      },
      "identifier": [ {
        "use": "temp",
        "system": "urn:oid:2.16.840.1.113883.4.4",
        "value": "21-3259825"
      } ],
      "active": true,
      "type": [ {
        "coding": [ {
          "system": "http://terminology.hl7.org/CodeSystem/organization-type",
          "code": "pay",
          "display": "Payer"
        } ]
      } ],
      "name": "Blue Cross Blue Shield of Texas",
      "telecom": [ {
        "system": "phone",
        "value": "(+1) 972-766-6900"
      } ],
      "address": [ {
        "use": "billing",
        "type": "postal",
        "line": [ "P.O. Box 660044" ],
        "city": "Dallas",
        "state": "TX",
        "postalCode": "75266-0044",
        "country": "USA"
      } ]
    },
    "request": {
      "method": "PUT",
      "url": "Organization/72f8bba1-95da-4c4a-bdc0-79ae557443d3"
    }
  }, {
    "fullUrl": "https://madie.cms.gov/Practitioner/1645d741-e410-4492-ab07-39c17eb715d3",
    "resource": {
      "resourceType": "Practitioner",
      "id": "1645d741-e410-4492-ab07-39c17eb715d3",
      "identifier": [ {
        "system": "http://hl7.org/fhir/sid/us-npi",
        "value": "123456"
      } ],
      "name": [ {
        "family": "Evil",
        "prefix": [ "Dr" ]
      } ]
    },
    "request": {
      "method": "PUT",
      "url": "Practitioner/1645d741-e410-4492-ab07-39c17eb715d3"
    }
  }, {
    "fullUrl": "https://madie.cms.gov/MeasureReport/8bc46527-aba7-4fcd-8e6d-aeae2c97cb2a",
    "resource": {
      "resourceType": "MeasureReport",
      "id": "8bc46527-aba7-4fcd-8e6d-aeae2c97cb2a",
      "meta": {
        "profile": [ "http://hl7.org/fhir/us/cqfmeasures/StructureDefinition/test-case-cqfm" ]
      },
      "contained": [ {
        "resourceType": "Parameters",
        "id": "bba596a4-9eb9-459a-ae58-3f3c56195da2-parameters",
        "parameter": [ {
          "name": "subject",
          "valueString": "608797a7-54ce-4533-aa4b-81bb646a35bc"
        } ]
      } ],
      "extension": [ {
        "url": "http://hl7.org/fhir/us/cqfmeasures/StructureDefinition/cqfm-inputParameters",
        "valueReference": {
          "reference": "#bba596a4-9eb9-459a-ae58-3f3c56195da2-parameters"
        }
      }, {
        "url": "http://hl7.org/fhir/us/cqfmeasures/StructureDefinition/cqfm-testCaseDescription",
        "valueMarkdown": "\"Delivery date = 2/1/2012 @0800.  EDD = 2/1/2012\n @0801.  Weeks gestation = 40.\"  To test the impact on calculated weeks gestation, I temporarily changed the logic of this definition:  \"Del Enc with CGA Greater than or Equal to 20 Weeks\" to = 40.\n"
      } ],
      "modifierExtension": [ {
        "url": "http://hl7.org/fhir/us/cqfmeasures/StructureDefinition/cqfm-isTestCase",
        "valueBoolean": true
      } ],
      "status": "complete",
      "type": "individual",
      "measure": "https://madie.cms.gov/Measure/CMS1028FHIRPCSevereOBComps",
      "period": {
        "start": "2025-01-01",
        "end": "2025-12-31"
      },
      "group": [ {
        "population": [ {
          "code": {
            "coding": [ {
              "system": "http://terminology.hl7.org/CodeSystem/measure-population",
              "code": "initial-population",
              "display": "Initial Population"
            } ]
          },
          "count": 1
        }, {
          "code": {
            "coding": [ {
              "system": "http://terminology.hl7.org/CodeSystem/measure-population",
              "code": "denominator",
              "display": "Denominator"
            } ]
          },
          "count": 1
        }, {
          "code": {
            "coding": [ {
              "system": "http://terminology.hl7.org/CodeSystem/measure-population",
              "code": "numerator",
              "display": "Numerator"
            } ]
          },
          "count": 0
        }, {
          "code": {
            "coding": [ {
              "system": "http://terminology.hl7.org/CodeSystem/measure-population",
              "code": "numerator-exclusion",
              "display": "Numerator Exclusion"
            } ]
          },
          "count": 0
        } ]
      }, {
        "population": [ {
          "code": {
            "coding": [ {
              "system": "http://terminology.hl7.org/CodeSystem/measure-population",
              "code": "initial-population",
              "display": "Initial Population"
            } ]
          },
          "count": 1
        }, {
          "code": {
            "coding": [ {
              "system": "http://terminology.hl7.org/CodeSystem/measure-population",
              "code": "denominator",
              "display": "Denominator"
            } ]
          },
          "count": 1
        }, {
          "code": {
            "coding": [ {
              "system": "http://terminology.hl7.org/CodeSystem/measure-population",
              "code": "numerator",
              "display": "Numerator"
            } ]
          },
          "count": 0
        }, {
          "code": {
            "coding": [ {
              "system": "http://terminology.hl7.org/CodeSystem/measure-population",
              "code": "numerator-exclusion",
              "display": "Numerator Exclusion"
            } ]
          },
          "count": 0
        } ]
      } ],
      "evaluatedResource": [ {
        "reference": "Patient/608797a7-54ce-4533-aa4b-81bb646a35bc"
      }, {
        "reference": "Observation/e2ea1b32-4112-434c-9b9f-191449a6501b"
      }, {
        "reference": "Observation/620df25d-ec5c-4489-b683-0b393cd3cd4e"
      }, {
        "reference": "Encounter/2d34b647-d4b1-41e2-8cbf-bc0ac6c726ba"
      }, {
        "reference": "Procedure/8a114e83-8abc-4326-81f0-3883d9b92c6d"
      }, {
        "reference": "Coverage/11c209f4-37df-4c7e-bfd2-8fd475a00019"
      }, {
        "reference": "Organization/72f8bba1-95da-4c4a-bdc0-79ae557443d3"
      }, {
        "reference": "Practitioner/1645d741-e410-4492-ab07-39c17eb715d3"
      } ]
    },
    "request": {
      "method": "PUT",
      "url": "MeasureReport/8bc46527-aba7-4fcd-8e6d-aeae2c97cb2a"
    }
  } ]
}