{"resourceType":"Bundle","id":"tests-212b0826-d939-4c4a-8c8f-c711bf5d9e44-bundle","type":"transaction","entry":[{"fullUrl":"https://madie.cms.gov/Patient/212b0826-d939-4c4a-8c8f-c711bf5d9e44","resource":{"resourceType":"Patient","id":"212b0826-d939-4c4a-8c8f-c711bf5d9e44","meta":{"profile":["http://hl7.org/fhir/us/qicore/StructureDefinition/qicore-patient"]},"text":{"status":"generated","div":"<div xmlns=\"http://www.w3.org/1999/xhtml\"><div class=\"hapiHeaderText\">Turns 18 day of Encounter <b>DENOMPass </b></div><table class=\"hapiPropertyTable\"><tbody><tr><td>Identifier</td><td>f0eda1c9668fdacdcad3378589bf6e0a71e7dec1618f14fca4d442ec96e402b1</td></tr><tr><td>Date of birth</td><td><span>29 September 2006</span></td></tr></tbody></table></div>"},"extension":[{"url":"http://hl7.org/fhir/us/core/StructureDefinition/us-core-race","extension":[{"url":"ombCategory","valueCoding":{"system":"urn:oid:2.16.840.1.113883.6.238","code":"1002-5","display":"American Indian or Alaska Native","userSelected":true}},{"url":"text","valueString":"American Indian or Alaska Native"}]},{"url":"http://hl7.org/fhir/us/core/StructureDefinition/us-core-ethnicity","extension":[{"url":"ombCategory","valueCoding":{"system":"urn:oid:2.16.840.1.113883.6.238","code":"2135-2","display":"Hispanic or Latino","userSelected":true}},{"url":"text","valueString":"Hispanic or Latino"}]}],"identifier":[{"type":{"coding":[{"system":"http://terminology.hl7.org/CodeSystem/v2-0203","code":"MR"}]},"system":"http://bonnie-fhir.healthit.gov/","value":"DENOMPass-RVAllDiagnosesPOA"}],"active":true,"name":[{"use":"usual","family":"DENOMPass","given":["RVAllDiagnosesPOA"]}],"gender":"male","birthDate":"1982-10-10"},"request":{"method":"PUT","url":"Patient/212b0826-d939-4c4a-8c8f-c711bf5d9e44"}},{"fullUrl":"https://madie.cms.gov/Encounter/0e536811-4904-459d-a28c-5aa808d4e33c","resource":{"resourceType":"Encounter","id":"0e536811-4904-459d-a28c-5aa808d4e33c","meta":{"profile":["http://hl7.org/fhir/us/qicore/StructureDefinition/qicore-encounter"]},"status":"finished","class":{"system":"http://terminology.hl7.org/CodeSystem/v3-ActCode","code":"IMP","display":"inpatient encounter"},"type":[{"coding":[{"system":"http://snomed.info/sct","code":"183452005","display":"Emergency hospital admission (procedure)"}]}],"subject":{"reference":"Patient/212b0826-d939-4c4a-8c8f-c711bf5d9e44"},"period":{"start":"2025-09-29T08:00:00.000Z","end":"2025-10-03T20:00:00.000Z"},"diagnosis":[{"extension":[{"url":"http://hl7.org/fhir/us/qicore/StructureDefinition/qicore-encounter-diagnosisPresentOnAdmission","valueCodeableConcept":{"coding":[{"system":"https://www.cms.gov/Medicare/Medicare-Fee-for-Service-Payment/HospitalAcqCond/Coding","code":"Y"}]}}],"condition":{"reference":"Condition/100da147-34d6-46ca-a8b2-fb8e87e32a61"},"use":{"coding":[{"system":"http://hl7.org/fhir/diagnosis-role","code":"billing","display":"Billing"}]},"rank":1}]},"request":{"method":"PUT","url":"Encounter/0e536811-4904-459d-a28c-5aa808d4e33c"}},{"fullUrl":"https://madie.cms.gov/Condition/100da147-34d6-46ca-a8b2-fb8e87e32a61","resource":{"resourceType":"Condition","id":"100da147-34d6-46ca-a8b2-fb8e87e32a61","meta":{"profile":["http://hl7.org/fhir/us/qicore/StructureDefinition/qicore-condition"]},"clinicalStatus":{"coding":[{"system":"http://terminology.hl7.org/CodeSystem/condition-clinical","code":"active","display":"Active","userSelected":true}]},"verificationStatus":{"coding":[{"system":"http://terminology.hl7.org/CodeSystem/condition-ver-status","code":"confirmed","display":"Confirmed","userSelected":true}]},"category":[{"coding":[{"system":"http://terminology.hl7.org/CodeSystem/condition-category","code":"encounter-diagnosis","display":"Encounter Diagnosis","userSelected":true}]}],"code":{"coding":[{"system":"http://hl7.org/fhir/sid/icd-10-cm","code":"E08.01","display":"Diabetes mellitus due to underlying condition with hyperosmolarity with coma","userSelected":true}]},"subject":{"reference":"Patient/212b0826-d939-4c4a-8c8f-c711bf5d9e44"},"onsetPeriod":{"start":"2025-09-29T06:00:00.000+00:00"},"recordedDate":"2025-09-29T08:25:00.000+00:00"},"request":{"method":"PUT","url":"Condition/100da147-34d6-46ca-a8b2-fb8e87e32a61"}},{"fullUrl":"https://madie.cms.gov/Observation/b595caf9-4413-4c91-ba5c-2817fa2c00c7","resource":{"resourceType":"Observation","id":"b595caf9-4413-4c91-ba5c-2817fa2c00c7","meta":{"profile":["http://hl7.org/fhir/us/qicore/StructureDefinition/qicore-observation"]},"status":"final","category":[{"coding":[{"system":"http://terminology.hl7.org/CodeSystem/observation-category","code":"laboratory","display":"Laboratory"}]}],"code":{"coding":[{"system":"http://loinc.org","version":"2.72","code":"2160-0","display":"Creatinine [Mass/volume] in Serum or Plasma","userSelected":true}]},"subject":{"reference":"Patient/212b0826-d939-4c4a-8c8f-c711bf5d9e44"},"effectiveDateTime":"2025-10-01T08:01:00+00:00","issued":"2025-10-01T08:31:00+00:00","valueQuantity":{"value":0.9,"unit":"mg/dL","system":"http://unitsofmeasure.org","code":"mg/dL"}},"request":{"method":"PUT","url":"Observation/b595caf9-4413-4c91-ba5c-2817fa2c00c7"}},{"fullUrl":"https://madie.cms.gov/Observation/aa6e23f0-fcb2-4dfe-be94-50b05af0e23f","resource":{"resourceType":"Observation","id":"aa6e23f0-fcb2-4dfe-be94-50b05af0e23f","meta":{"profile":["http://hl7.org/fhir/us/qicore/StructureDefinition/qicore-observation"]},"status":"final","category":[{"coding":[{"system":"http://terminology.hl7.org/CodeSystem/observation-category","code":"laboratory","display":"Laboratory"}]}],"code":{"coding":[{"system":"http://loinc.org","code":"2160-0","display":"Creatinine [Mass/volume] in Serum or Plasma"}]},"subject":{"reference":"Patient/212b0826-d939-4c4a-8c8f-c711bf5d9e44"},"effectiveDateTime":"2025-09-29T09:00:00+00:00","issued":"2025-09-29T09:30:00+00:00","valueQuantity":{"value":0.9,"unit":"mg/dL","system":"http://unitsofmeasure.org","code":"mg/dL"}},"request":{"method":"PUT","url":"Observation/aa6e23f0-fcb2-4dfe-be94-50b05af0e23f"}},{"fullUrl":"https://madie.cms.gov/Observation/0f69975c-ee65-4de8-b699-fd912682cddf","resource":{"resourceType":"Observation","id":"0f69975c-ee65-4de8-b699-fd912682cddf","meta":{"profile":["http://hl7.org/fhir/us/qicore/StructureDefinition/qicore-observation"]},"status":"final","category":[{"coding":[{"system":"http://terminology.hl7.org/CodeSystem/observation-category","code":"laboratory","display":"Laboratory"}]}],"code":{"coding":[{"system":"http://loinc.org","version":"2.72","code":"2160-0","display":"Creatinine [Mass/volume] in Serum or Plasma","userSelected":true}]},"subject":{"reference":"Patient/212b0826-d939-4c4a-8c8f-c711bf5d9e44"},"effectiveDateTime":"2025-09-30T07:35:00+00:00","issued":"2025-09-30T08:00:00+00:00","valueQuantity":{"value":0.9,"unit":"mg/dL","system":"http://unitsofmeasure.org","code":"mg/dL"}},"request":{"method":"PUT","url":"Observation/0f69975c-ee65-4de8-b699-fd912682cddf"}},{"fullUrl":"https://madie.cms.gov/Coverage/b9f08611-c7d0-4085-b3df-8a6afc95830c","resource":{"resourceType":"Coverage","id":"b9f08611-c7d0-4085-b3df-8a6afc95830c","meta":{"profile":["http://hl7.org/fhir/us/qicore/StructureDefinition/qicore-coverage"]},"status":"active","type":{"coding":[{"system":"https://nahdo.org/sopt","version":"9.2","code":"211","display":"Medicaid HMO"}]},"beneficiary":{"reference":"Patient/212b0826-d939-4c4a-8c8f-c711bf5d9e44"},"period":{"start":"2023-12-01T00:00:00+00:00"},"payor":[{"reference":"Organization/f4907415-83c5-4eae-ab0b-cb63a840880d"}]},"request":{"method":"PUT","url":"Coverage/b9f08611-c7d0-4085-b3df-8a6afc95830c"}},{"fullUrl":"https://madie.cms.gov/Organization/4672540d-7cde-4cb4-b966-3c02f58af318","resource":{"resourceType":"Organization","id":"f4907415-83c5-4eae-ab0b-cb63a840880d","meta":{"profile":["http://hl7.org/fhir/us/qicore/StructureDefinition/qicore-organization"]},"identifier":[{"use":"temp","system":"urn:oid:2.16.840.1.113883.4.4","value":"21-3259825"}],"active":true,"type":[{"coding":[{"system":"http://terminology.hl7.org/CodeSystem/organization-type","code":"pay","display":"Payer"}]}],"name":"Blue Cross Blue Shield of Texas","telecom":[{"system":"phone","value":"(+1) 972-766-6900"}],"address":[{"use":"billing","type":"postal","line":["P.O. Box 660044"],"city":"Dallas","state":"TX","postalCode":"75266-0044","country":"USA"}]},"request":{"method":"PUT","url":"Organization/f4907415-83c5-4eae-ab0b-cb63a840880d"}},{"fullUrl":"https://madie.cms.gov/MeasureReport/1013391d-7bd3-463a-a370-ef457de1133d","resource":{"resourceType":"MeasureReport","id":"1013391d-7bd3-463a-a370-ef457de1133d","meta":{"profile":["http://hl7.org/fhir/us/cqfmeasures/StructureDefinition/test-case-cqfm"]},"contained":[{"resourceType":"Parameters","id":"2ebf60db-6e9e-4963-aea6-bc749cf74d4d-parameters","parameter":[{"name":"subject","valueString":"212b0826-d939-4c4a-8c8f-c711bf5d9e44"}]}],"extension":[{"url":"http://hl7.org/fhir/us/cqfmeasures/StructureDefinition/cqfm-inputParameters","valueReference":{"reference":"#2ebf60db-6e9e-4963-aea6-bc749cf74d4d-parameters"}},{"url":"http://hl7.org/fhir/us/cqfmeasures/StructureDefinition/cqfm-testCaseDescription","valueMarkdown":"DENOMPass-RVAllDiagnosesPOA E08.01 Diabetes mellitus due to underlying condition with hyperosmolarity with coma but POA logic/json not generating RV tuple"}],"modifierExtension":[{"url":"http://hl7.org/fhir/us/cqfmeasures/StructureDefinition/cqfm-isTestCase","valueBoolean":true}],"status":"complete","type":"individual","measure":"https://madie.cms.gov/Measure/CMS832HHAKIFHIR","period":{"start":"2025-01-01","end":"2025-12-31"},"group":[{"population":[{"code":{"coding":[{"system":"http://terminology.hl7.org/CodeSystem/measure-population","code":"initial-population","display":"Initial Population"}]},"count":1},{"code":{"coding":[{"system":"http://terminology.hl7.org/CodeSystem/measure-population","code":"denominator","display":"Denominator"}]},"count":1},{"code":{"coding":[{"system":"http://terminology.hl7.org/CodeSystem/measure-population","code":"denominator-exclusion","display":"Denominator Exclusion"}]},"count":0},{"code":{"coding":[{"system":"http://terminology.hl7.org/CodeSystem/measure-population","code":"numerator","display":"Numerator"}]},"count":0}]}]},"request":{"method":"PUT","url":"MeasureReport/1013391d-7bd3-463a-a370-ef457de1133d"}}]}