{"resourceType":"Bundle","id":"tests-a959f507-685c-4d5e-b8e4-dc02063dba36-bundle","type":"transaction","entry":[{"fullUrl":"https://madie.cms.gov/Patient/a959f507-685c-4d5e-b8e4-dc02063dba36","resource":{"resourceType":"Patient","id":"a959f507-685c-4d5e-b8e4-dc02063dba36","meta":{"profile":["http://hl7.org/fhir/us/qicore/StructureDefinition/qicore-patient"]},"text":{"status":"generated","div":"<div xmlns=\"http://www.w3.org/1999/xhtml\"><div class=\"hapiHeaderText\">Turns 18 day of Encounter <b>DENOMPASS </b></div><table class=\"hapiPropertyTable\"><tbody><tr><td>Identifier</td><td>f0eda1c9668fdacdcad3378589bf6e0a71e7dec1618f14fca4d442ec96e402b1</td></tr><tr><td>Date of birth</td><td><span>29 September 2006</span></td></tr></tbody></table></div>"},"extension":[{"url":"http://hl7.org/fhir/us/core/StructureDefinition/us-core-race","extension":[{"url":"ombCategory","valueCoding":{"system":"urn:oid:2.16.840.1.113883.6.238","code":"1002-5","display":"American Indian or Alaska Native","userSelected":true}},{"url":"text","valueString":"American Indian or Alaska Native"}]},{"url":"http://hl7.org/fhir/us/core/StructureDefinition/us-core-ethnicity","extension":[{"url":"ombCategory","valueCoding":{"system":"urn:oid:2.16.840.1.113883.6.238","code":"2135-2","display":"Hispanic or Latino","userSelected":true}},{"url":"text","valueString":"Hispanic or Latino"}]}],"identifier":[{"type":{"coding":[{"system":"http://terminology.hl7.org/CodeSystem/v2-0203","code":"MR"}]},"system":"http://bonnie-fhir.healthit.gov/","value":"IPPFail-Age17InEDAge18DayOfIPAdmitCreatinineLT48hrs"}],"active":true,"name":[{"use":"usual","family":"IPPFail","given":["Age17InEDAge18DayOfIPAdmitCreatinineLT48hrs"]}],"gender":"female","birthDate":"2006-09-29"},"request":{"method":"PUT","url":"Patient/a959f507-685c-4d5e-b8e4-dc02063dba36"}},{"fullUrl":"https://madie.cms.gov/Encounter/6c721e4e-c0cc-4371-84a8-a808f29ce720","resource":{"resourceType":"Encounter","id":"6c721e4e-c0cc-4371-84a8-a808f29ce720","meta":{"profile":["http://hl7.org/fhir/us/qicore/StructureDefinition/qicore-encounter"]},"status":"finished","class":{"system":"http://terminology.hl7.org/CodeSystem/v3-ActCode","code":"EMER","display":"emergency"},"type":[{"coding":[{"system":"http://snomed.info/sct","code":"4525004"}]}],"subject":{"reference":"Patient/a959f507-685c-4d5e-b8e4-dc02063dba36"},"period":{"start":"2025-09-29T06:00:00.000Z","end":"2025-09-29T08:00:00.000Z"}},"request":{"method":"PUT","url":"Encounter/6c721e4e-c0cc-4371-84a8-a808f29ce720"}},{"fullUrl":"https://madie.cms.gov/Encounter/1d7a4df6-f6df-42e5-8187-12b41fdac0bf","resource":{"resourceType":"Encounter","id":"1d7a4df6-f6df-42e5-8187-12b41fdac0bf","meta":{"profile":["http://hl7.org/fhir/us/qicore/StructureDefinition/qicore-encounter"]},"status":"finished","class":{"system":"http://terminology.hl7.org/CodeSystem/v3-ActCode","code":"IMP","display":"inpatient encounter"},"type":[{"coding":[{"system":"http://snomed.info/sct","code":"183452005"}]}],"subject":{"reference":"Patient/a959f507-685c-4d5e-b8e4-dc02063dba36"},"period":{"start":"2025-09-29T08:00:00.000Z","end":"2025-10-03T20:00:00.000Z"}},"request":{"method":"PUT","url":"Encounter/1d7a4df6-f6df-42e5-8187-12b41fdac0bf"}},{"fullUrl":"https://madie.cms.gov/MedicationAdministration/da0889cd-0178-41db-b2c1-b9608cecfe80","resource":{"resourceType":"MedicationAdministration","id":"da0889cd-0178-41db-b2c1-b9608cecfe80","meta":{"profile":["http://hl7.org/fhir/us/qicore/StructureDefinition/qicore-medicationadministration"]},"status":"completed","medicationCodeableConcept":{"coding":[{"system":"http://www.nlm.nih.gov/research/umls/rxnorm","code":"1010600"}]},"subject":{"reference":"Patient/a959f507-685c-4d5e-b8e4-dc02063dba36"},"effectivePeriod":{"start":"2025-09-29T08:00:00.000Z","end":"2025-09-29T08:15:00.000Z"}},"request":{"method":"PUT","url":"MedicationAdministration/da0889cd-0178-41db-b2c1-b9608cecfe80"}},{"fullUrl":"https://madie.cms.gov/Observation/ac7369ef-539e-45d7-8d71-f5b6aabdb304","resource":{"resourceType":"Observation","id":"ac7369ef-539e-45d7-8d71-f5b6aabdb304","meta":{"profile":["http://hl7.org/fhir/us/qicore/StructureDefinition/qicore-observation"]},"status":"final","category":[{"coding":[{"system":"http://terminology.hl7.org/CodeSystem/observation-category","code":"laboratory","display":"Laboratory"}]}],"code":{"coding":[{"system":"http://loinc.org","version":"2.72","code":"2160-0","display":"Creatinine [Mass/volume] in Serum or Plasma","userSelected":true}]},"subject":{"reference":"Patient/a959f507-685c-4d5e-b8e4-dc02063dba36"},"effectiveDateTime":"2025-10-01T05:50:00+00:00","issued":"2025-10-01T08:20:00+00:00","valueQuantity":{"value":0.6,"unit":"mg/dL","system":"http://unitsofmeasure.org","code":"mg/dL"}},"request":{"method":"PUT","url":"Observation/ac7369ef-539e-45d7-8d71-f5b6aabdb304"}},{"fullUrl":"https://madie.cms.gov/Observation/b1b28ae5-71d9-466c-9a9a-d8557f874a7e","resource":{"resourceType":"Observation","id":"b1b28ae5-71d9-466c-9a9a-d8557f874a7e","meta":{"profile":["http://hl7.org/fhir/us/qicore/StructureDefinition/qicore-observation"]},"status":"final","category":[{"coding":[{"system":"http://terminology.hl7.org/CodeSystem/observation-category","code":"laboratory","display":"Laboratory"}]}],"code":{"coding":[{"system":"http://loinc.org","code":"2160-0","display":"Creatinine [Mass/volume] in Serum or Plasma"}]},"subject":{"reference":"Patient/a959f507-685c-4d5e-b8e4-dc02063dba36"},"effectiveDateTime":"2025-09-29T07:59:00+00:00","issued":"2025-09-29T08:29:00+00:00","valueQuantity":{"value":0.8,"unit":"mg/dL","system":"http://unitsofmeasure.org","code":"mg/dL"}},"request":{"method":"PUT","url":"Observation/b1b28ae5-71d9-466c-9a9a-d8557f874a7e"}},{"fullUrl":"https://madie.cms.gov/Observation/40a6006b-79a4-4936-8052-3bec96aa1f0a","resource":{"resourceType":"Observation","id":"40a6006b-79a4-4936-8052-3bec96aa1f0a","meta":{"profile":["http://hl7.org/fhir/us/qicore/StructureDefinition/qicore-observation"]},"status":"final","category":[{"coding":[{"system":"http://terminology.hl7.org/CodeSystem/observation-category","code":"laboratory","display":"Laboratory"}]}],"code":{"coding":[{"system":"http://loinc.org","version":"2.72","code":"2160-0","display":"Creatinine [Mass/volume] in Serum or Plasma","userSelected":true}]},"subject":{"reference":"Patient/a959f507-685c-4d5e-b8e4-dc02063dba36"},"effectiveDateTime":"2025-09-29T08:01:00+00:00","issued":"2025-09-29T08:31:00+00:00","valueQuantity":{"value":1.1,"unit":"mg/dL","system":"http://unitsofmeasure.org","code":"mg/dL"}},"request":{"method":"PUT","url":"Observation/40a6006b-79a4-4936-8052-3bec96aa1f0a"}},{"fullUrl":"https://madie.cms.gov/Observation/cf05db39-3a80-457b-9a41-bdb68ecd53de","resource":{"resourceType":"Observation","id":"cf05db39-3a80-457b-9a41-bdb68ecd53de","meta":{"profile":["http://hl7.org/fhir/us/qicore/StructureDefinition/qicore-observation"]},"status":"final","category":[{"coding":[{"system":"http://terminology.hl7.org/CodeSystem/observation-category","code":"laboratory","display":"Laboratory"}]}],"code":{"coding":[{"system":"http://loinc.org","code":"2160-0","display":"Creatinine [Mass/volume] in Serum or Plasma"}]},"subject":{"reference":"Patient/a959f507-685c-4d5e-b8e4-dc02063dba36"},"effectiveDateTime":"2025-09-29T07:00:00+00:00","issued":"2025-09-29T07:30:00+00:00","valueQuantity":{"value":0.9,"unit":"mg/dL","system":"http://unitsofmeasure.org","code":"mg/dL"}},"request":{"method":"PUT","url":"Observation/cf05db39-3a80-457b-9a41-bdb68ecd53de"}},{"fullUrl":"https://madie.cms.gov/Observation/2df70ae0-a986-470b-b466-8c1e605361bd","resource":{"resourceType":"Observation","id":"2df70ae0-a986-470b-b466-8c1e605361bd","meta":{"profile":["http://hl7.org/fhir/us/qicore/StructureDefinition/qicore-observation"]},"status":"final","category":[{"coding":[{"system":"http://terminology.hl7.org/CodeSystem/observation-category","code":"laboratory","display":"Laboratory"}]}],"code":{"coding":[{"system":"http://loinc.org","version":"2.72","code":"2160-0","display":"Creatinine [Mass/volume] in Serum or Plasma","userSelected":true}]},"subject":{"reference":"Patient/a959f507-685c-4d5e-b8e4-dc02063dba36"},"effectiveDateTime":"2025-09-29T07:35:00+00:00","issued":"2025-09-29T08:05:00+00:00","valueQuantity":{"value":1.6,"unit":"mg/dL","system":"http://unitsofmeasure.org","code":"mg/dL"}},"request":{"method":"PUT","url":"Observation/2df70ae0-a986-470b-b466-8c1e605361bd"}},{"fullUrl":"https://madie.cms.gov/Coverage/a152e218-eb2b-4bfa-86ba-be776dd300cb","resource":{"resourceType":"Coverage","id":"a152e218-eb2b-4bfa-86ba-be776dd300cb","meta":{"profile":["http://hl7.org/fhir/us/qicore/StructureDefinition/qicore-coverage"]},"status":"active","type":{"coding":[{"system":"https://nahdo.org/sopt","version":"9.2","code":"211","display":"Medicaid HMO"}]},"beneficiary":{"reference":"Patient/a959f507-685c-4d5e-b8e4-dc02063dba36"},"period":{"start":"2023-12-01T00:00:00+00:00"},"payor":[{"reference":"Organization/890316dc-a4ad-43b4-ba6f-9fb9e6eca282"}]},"request":{"method":"PUT","url":"Coverage/a152e218-eb2b-4bfa-86ba-be776dd300cb"}},{"fullUrl":"https://madie.cms.gov/Organization/0c6a3c43-db0c-46a7-a85e-6d524b22abd9","resource":{"resourceType":"Organization","id":"890316dc-a4ad-43b4-ba6f-9fb9e6eca282","meta":{"profile":["http://hl7.org/fhir/us/qicore/StructureDefinition/qicore-organization"]},"identifier":[{"use":"temp","system":"urn:oid:2.16.840.1.113883.4.4","value":"21-3259825"}],"active":true,"type":[{"coding":[{"system":"http://terminology.hl7.org/CodeSystem/organization-type","code":"pay","display":"Payer"}]}],"name":"Blue Cross Blue Shield of Texas","telecom":[{"system":"phone","value":"(+1) 972-766-6900"}],"address":[{"use":"billing","type":"postal","line":["P.O. Box 660044"],"city":"Dallas","state":"TX","postalCode":"75266-0044","country":"USA"}]},"request":{"method":"PUT","url":"Organization/890316dc-a4ad-43b4-ba6f-9fb9e6eca282"}},{"fullUrl":"https://madie.cms.gov/MeasureReport/90dd0740-8ebe-4909-a1e3-3386345f158c","resource":{"resourceType":"MeasureReport","id":"90dd0740-8ebe-4909-a1e3-3386345f158c","meta":{"profile":["http://hl7.org/fhir/us/cqfmeasures/StructureDefinition/test-case-cqfm"]},"contained":[{"resourceType":"Parameters","id":"c8f4188e-96fe-4a9a-8dff-bd3e2627b205-parameters","parameter":[{"name":"subject","valueString":"a959f507-685c-4d5e-b8e4-dc02063dba36"}]}],"extension":[{"url":"http://hl7.org/fhir/us/cqfmeasures/StructureDefinition/cqfm-inputParameters","valueReference":{"reference":"#c8f4188e-96fe-4a9a-8dff-bd3e2627b205-parameters"}},{"url":"http://hl7.org/fhir/us/cqfmeasures/StructureDefinition/cqfm-testCaseDescription","valueMarkdown":"Not 18 on INPT admission\nVScode: Initial Population=[]"}],"modifierExtension":[{"url":"http://hl7.org/fhir/us/cqfmeasures/StructureDefinition/cqfm-isTestCase","valueBoolean":true}],"status":"complete","type":"individual","measure":"https://madie.cms.gov/Measure/CMS832HHAKIFHIR","period":{"start":"2025-01-01","end":"2025-12-31"},"group":[{"population":[{"code":{"coding":[{"system":"http://terminology.hl7.org/CodeSystem/measure-population","code":"initial-population","display":"Initial Population"}]},"count":0},{"code":{"coding":[{"system":"http://terminology.hl7.org/CodeSystem/measure-population","code":"denominator","display":"Denominator"}]},"count":0},{"code":{"coding":[{"system":"http://terminology.hl7.org/CodeSystem/measure-population","code":"denominator-exclusion","display":"Denominator Exclusion"}]},"count":0},{"code":{"coding":[{"system":"http://terminology.hl7.org/CodeSystem/measure-population","code":"numerator","display":"Numerator"}]},"count":0}]}]},"request":{"method":"PUT","url":"MeasureReport/90dd0740-8ebe-4909-a1e3-3386345f158c"}}]}