{
  "resourceType": "Bundle",
  "id": "612e6b5d02c62a011f2ed7ba",
  "type": "transaction",
  "entry": [ {
    "fullUrl": "https://madie.cms.gov/Patient/439d95f5-58cd-485f-bbb4-a3915592af72",
    "resource": {
      "resourceType": "Patient",
      "id": "439d95f5-58cd-485f-bbb4-a3915592af72",
      "meta": {
        "profile": [ "http://hl7.org/fhir/us/qicore/StructureDefinition/qicore-patient" ]
      },
      "text": {
        "status": "generated",
        "div": "<div xmlns=\"http://www.w3.org/1999/xhtml\"><div class=\"hapiHeaderText\">MAUHepEDendTimeOnIPEncStrtTm <b>NUMERPASS </b></div><table class=\"hapiPropertyTable\"><tbody><tr><td>Identifier</td><td>613a0a42598b5d681406521f174c78ac</td></tr><tr><td>Date of birth</td><td><span>02 January 1974</span></td></tr></tbody></table></div>"
      },
      "extension": [ {
        "url": "http://hl7.org/fhir/us/core/StructureDefinition/us-core-race",
        "extension": [ {
          "url": "ombCategory",
          "valueCoding": {
            "system": "urn:oid:2.16.840.1.113883.6.238",
            "code": "1002-5",
            "display": "American Indian or Alaska Native",
            "userSelected": true
          }
        }, {
          "url": "text",
          "valueString": "American Indian or Alaska Native"
        } ]
      }, {
        "url": "http://hl7.org/fhir/us/core/StructureDefinition/us-core-ethnicity",
        "extension": [ {
          "url": "ombCategory",
          "valueCoding": {
            "system": "urn:oid:2.16.840.1.113883.6.238",
            "code": "2135-2",
            "display": "Hispanic or Latino",
            "userSelected": true
          }
        }, {
          "url": "text",
          "valueString": "Hispanic or Latino"
        } ]
      } ],
      "identifier": [ {
        "type": {
          "coding": [ {
            "system": "http://terminology.hl7.org/CodeSystem/v2-0203",
            "code": "MR"
          } ]
        },
        "system": "https://bonnie-fhir.healthit.gov/",
        "value": "612e6b5d02c62a011f2ed7ba"
      } ],
      "active": true,
      "name": [ {
        "use": "usual",
        "family": "NUMERPass",
        "given": [ "MAUHepEDendTimeOnIPEncStrtTm" ]
      } ],
      "gender": "male",
      "birthDate": "1975-01-02"
    },
    "request": {
      "method": "PUT",
      "url": "Patient/439d95f5-58cd-485f-bbb4-a3915592af72"
    }
  }, {
    "fullUrl": "https://madie.cms.gov/Encounter/1d8c4068-e5b7-4d92-9671-1fdf711d4ecb",
    "resource": {
      "resourceType": "Encounter",
      "id": "1d8c4068-e5b7-4d92-9671-1fdf711d4ecb",
      "meta": {
        "profile": [ "http://hl7.org/fhir/us/qicore/StructureDefinition/qicore-encounter" ]
      },
      "status": "finished",
      "class": {
        "system": "http://terminology.hl7.org/CodeSystem/v3-ActCode",
        "code": "EMER",
        "display": "emergency"
      },
      "type": [ {
        "coding": [ {
          "system": "http://snomed.info/sct",
          "code": "4525004"
        } ]
      } ],
      "subject": {
        "reference": "Patient/439d95f5-58cd-485f-bbb4-a3915592af72"
      },
      "period": {
        "start": "2026-10-30T06:00:00+00:00",
        "end": "2026-11-01T08:00:00+00:00"
      },
      "length": {
        "value": 2.0,
        "unit": "days"
      }
    },
    "request": {
      "method": "PUT",
      "url": "Encounter/1d8c4068-e5b7-4d92-9671-1fdf711d4ecb"
    }
  }, {
    "fullUrl": "https://madie.cms.gov/Encounter/c314a6d3-d373-42e7-944a-efcaf0c8a37b",
    "resource": {
      "resourceType": "Encounter",
      "id": "c314a6d3-d373-42e7-944a-efcaf0c8a37b",
      "meta": {
        "profile": [ "http://hl7.org/fhir/us/qicore/StructureDefinition/qicore-encounter" ]
      },
      "status": "finished",
      "class": {
        "system": "http://terminology.hl7.org/CodeSystem/v3-ActCode",
        "code": "IMP",
        "display": "inpatient encounter"
      },
      "type": [ {
        "coding": [ {
          "system": "http://snomed.info/sct",
          "code": "8715000"
        } ]
      } ],
      "subject": {
        "reference": "Patient/439d95f5-58cd-485f-bbb4-a3915592af72"
      },
      "period": {
        "start": "2026-11-01T08:00:00+00:00",
        "end": "2026-11-26T08:15:00+00:00"
      },
      "length": {
        "value": 25.0,
        "unit": "days"
      },
      "location": [ {
        "location": {
          "reference": "Location/7374c5f0-18f6-4589-8329-35f9981e1cd8"
        },
        "period": {
          "start": "2026-11-02T09:00:00.000+00:00",
          "end": "2026-11-10T08:15:00.000+00:00"
        }
      } ]
    },
    "request": {
      "method": "PUT",
      "url": "Encounter/c314a6d3-d373-42e7-944a-efcaf0c8a37b"
    }
  }, {
    "fullUrl": "https://madie.cms.gov/Coverage/be7e3f87-2a6b-4f50-a90d-9f06e4e80568",
    "resource": {
      "resourceType": "Coverage",
      "id": "be7e3f87-2a6b-4f50-a90d-9f06e4e80568",
      "status": "active",
      "beneficiary": {
        "reference": "Patient/439d95f5-58cd-485f-bbb4-a3915592af72"
      },
      "period": {
        "start": "1975-01-02T08:00:00+00:00"
      },
      "payor": [ {
        "reference": "Organization/05462e17-e506-4bc7-87cc-636dc7c275b9"
      } ]
    },
    "request": {
      "method": "PUT",
      "url": "Coverage/be7e3f87-2a6b-4f50-a90d-9f06e4e80568"
    }
  }, {
    "fullUrl": "https://madie.cms.gov/MedicationAdministration/3892af13-9caa-491d-82ad-3bfe7d313832",
    "resource": {
      "resourceType": "MedicationAdministration",
      "id": "3892af13-9caa-491d-82ad-3bfe7d313832",
      "meta": {
        "profile": [ "http://hl7.org/fhir/us/qicore/StructureDefinition/qicore-medicationadministration" ]
      },
      "status": "completed",
      "medicationCodeableConcept": {
        "coding": [ {
          "system": "http://www.nlm.nih.gov/research/umls/rxnorm",
          "code": "1361607"
        } ]
      },
      "subject": {
        "reference": "Patient/439d95f5-58cd-485f-bbb4-a3915592af72"
      },
      "effectivePeriod": {
        "start": "2026-11-01T06:00:00+00:00",
        "end": "2026-11-01T07:00:00+00:00"
      },
      "dosage": {
        "route": {
          "coding": [ {
            "system": "http://snomed.info/sct",
            "code": "418114005",
            "display": "Intravenous route"
          } ]
        },
        "dose": {
          "value": 500,
          "unit": "ml",
          "system": "http://unitsofmeasure.org",
          "code": "ml"
        }
      }
    },
    "request": {
      "method": "PUT",
      "url": "MedicationAdministration/3892af13-9caa-491d-82ad-3bfe7d313832"
    }
  }, {
    "fullUrl": "https://madie.cms.gov/Location/7374c5f0-18f6-4589-8329-35f9981e1cd8",
    "resource": {
      "resourceType": "Location",
      "id": "7374c5f0-18f6-4589-8329-35f9981e1cd8",
      "meta": {
        "profile": [ "http://hl7.org/fhir/us/qicore/StructureDefinition/qicore-location" ]
      },
      "identifier": [ {
        "use": "usual",
        "system": "http://exampleoflocation.com",
        "value": "B1-S.F2"
      } ],
      "name": "Medical Surgical East, first floor",
      "type": [ {
        "coding": [ {
          "system": "https://www.cdc.gov/nhsn/cdaportal/terminology/codesystem/hsloc.html",
          "code": "1025-6",
          "display": "Trauma Critical Care",
          "userSelected": true
        } ]
      } ]
    },
    "request": {
      "method": "PUT",
      "url": "Location/7374c5f0-18f6-4589-8329-35f9981e1cd8"
    }
  }, {
    "fullUrl": "https://madie.cms.gov/Organization/05462e17-e506-4bc7-87cc-636dc7c275b9",
    "resource": {
      "resourceType": "Organization",
      "id": "05462e17-e506-4bc7-87cc-636dc7c275b9",
      "meta": {
        "profile": [ "http://hl7.org/fhir/us/qicore/StructureDefinition/qicore-organization" ]
      },
      "identifier": [ {
        "use": "temp",
        "system": "urn:oid:2.16.840.1.113883.4.4",
        "value": "21-3259825"
      } ],
      "active": true,
      "type": [ {
        "coding": [ {
          "system": "http://terminology.hl7.org/CodeSystem/organization-type",
          "code": "pay",
          "display": "Payer"
        } ]
      } ],
      "name": "Blue Cross Blue Shield of Texas",
      "telecom": [ {
        "system": "phone",
        "value": "(+1) 972-766-6900"
      } ],
      "address": [ {
        "use": "billing",
        "type": "postal",
        "line": [ "P.O. Box 660044" ],
        "city": "Dallas",
        "state": "TX",
        "postalCode": "75266-0044",
        "country": "USA"
      } ]
    },
    "request": {
      "method": "PUT",
      "url": "Organization/05462e17-e506-4bc7-87cc-636dc7c275b9"
    }
  }, {
    "fullUrl": "https://madie.cms.gov/Practitioner/10702e72-1dd0-40c9-a5f3-c4683aa45c20",
    "resource": {
      "resourceType": "Practitioner",
      "id": "10702e72-1dd0-40c9-a5f3-c4683aa45c20",
      "identifier": [ {
        "system": "http://hl7.org/fhir/sid/us-npi",
        "value": "123456"
      } ],
      "name": [ {
        "family": "Evil",
        "prefix": [ "Dr" ]
      } ]
    },
    "request": {
      "method": "PUT",
      "url": "Practitioner/10702e72-1dd0-40c9-a5f3-c4683aa45c20"
    }
  }, {
    "fullUrl": "https://madie.cms.gov/MeasureReport/ee44b0a1-4101-432b-a5e8-f40b901eb76f",
    "resource": {
      "resourceType": "MeasureReport",
      "id": "ee44b0a1-4101-432b-a5e8-f40b901eb76f",
      "meta": {
        "profile": [ "http://hl7.org/fhir/us/cqfmeasures/StructureDefinition/test-case-cqfm" ]
      },
      "contained": [ {
        "resourceType": "Parameters",
        "id": "d74a6814-0e9e-4248-ad0e-739481dd941a-parameters",
        "parameter": [ {
          "name": "subject",
          "valueString": "439d95f5-58cd-485f-bbb4-a3915592af72"
        } ]
      } ],
      "extension": [ {
        "url": "http://hl7.org/fhir/us/cqfmeasures/StructureDefinition/cqfm-inputParameters",
        "valueReference": {
          "reference": "#d74a6814-0e9e-4248-ad0e-739481dd941a-parameters"
        }
      }, {
        "url": "http://hl7.org/fhir/us/cqfmeasures/StructureDefinition/cqfm-testCaseDescription",
        "valueMarkdown": "meets IPP, meets Denominator, medication administered:Unfractionated Heparin Route:IV during ED, ED endTime on Start of encounter\n"
      } ],
      "modifierExtension": [ {
        "url": "http://hl7.org/fhir/us/cqfmeasures/StructureDefinition/cqfm-isTestCase",
        "valueBoolean": true
      } ],
      "status": "complete",
      "type": "individual",
      "measure": "https://madie.cms.gov/Measure/CMS190VTEProphylaxisICUFHIR",
      "period": {
        "start": "2026-01-01",
        "end": "2026-12-31"
      },
      "group": [ {
        "population": [ {
          "code": {
            "coding": [ {
              "system": "http://terminology.hl7.org/CodeSystem/measure-population",
              "code": "initial-population",
              "display": "Initial Population"
            } ]
          },
          "count": 1
        }, {
          "code": {
            "coding": [ {
              "system": "http://terminology.hl7.org/CodeSystem/measure-population",
              "code": "denominator",
              "display": "Denominator"
            } ]
          },
          "count": 1
        }, {
          "code": {
            "coding": [ {
              "system": "http://terminology.hl7.org/CodeSystem/measure-population",
              "code": "denominator-exclusion",
              "display": "Denominator Exclusion"
            } ]
          },
          "count": 0
        }, {
          "code": {
            "coding": [ {
              "system": "http://terminology.hl7.org/CodeSystem/measure-population",
              "code": "numerator",
              "display": "Numerator"
            } ]
          },
          "count": 1
        }, {
          "code": {
            "coding": [ {
              "system": "http://terminology.hl7.org/CodeSystem/measure-population",
              "code": "denominator-exception",
              "display": "Denominator Exception"
            } ]
          },
          "count": 0
        } ]
      } ],
      "evaluatedResource": [ {
        "reference": "Patient/439d95f5-58cd-485f-bbb4-a3915592af72"
      }, {
        "reference": "Encounter/1d8c4068-e5b7-4d92-9671-1fdf711d4ecb"
      }, {
        "reference": "Encounter/c314a6d3-d373-42e7-944a-efcaf0c8a37b"
      }, {
        "reference": "Coverage/be7e3f87-2a6b-4f50-a90d-9f06e4e80568"
      }, {
        "reference": "MedicationAdministration/3892af13-9caa-491d-82ad-3bfe7d313832"
      }, {
        "reference": "Location/7374c5f0-18f6-4589-8329-35f9981e1cd8"
      }, {
        "reference": "Organization/05462e17-e506-4bc7-87cc-636dc7c275b9"
      }, {
        "reference": "Practitioner/10702e72-1dd0-40c9-a5f3-c4683aa45c20"
      } ]
    },
    "request": {
      "method": "PUT",
      "url": "MeasureReport/ee44b0a1-4101-432b-a5e8-f40b901eb76f"
    }
  } ]
}