{
  "resourceType": "Bundle",
  "id": "d1f044ef3e654daa9104",
  "type": "transaction",
  "entry": [ {
    "fullUrl": "https://madie.cms.gov/Patient/baf1efce-a7e8-45d3-9a8b-50c8e5d8d802",
    "resource": {
      "resourceType": "Patient",
      "id": "baf1efce-a7e8-45d3-9a8b-50c8e5d8d802",
      "meta": {
        "profile": [ "http://hl7.org/fhir/us/qicore/StructureDefinition/qicore-patient" ]
      },
      "extension": [ {
        "url": "http://hl7.org/fhir/us/core/StructureDefinition/us-core-race",
        "extension": [ {
          "url": "ombCategory",
          "valueCoding": {
            "system": "urn:oid:2.16.840.1.113883.6.238",
            "code": "2028-9",
            "display": "Asian",
            "userSelected": true
          }
        }, {
          "url": "text",
          "valueString": "Asian"
        } ]
      }, {
        "url": "http://hl7.org/fhir/us/core/StructureDefinition/us-core-ethnicity",
        "extension": [ {
          "url": "ombCategory",
          "valueCoding": {
            "system": "urn:oid:2.16.840.1.113883.6.238",
            "code": "2186-5",
            "display": "Non Hispanic or Latino",
            "userSelected": true
          }
        }, {
          "url": "text",
          "valueString": "Non Hispanic or Latino"
        } ]
      } ],
      "identifier": [ {
        "type": {
          "coding": [ {
            "system": "http://terminology.hl7.org/CodeSystem/v2-0203",
            "code": "MR"
          } ]
        },
        "system": "https://bonnie-fhir.healthit.gov/",
        "value": "832c236d-6090-4705-aed0-f600c6cd03dd"
      } ],
      "name": [ {
        "family": "DENEXCL1PASS",
        "given": [ "VentricularAneurysmDueToAndFollowingAcuteMyocardialInfarctionStartsWithin24HoursBeforeED" ]
      } ],
      "gender": "male",
      "birthDate": "1999-09-02"
    },
    "request": {
      "method": "PUT",
      "url": "Patient/baf1efce-a7e8-45d3-9a8b-50c8e5d8d802"
    }
  }, {
    "fullUrl": "https://madie.cms.gov/Encounter/239a5433-6160-4005-b98f-24095b3ed3a1",
    "resource": {
      "resourceType": "Encounter",
      "id": "239a5433-6160-4005-b98f-24095b3ed3a1",
      "meta": {
        "profile": [ "http://hl7.org/fhir/us/qicore/StructureDefinition/qicore-encounter" ]
      },
      "status": "finished",
      "class": {
        "system": "http://terminology.hl7.org/CodeSystem/v3-ActCode",
        "code": "EMER",
        "display": "emergency",
        "userSelected": true
      },
      "type": [ {
        "coding": [ {
          "system": "http://snomed.info/sct",
          "version": "2020-09",
          "code": "4525004",
          "display": "Emergency department patient visit",
          "userSelected": true
        } ]
      } ],
      "subject": {
        "reference": "Patient/baf1efce-a7e8-45d3-9a8b-50c8e5d8d802"
      },
      "period": {
        "start": "2026-10-09T05:00:00.000+00:00",
        "end": "2026-10-13T17:00:00.000+00:00"
      },
      "diagnosis": [ {
        "condition": {
          "reference": "Condition/962ae5ad-c51d-498b-a77d-3fd3008c0bc2"
        }
      } ]
    },
    "request": {
      "method": "PUT",
      "url": "Encounter/239a5433-6160-4005-b98f-24095b3ed3a1"
    }
  }, {
    "fullUrl": "https://madie.cms.gov/Condition/962ae5ad-c51d-498b-a77d-3fd3008c0bc2",
    "resource": {
      "resourceType": "Condition",
      "id": "962ae5ad-c51d-498b-a77d-3fd3008c0bc2",
      "meta": {
        "profile": [ "http://hl7.org/fhir/us/qicore/StructureDefinition/qicore-condition" ]
      },
      "clinicalStatus": {
        "coding": [ {
          "system": "http://terminology.hl7.org/CodeSystem/condition-clinical",
          "code": "active",
          "display": "Active",
          "userSelected": true
        } ]
      },
      "category": [ {
        "coding": [ {
          "system": "http://terminology.hl7.org/CodeSystem/condition-category",
          "code": "encounter-diagnosis",
          "display": "Encounter Diagnosis",
          "userSelected": true
        } ]
      } ],
      "code": {
        "coding": [ {
          "system": "http://hl7.org/fhir/sid/icd-10-cm",
          "code": "I21.21",
          "display": "ST elevation (STEMI) myocardial infarction involving left circumflex coronary artery",
          "userSelected": true
        } ]
      },
      "subject": {
        "reference": "Patient/baf1efce-a7e8-45d3-9a8b-50c8e5d8d802"
      },
      "encounter": {
        "reference": "Encounter/239a5433-6160-4005-b98f-24095b3ed3a1"
      },
      "onsetPeriod": {
        "start": "2026-10-09T05:00:00.000+00:00",
        "end": "2026-10-09T17:00:00.000+00:00"
      }
    },
    "request": {
      "method": "PUT",
      "url": "Condition/962ae5ad-c51d-498b-a77d-3fd3008c0bc2"
    }
  }, {
    "fullUrl": "https://madie.cms.gov/Condition/ec95dce4-9263-42ab-8d6e-c315d0304b2a",
    "resource": {
      "resourceType": "Condition",
      "id": "ec95dce4-9263-42ab-8d6e-c315d0304b2a",
      "meta": {
        "profile": [ "http://hl7.org/fhir/us/qicore/StructureDefinition/qicore-condition" ]
      },
      "clinicalStatus": {
        "coding": [ {
          "system": "http://terminology.hl7.org/CodeSystem/condition-clinical",
          "code": "active",
          "display": "Active",
          "userSelected": true
        } ]
      },
      "category": [ {
        "coding": [ {
          "system": "http://terminology.hl7.org/CodeSystem/condition-category",
          "code": "problem-list-item",
          "display": "Problem List Item",
          "userSelected": true
        } ]
      } ],
      "code": {
        "coding": [ {
          "system": "http://snomed.info/sct",
          "code": "723858002",
          "display": "Ventricular aneurysm due to and following acute myocardial infarction (disorder)",
          "userSelected": true
        } ]
      },
      "subject": {
        "reference": "Patient/baf1efce-a7e8-45d3-9a8b-50c8e5d8d802"
      },
      "onsetDateTime": "2026-10-08T05:00:00.000+00:00"
    },
    "request": {
      "method": "PUT",
      "url": "Condition/ec95dce4-9263-42ab-8d6e-c315d0304b2a"
    }
  }, {
    "fullUrl": "https://madie.cms.gov/MeasureReport/e900521f-7948-4e43-84b8-758a662287ec",
    "resource": {
      "resourceType": "MeasureReport",
      "id": "e900521f-7948-4e43-84b8-758a662287ec",
      "meta": {
        "profile": [ "http://hl7.org/fhir/us/cqfmeasures/StructureDefinition/test-case-cqfm" ]
      },
      "contained": [ {
        "resourceType": "Parameters",
        "id": "8b5c425e-7d5a-40f6-a4bd-8c641b8646ed-parameters",
        "parameter": [ {
          "name": "subject",
          "valueString": "baf1efce-a7e8-45d3-9a8b-50c8e5d8d802"
        } ]
      } ],
      "extension": [ {
        "url": "http://hl7.org/fhir/us/cqfmeasures/StructureDefinition/cqfm-inputParameters",
        "valueReference": {
          "reference": "#8b5c425e-7d5a-40f6-a4bd-8c641b8646ed-parameters"
        }
      }, {
        "url": "http://hl7.org/fhir/us/cqfmeasures/StructureDefinition/cqfm-testCaseDescription",
        "valueMarkdown": "Patient has ventricular aneurysm as current complication following acute myocardial infarction that started within 24 hours before start of ED Encounter"
      } ],
      "modifierExtension": [ {
        "url": "http://hl7.org/fhir/us/cqfmeasures/StructureDefinition/cqfm-isTestCase",
        "valueBoolean": true
      } ],
      "status": "complete",
      "type": "individual",
      "measure": "https://madie.cms.gov/Measure/CMS996FHIRAptTxforSTEMI",
      "period": {
        "start": "2026-01-01",
        "end": "2026-12-31"
      },
      "group": [ {
        "population": [ {
          "code": {
            "coding": [ {
              "system": "http://terminology.hl7.org/CodeSystem/measure-population",
              "code": "initial-population",
              "display": "Initial Population"
            } ]
          },
          "count": 1
        }, {
          "code": {
            "coding": [ {
              "system": "http://terminology.hl7.org/CodeSystem/measure-population",
              "code": "denominator",
              "display": "Denominator"
            } ]
          },
          "count": 1
        }, {
          "code": {
            "coding": [ {
              "system": "http://terminology.hl7.org/CodeSystem/measure-population",
              "code": "denominator-exclusion",
              "display": "Denominator Exclusion"
            } ]
          },
          "count": 1
        }, {
          "code": {
            "coding": [ {
              "system": "http://terminology.hl7.org/CodeSystem/measure-population",
              "code": "numerator",
              "display": "Numerator"
            } ]
          },
          "count": 0
        }, {
          "code": {
            "coding": [ {
              "system": "http://terminology.hl7.org/CodeSystem/measure-population",
              "code": "denominator-exception",
              "display": "Denominator Exception"
            } ]
          },
          "count": 0
        } ]
      } ],
      "evaluatedResource": [ {
        "reference": "Patient/baf1efce-a7e8-45d3-9a8b-50c8e5d8d802"
      }, {
        "reference": "Encounter/239a5433-6160-4005-b98f-24095b3ed3a1"
      }, {
        "reference": "Condition/962ae5ad-c51d-498b-a77d-3fd3008c0bc2"
      }, {
        "reference": "Condition/ec95dce4-9263-42ab-8d6e-c315d0304b2a"
      } ]
    },
    "request": {
      "method": "PUT",
      "url": "MeasureReport/e900521f-7948-4e43-84b8-758a662287ec"
    }
  } ]
}