{
  "resourceType": "Bundle",
  "id": "6356dca654e383debade75aa",
  "type": "transaction",
  "entry": [ {
    "fullUrl": "https://madie.cms.gov/Patient/64a5e735-5178-4cb2-8d9b-60ac31d21c2e",
    "resource": {
      "resourceType": "Patient",
      "id": "64a5e735-5178-4cb2-8d9b-60ac31d21c2e",
      "meta": {
        "profile": [ "http://hl7.org/fhir/us/qicore/StructureDefinition/qicore-patient" ]
      },
      "text": {
        "status": "generated",
        "div": "<div xmlns=\"http://www.w3.org/1999/xhtml\"><div class=\"hapiHeaderText\">RISKEGAEQ20Wks <b>RISKPass </b></div><table class=\"hapiPropertyTable\"><tbody><tr><td>Date of birth</td><td><span>01 February 2004</span></td></tr></tbody></table></div>"
      },
      "extension": [ {
        "url": "http://hl7.org/fhir/us/core/StructureDefinition/us-core-race",
        "extension": [ {
          "url": "ombCategory",
          "valueCoding": {
            "system": "urn:oid:2.16.840.1.113883.6.238",
            "code": "1002-5",
            "display": "American Indian or Alaska Native",
            "userSelected": true
          }
        }, {
          "url": "text",
          "valueString": "American Indian or Alaska Native"
        } ]
      }, {
        "url": "http://hl7.org/fhir/us/core/StructureDefinition/us-core-ethnicity",
        "extension": [ {
          "url": "ombCategory",
          "valueCoding": {
            "system": "urn:oid:2.16.840.1.113883.6.238",
            "code": "2135-2",
            "display": "Hispanic or Latino",
            "userSelected": true
          }
        }, {
          "url": "text",
          "valueString": "Hispanic or Latino"
        } ]
      } ],
      "identifier": [ {
        "type": {
          "coding": [ {
            "system": "http://terminology.hl7.org/CodeSystem/v2-0203",
            "code": "MR"
          } ]
        },
        "system": "https://bonnie-fhir.healthit.gov/",
        "value": "6356dca654e383debade75aa"
      } ],
      "active": true,
      "name": [ {
        "use": "usual",
        "family": "RISKPass",
        "given": [ "RISKEGAEQ20Wks" ]
      } ],
      "gender": "female",
      "birthDate": "2004-02-01"
    },
    "request": {
      "method": "PUT",
      "url": "Patient/64a5e735-5178-4cb2-8d9b-60ac31d21c2e"
    }
  }, {
    "fullUrl": "https://madie.cms.gov/Observation/d6ce6a6a-fe44-4f60-a9be-54a616b7c597",
    "resource": {
      "resourceType": "Observation",
      "id": "d6ce6a6a-fe44-4f60-a9be-54a616b7c597",
      "meta": {
        "profile": [ "http://hl7.org/fhir/us/qicore/StructureDefinition/qicore-observation" ]
      },
      "status": "final",
      "category": [ {
        "coding": [ {
          "system": "http://terminology.hl7.org/CodeSystem/observation-category",
          "code": "exam",
          "display": "exam",
          "userSelected": true
        } ]
      } ],
      "code": {
        "coding": [ {
          "system": "http://loinc.org",
          "code": "93857-1"
        } ]
      },
      "subject": {
        "reference": "Patient/64a5e735-5178-4cb2-8d9b-60ac31d21c2e"
      },
      "effectiveDateTime": "2025-02-01T08:00:00.000+00:00",
      "valueDateTime": "2025-02-01T08:00:00+00:00"
    },
    "request": {
      "method": "PUT",
      "url": "Observation/d6ce6a6a-fe44-4f60-a9be-54a616b7c597"
    }
  }, {
    "fullUrl": "https://madie.cms.gov/Observation/15467a32-b892-4bd7-97c8-25c15c12c57e",
    "resource": {
      "resourceType": "Observation",
      "id": "15467a32-b892-4bd7-97c8-25c15c12c57e",
      "meta": {
        "profile": [ "http://hl7.org/fhir/us/qicore/StructureDefinition/qicore-observation" ]
      },
      "status": "final",
      "category": [ {
        "coding": [ {
          "system": "http://terminology.hl7.org/CodeSystem/observation-category",
          "code": "exam",
          "display": "exam",
          "userSelected": true
        } ]
      } ],
      "code": {
        "coding": [ {
          "system": "http://loinc.org",
          "code": "11884-4"
        } ]
      },
      "subject": {
        "reference": "Patient/64a5e735-5178-4cb2-8d9b-60ac31d21c2e"
      },
      "effectiveDateTime": "2025-02-01T08:00:00.000+00:00",
      "valueQuantity": {
        "value": 20,
        "system": "http://unitsofmeasure.org",
        "code": "wk"
      }
    },
    "request": {
      "method": "PUT",
      "url": "Observation/15467a32-b892-4bd7-97c8-25c15c12c57e"
    }
  }, {
    "fullUrl": "https://madie.cms.gov/Encounter/440ad533-80a5-4907-86ea-0172b8aa27bd",
    "resource": {
      "resourceType": "Encounter",
      "id": "440ad533-80a5-4907-86ea-0172b8aa27bd",
      "meta": {
        "profile": [ "http://hl7.org/fhir/us/qicore/StructureDefinition/qicore-encounter" ]
      },
      "status": "finished",
      "class": {
        "system": "http://terminology.hl7.org/CodeSystem/v3-ActCode",
        "code": "IMP",
        "display": "inpatient encounter"
      },
      "type": [ {
        "coding": [ {
          "system": "http://snomed.info/sct",
          "code": "183452005"
        } ]
      } ],
      "subject": {
        "reference": "Patient/64a5e735-5178-4cb2-8d9b-60ac31d21c2e"
      },
      "period": {
        "start": "2025-02-01T08:00:00.000Z",
        "end": "2025-02-05T08:15:00.000Z"
      },
      "diagnosis": [ {
        "extension": [ {
          "url": "http://hl7.org/fhir/us/qicore/StructureDefinition/qicore-encounter-diagnosisPresentOnAdmission",
          "valueCodeableConcept": {
            "coding": [ {
              "system": "https://www.cms.gov/Medicare/Medicare-Fee-for-Service-Payment/HospitalAcqCond/Coding",
              "code": "Y"
            } ]
          }
        } ],
        "condition": {
          "reference": "Condition/218985d7-6c35-48c7-85aa-4674c0fabc9e"
        }
      } ]
    },
    "request": {
      "method": "PUT",
      "url": "Encounter/440ad533-80a5-4907-86ea-0172b8aa27bd"
    }
  }, {
    "fullUrl": "https://madie.cms.gov/Procedure/9d4fd5b8-e628-45dd-811b-42b47f29290a",
    "resource": {
      "resourceType": "Procedure",
      "id": "9d4fd5b8-e628-45dd-811b-42b47f29290a",
      "meta": {
        "profile": [ "http://hl7.org/fhir/us/qicore/StructureDefinition/qicore-procedure" ]
      },
      "extension": [ {
        "url": "http://hl7.org/fhir/us/qicore/StructureDefinition/qicore-recorded",
        "valueDateTime": "2013-04-05T09:35:00-04:00"
      } ],
      "status": "completed",
      "code": {
        "coding": [ {
          "system": "http://snomed.info/sct",
          "code": "10745001"
        } ]
      },
      "subject": {
        "reference": "Patient/64a5e735-5178-4cb2-8d9b-60ac31d21c2e"
      },
      "performedPeriod": {
        "start": "2025-02-01T08:00:00.000Z",
        "end": "2025-02-05T08:15:00.000Z"
      }
    },
    "request": {
      "method": "PUT",
      "url": "Procedure/9d4fd5b8-e628-45dd-811b-42b47f29290a"
    }
  }, {
    "fullUrl": "https://madie.cms.gov/Condition/218985d7-6c35-48c7-85aa-4674c0fabc9e",
    "resource": {
      "resourceType": "Condition",
      "id": "218985d7-6c35-48c7-85aa-4674c0fabc9e",
      "meta": {
        "profile": [ "http://hl7.org/fhir/us/qicore/StructureDefinition/qicore-condition" ]
      },
      "category": [ {
        "coding": [ {
          "system": "http://terminology.hl7.org/CodeSystem/condition-category",
          "code": "encounter-diagnosis",
          "display": "Encounter Diagnosis"
        } ]
      } ],
      "code": {
        "coding": [ {
          "system": "http://hl7.org/fhir/sid/icd-10-cm",
          "version": "2023",
          "code": "Z3A.20",
          "display": "20 weeks gestation",
          "userSelected": true
        } ]
      },
      "subject": {
        "reference": "Patient/64a5e735-5178-4cb2-8d9b-60ac31d21c2e"
      },
      "recordedDate": "2025-10-26T08:00:00.000+00:00"
    },
    "request": {
      "method": "PUT",
      "url": "Condition/218985d7-6c35-48c7-85aa-4674c0fabc9e"
    }
  }, {
    "fullUrl": "https://madie.cms.gov/Coverage/049ece41-9f57-47fa-b534-1bbfec673d0b",
    "resource": {
      "resourceType": "Coverage",
      "id": "049ece41-9f57-47fa-b534-1bbfec673d0b",
      "meta": {
        "profile": [ "http://hl7.org/fhir/us/qicore/StructureDefinition/qicore-coverage" ]
      },
      "status": "active",
      "beneficiary": {
        "reference": "Patient/64a5e735-5178-4cb2-8d9b-60ac31d21c2e"
      },
      "payor": [ {
        "reference": "Organization/eff94464-6486-49ab-b820-0b584f79576c"
      } ]
    },
    "request": {
      "method": "PUT",
      "url": "Coverage/049ece41-9f57-47fa-b534-1bbfec673d0b"
    }
  }, {
    "fullUrl": "https://madie.cms.gov/Organization/eff94464-6486-49ab-b820-0b584f79576c",
    "resource": {
      "resourceType": "Organization",
      "id": "eff94464-6486-49ab-b820-0b584f79576c",
      "meta": {
        "profile": [ "http://hl7.org/fhir/us/qicore/StructureDefinition/qicore-organization" ]
      },
      "identifier": [ {
        "use": "temp",
        "system": "urn:oid:2.16.840.1.113883.4.4",
        "value": "21-3259825"
      } ],
      "active": true,
      "type": [ {
        "coding": [ {
          "system": "http://terminology.hl7.org/CodeSystem/organization-type",
          "code": "pay",
          "display": "Payer"
        } ]
      } ],
      "name": "Blue Cross Blue Shield of Texas",
      "telecom": [ {
        "system": "phone",
        "value": "(+1) 972-766-6900"
      } ],
      "address": [ {
        "use": "billing",
        "type": "postal",
        "line": [ "P.O. Box 660044" ],
        "city": "Dallas",
        "state": "TX",
        "postalCode": "75266-0044",
        "country": "USA"
      } ]
    },
    "request": {
      "method": "PUT",
      "url": "Organization/eff94464-6486-49ab-b820-0b584f79576c"
    }
  }, {
    "fullUrl": "https://madie.cms.gov/Practitioner/c8c97299-8dd1-4ea5-aad0-3571acba9375",
    "resource": {
      "resourceType": "Practitioner",
      "id": "c8c97299-8dd1-4ea5-aad0-3571acba9375",
      "identifier": [ {
        "system": "http://hl7.org/fhir/sid/us-npi",
        "value": "123456"
      } ],
      "name": [ {
        "family": "Evil",
        "prefix": [ "Dr" ]
      } ]
    },
    "request": {
      "method": "PUT",
      "url": "Practitioner/c8c97299-8dd1-4ea5-aad0-3571acba9375"
    }
  }, {
    "fullUrl": "https://madie.cms.gov/MeasureReport/3f412f5f-33eb-4f15-9803-35a7feed2fee",
    "resource": {
      "resourceType": "MeasureReport",
      "id": "3f412f5f-33eb-4f15-9803-35a7feed2fee",
      "meta": {
        "profile": [ "http://hl7.org/fhir/us/cqfmeasures/StructureDefinition/test-case-cqfm" ]
      },
      "contained": [ {
        "resourceType": "Parameters",
        "id": "7d04e334-2475-4e05-9f53-8d0ed3c357fc-parameters",
        "parameter": [ {
          "name": "subject",
          "valueString": "64a5e735-5178-4cb2-8d9b-60ac31d21c2e"
        } ]
      } ],
      "extension": [ {
        "url": "http://hl7.org/fhir/us/cqfmeasures/StructureDefinition/cqfm-inputParameters",
        "valueReference": {
          "reference": "#7d04e334-2475-4e05-9f53-8d0ed3c357fc-parameters"
        }
      }, {
        "url": "http://hl7.org/fhir/us/cqfmeasures/StructureDefinition/cqfm-testCaseDescription",
        "valueMarkdown": "\"Risk variable of preterm birth.  EGA is 20 weeks.\n.\"\n"
      } ],
      "modifierExtension": [ {
        "url": "http://hl7.org/fhir/us/cqfmeasures/StructureDefinition/cqfm-isTestCase",
        "valueBoolean": true
      } ],
      "status": "complete",
      "type": "individual",
      "measure": "https://madie.cms.gov/Measure/CMS1028FHIRPCSevereOBComps",
      "period": {
        "start": "2025-01-01",
        "end": "2025-12-31"
      },
      "group": [ {
        "population": [ {
          "code": {
            "coding": [ {
              "system": "http://terminology.hl7.org/CodeSystem/measure-population",
              "code": "initial-population",
              "display": "Initial Population"
            } ]
          },
          "count": 1
        }, {
          "code": {
            "coding": [ {
              "system": "http://terminology.hl7.org/CodeSystem/measure-population",
              "code": "denominator",
              "display": "Denominator"
            } ]
          },
          "count": 1
        }, {
          "code": {
            "coding": [ {
              "system": "http://terminology.hl7.org/CodeSystem/measure-population",
              "code": "numerator",
              "display": "Numerator"
            } ]
          },
          "count": 0
        }, {
          "code": {
            "coding": [ {
              "system": "http://terminology.hl7.org/CodeSystem/measure-population",
              "code": "numerator-exclusion",
              "display": "Numerator Exclusion"
            } ]
          },
          "count": 0
        } ]
      }, {
        "population": [ {
          "code": {
            "coding": [ {
              "system": "http://terminology.hl7.org/CodeSystem/measure-population",
              "code": "initial-population",
              "display": "Initial Population"
            } ]
          },
          "count": 1
        }, {
          "code": {
            "coding": [ {
              "system": "http://terminology.hl7.org/CodeSystem/measure-population",
              "code": "denominator",
              "display": "Denominator"
            } ]
          },
          "count": 1
        }, {
          "code": {
            "coding": [ {
              "system": "http://terminology.hl7.org/CodeSystem/measure-population",
              "code": "numerator",
              "display": "Numerator"
            } ]
          },
          "count": 0
        }, {
          "code": {
            "coding": [ {
              "system": "http://terminology.hl7.org/CodeSystem/measure-population",
              "code": "numerator-exclusion",
              "display": "Numerator Exclusion"
            } ]
          },
          "count": 0
        } ]
      } ],
      "evaluatedResource": [ {
        "reference": "Patient/64a5e735-5178-4cb2-8d9b-60ac31d21c2e"
      }, {
        "reference": "Observation/d6ce6a6a-fe44-4f60-a9be-54a616b7c597"
      }, {
        "reference": "Observation/15467a32-b892-4bd7-97c8-25c15c12c57e"
      }, {
        "reference": "Encounter/440ad533-80a5-4907-86ea-0172b8aa27bd"
      }, {
        "reference": "Procedure/9d4fd5b8-e628-45dd-811b-42b47f29290a"
      }, {
        "reference": "Condition/218985d7-6c35-48c7-85aa-4674c0fabc9e"
      }, {
        "reference": "Coverage/049ece41-9f57-47fa-b534-1bbfec673d0b"
      }, {
        "reference": "Organization/eff94464-6486-49ab-b820-0b584f79576c"
      }, {
        "reference": "Practitioner/c8c97299-8dd1-4ea5-aad0-3571acba9375"
      } ]
    },
    "request": {
      "method": "PUT",
      "url": "MeasureReport/3f412f5f-33eb-4f15-9803-35a7feed2fee"
    }
  } ]
}