{"resourceType":"Bundle","id":"tests-096f5b55-b4fd-4827-831d-4910485b5376-bundle","type":"transaction","entry":[{"fullUrl":"https://madie.cms.gov/Patient/096f5b55-b4fd-4827-831d-4910485b5376","resource":{"resourceType":"Patient","id":"096f5b55-b4fd-4827-831d-4910485b5376","meta":{"profile":["http://hl7.org/fhir/us/qicore/StructureDefinition/qicore-patient"]},"extension":[{"url":"http://hl7.org/fhir/us/core/StructureDefinition/us-core-race","extension":[{"url":"ombCategory","valueCoding":{"system":"urn:oid:2.16.840.1.113883.6.238","code":"1002-5","display":"American Indian or Alaska Native","userSelected":true}},{"url":"text","valueString":"American Indian or Alaska Native"}]},{"url":"http://hl7.org/fhir/us/core/StructureDefinition/us-core-ethnicity","extension":[{"url":"ombCategory","valueCoding":{"system":"urn:oid:2.16.840.1.113883.6.238","code":"2135-2","display":"Hispanic or Latino","userSelected":true}},{"url":"text","valueString":"Hispanic or Latino"}]}],"identifier":[{"type":{"coding":[{"system":"http://terminology.hl7.org/CodeSystem/v2-0203","code":"MR"}]},"system":"https://bonnie-fhir.healthit.gov/","value":"6298e96c5c5f0f80c3806878"}],"name":[{"family":"DENOMFail","given":["LastPSA11BeforeMostRecentStaging"]}],"gender":"male","birthDate":"1979-12-31"},"request":{"method":"PUT","url":"Patient/096f5b55-b4fd-4827-831d-4910485b5376"}},{"fullUrl":"https://madie.cms.gov/Condition/prostate-cancer-a8d8","resource":{"resourceType":"Condition","id":"97f954f6-be81-4d19-99d1-744efafcb0c5","meta":{"profile":["http://hl7.org/fhir/us/qicore/StructureDefinition/qicore-condition"]},"clinicalStatus":{"coding":[{"system":"http://terminology.hl7.org/CodeSystem/condition-clinical","code":"active","display":"active","userSelected":true}]},"category":[{"coding":[{"system":"http://terminology.hl7.org/CodeSystem/condition-category","code":"problem-list-item","display":"Problem List Item"},{"system":"http://snomed.info/sct","code":"439401001","display":"Diagnosis"}]}],"code":{"coding":[{"system":"http://snomed.info/sct","version":"2022-03","code":"254900004","display":"Carcinoma of prostate (disorder)","userSelected":true}]},"subject":{"reference":"Patient/096f5b55-b4fd-4827-831d-4910485b5376"},"onsetPeriod":{"start":"2007-06-14T08:00:00.000+00:00"}},"request":{"method":"PUT","url":"Condition/97f954f6-be81-4d19-99d1-744efafcb0c5"}},{"fullUrl":"https://madie.cms.gov/Procedure/prostate-cancer-treatment-a8d9","resource":{"resourceType":"Procedure","id":"e4e1a1ee-c2a9-4fe7-b732-7e483be00bb0","meta":{"profile":["http://hl7.org/fhir/us/qicore/StructureDefinition/qicore-procedure"]},"extension":[{"url":"http://hl7.org/fhir/us/qicore/StructureDefinition/qicore-recorded","valueDateTime":"2025-02-01T09:00:00.000+00:00"}],"status":"completed","code":{"coding":[{"system":"http://snomed.info/sct","version":"2022-03","code":"10492003","display":"Radionuclide therapy for glandular suppression (procedure)","userSelected":true}]},"subject":{"reference":"Patient/096f5b55-b4fd-4827-831d-4910485b5376"},"performedDateTime":"2025-12-28T08:00:00.000+00:00"},"request":{"method":"PUT","url":"Procedure/e4e1a1ee-c2a9-4fe7-b732-7e483be00bb0"}},{"fullUrl":"https://madie.cms.gov/Observation/prostate-specific-antigen-test-a8db","resource":{"resourceType":"Observation","id":"c0b7fa8e-9796-44d5-9804-69b5c71486fd","meta":{"profile":["http://hl7.org/fhir/us/qicore/StructureDefinition/qicore-observation"]},"status":"final","category":[{"coding":[{"system":"http://terminology.hl7.org/CodeSystem/observation-category","code":"procedure","display":"Procedure"}]}],"code":{"coding":[{"system":"http://loinc.org","version":"2.72","code":"10508-0","display":"Prostate specific Ag [Presence] in Tissue by Immune stain","userSelected":true}]},"subject":{"reference":"Patient/096f5b55-b4fd-4827-831d-4910485b5376"},"effectiveDateTime":"2025-04-24T08:00:00.000+00:00","valueQuantity":{"value":10.1,"system":"http://unitsofmeasure.org","code":"ng/mL"}},"request":{"method":"PUT","url":"Observation/c0b7fa8e-9796-44d5-9804-69b5c71486fd"}},{"fullUrl":"https://madie.cms.gov/Observation/prostate-specific-antigen-test-a9db","resource":{"resourceType":"Observation","id":"3be9e6f5-2c14-480c-898c-d08b03e0d75d","meta":{"profile":["http://hl7.org/fhir/us/qicore/StructureDefinition/qicore-observation"]},"status":"final","category":[{"coding":[{"system":"http://terminology.hl7.org/CodeSystem/observation-category","code":"procedure","display":"Procedure"}]}],"code":{"coding":[{"system":"http://loinc.org","version":"2.72","code":"10508-0","display":"Prostate specific Ag [Presence] in Tissue by Immune stain","userSelected":true}]},"subject":{"reference":"Patient/096f5b55-b4fd-4827-831d-4910485b5376"},"effectiveDateTime":"2025-06-30T08:00:00.000+00:00","valueQuantity":{"value":8.0,"system":"http://unitsofmeasure.org","code":"ng/mL"}},"request":{"method":"PUT","url":"Observation/3be9e6f5-2c14-480c-898c-d08b03e0d75d"}},{"fullUrl":"https://madie.cms.gov/Observation/prostate-specific-antigen-test-a10db","resource":{"resourceType":"Observation","id":"f02b553c-7752-4707-a1d5-2d27f3601be5","meta":{"profile":["http://hl7.org/fhir/us/qicore/StructureDefinition/qicore-observation"]},"status":"final","category":[{"coding":[{"system":"http://terminology.hl7.org/CodeSystem/observation-category","code":"procedure","display":"Procedure"}]}],"code":{"coding":[{"system":"http://loinc.org","version":"2.72","code":"10508-0","display":"Prostate specific Ag [Presence] in Tissue by Immune stain","userSelected":true}]},"subject":{"reference":"Patient/096f5b55-b4fd-4827-831d-4910485b5376"},"effectiveDateTime":"2025-08-01T08:00:00.000+00:00","valueQuantity":{"value":11.0,"system":"http://unitsofmeasure.org","code":"ng/mL"}},"request":{"method":"PUT","url":"Observation/f02b553c-7752-4707-a1d5-2d27f3601be5"}},{"fullUrl":"https://madie.cms.gov/Observation/gleason-score-in-specimen-qualitative-a8dc","resource":{"resourceType":"Observation","id":"980f2b53-16d5-4ed4-8d5b-2d2ba1c5e9f9","meta":{"profile":["http://hl7.org/fhir/us/qicore/StructureDefinition/qicore-observation"]},"status":"final","category":[{"coding":[{"system":"http://terminology.hl7.org/CodeSystem/observation-category","code":"procedure","display":"Procedure"}]}],"code":{"coding":[{"system":"http://loinc.org","code":"35266-6","display":"Gleason score in Specimen Qualitative","userSelected":true}]},"subject":{"reference":"Patient/096f5b55-b4fd-4827-831d-4910485b5376"},"effectiveDateTime":"2025-01-02T08:00:00.000+00:00","valueInteger":5},"request":{"method":"PUT","url":"Observation/980f2b53-16d5-4ed4-8d5b-2d2ba1c5e9f9"}},{"fullUrl":"https://madie.cms.gov/Observation/tumor-staging-tumor-staging-a8dd","resource":{"resourceType":"Observation","id":"da06e33d-d37a-416d-b522-30adb294a2e3","meta":{"profile":["http://hl7.org/fhir/us/qicore/StructureDefinition/qicore-observation"]},"status":"final","category":[{"coding":[{"system":"http://terminology.hl7.org/CodeSystem/observation-category","code":"procedure","display":"Procedure"}]}],"code":{"coding":[{"system":"http://snomed.info/sct","code":"254292007","display":"Tumor staging (tumor staging)","userSelected":true}]},"subject":{"reference":"Patient/096f5b55-b4fd-4827-831d-4910485b5376"},"effectiveDateTime":"2025-04-26T08:00:00.000+00:00","valueCodeableConcept":{"coding":[{"system":"http://snomed.info/sct","code":"433361000124104","display":"Neoplasm of prostate primary tumor staging category T2a: Involves one-half of one lobe or less (finding)","userSelected":true}]}},"request":{"method":"PUT","url":"Observation/da06e33d-d37a-416d-b522-30adb294a2e3"}},{"fullUrl":"https://madie.cms.gov/Observation/tumor-staging-tumor-staging-a9dd","resource":{"resourceType":"Observation","id":"70f65c85-b23d-46cc-aa72-733d2f20f597","meta":{"profile":["http://hl7.org/fhir/us/qicore/StructureDefinition/qicore-observation"]},"status":"amended","category":[{"coding":[{"system":"http://terminology.hl7.org/CodeSystem/observation-category","code":"procedure","display":"Procedure"}]}],"code":{"coding":[{"system":"http://snomed.info/sct","code":"254292007","display":"Tumor staging (tumor staging)","userSelected":true}]},"subject":{"reference":"Patient/096f5b55-b4fd-4827-831d-4910485b5376"},"effectiveDateTime":"2025-06-26T08:00:00.000+00:00","valueCodeableConcept":{"coding":[{"system":"http://snomed.info/sct","code":"433361000124104","display":"T1a: Prostate tumor incidental histologic finding in 5 percent or less of tissue resected (finding)","userSelected":true}]}},"request":{"method":"PUT","url":"Observation/70f65c85-b23d-46cc-aa72-733d2f20f597"}},{"fullUrl":"https://madie.cms.gov/Observation/tumor-staging-tumor-staging-a10dd","resource":{"resourceType":"Observation","id":"95d9064a-4702-4492-891e-9309ddabd190","meta":{"profile":["http://hl7.org/fhir/us/qicore/StructureDefinition/qicore-observation"]},"status":"corrected","category":[{"coding":[{"system":"http://terminology.hl7.org/CodeSystem/observation-category","code":"procedure","display":"Procedure"}]}],"code":{"coding":[{"system":"http://snomed.info/sct","code":"254292007","display":"Tumor staging (tumor staging)","userSelected":true}]},"subject":{"reference":"Patient/096f5b55-b4fd-4827-831d-4910485b5376"},"effectiveDateTime":"2025-08-26T08:00:00.000+00:00","valueCodeableConcept":{"coding":[{"system":"http://snomed.info/sct","code":"433361000124104","display":"T1b: Prostate tumor incidental histologic finding in greater than 5 percent of tissue resected (finding)","userSelected":true}]}},"request":{"method":"PUT","url":"Observation/95d9064a-4702-4492-891e-9309ddabd190"}},{"fullUrl":"https://madie.cms.gov/Observation/bone-scan-5337","resource":{"resourceType":"Observation","id":"dfa45c88-549e-4e07-a69c-7851663dd103","meta":{"profile":["http://hl7.org/fhir/us/qicore/StructureDefinition/qicore-observation"]},"status":"final","category":[{"coding":[{"system":"http://terminology.hl7.org/CodeSystem/observation-category","code":"procedure","display":"Procedure"}]}],"code":{"coding":[{"system":"http://loinc.org","version":"2.72","code":"25031-6","display":"NM Bone Views","userSelected":true}]},"subject":{"reference":"Patient/096f5b55-b4fd-4827-831d-4910485b5376"},"effectiveDateTime":"2025-08-17T08:00:00.000+00:00","issued":"2025-08-17T08:00:00.000+00:00"},"request":{"method":"PUT","url":"Observation/dfa45c88-549e-4e07-a69c-7851663dd103"}},{"fullUrl":"https://madie.cms.gov/Coverage/1","resource":{"resourceType":"Coverage","id":"610d6ad5-5705-4f61-a6ce-88bae78bf3b6","meta":{"profile":["http://hl7.org/fhir/us/qicore/StructureDefinition/qicore-coverage"]},"status":"active","beneficiary":{"reference":"Patient/096f5b55-b4fd-4827-831d-4910485b5376"},"payor":[{"reference":"Organization/806b0255-13cb-4f2b-9412-571554dd2169"}]},"request":{"method":"PUT","url":"Coverage/610d6ad5-5705-4f61-a6ce-88bae78bf3b6"}},{"fullUrl":"https://madie.cms.gov/Organization/123456","resource":{"resourceType":"Organization","id":"806b0255-13cb-4f2b-9412-571554dd2169","meta":{"profile":["http://hl7.org/fhir/us/qicore/StructureDefinition/qicore-organization"]},"identifier":[{"use":"temp","system":"urn:oid:2.16.840.1.113883.4.4","value":"21-3259825"}],"active":true,"type":[{"coding":[{"system":"http://terminology.hl7.org/CodeSystem/organization-type","code":"pay","display":"Payer"}]}],"name":"Blue Cross Blue Shield of Texas","telecom":[{"system":"phone","value":"(+1) 972-766-6900"}],"address":[{"use":"billing","type":"postal","line":["P.O. Box 660044"],"city":"Dallas","state":"TX","postalCode":"75266-0044","country":"USA"}]},"request":{"method":"PUT","url":"Organization/806b0255-13cb-4f2b-9412-571554dd2169"}},{"fullUrl":"https://madie.cms.gov/Practitioner/practitioner-123456","resource":{"resourceType":"Practitioner","id":"02724f08-edaf-4409-ad49-6617ef441482","meta":{"profile":["http://hl7.org/fhir/us/qicore/StructureDefinition/qicore-practitioner"]},"identifier":[{"system":"http://hl7.org/fhir/sid/us-npi","value":"123456"}],"name":[{"family":"Evil","prefix":["Dr"]}]},"request":{"method":"PUT","url":"Practitioner/02724f08-edaf-4409-ad49-6617ef441482"}},{"fullUrl":"https://madie.cms.gov/MeasureReport/1e301504-061e-4100-b621-ce17069ce446","resource":{"resourceType":"MeasureReport","id":"1e301504-061e-4100-b621-ce17069ce446","meta":{"profile":["http://hl7.org/fhir/us/cqfmeasures/StructureDefinition/test-case-cqfm"]},"contained":[{"resourceType":"Parameters","id":"e964d890-dfe6-413b-b324-b5391bc9566f-parameters","parameter":[{"name":"subject","valueString":"096f5b55-b4fd-4827-831d-4910485b5376"}]}],"extension":[{"url":"http://hl7.org/fhir/us/cqfmeasures/StructureDefinition/cqfm-inputParameters","valueReference":{"reference":"#e964d890-dfe6-413b-b324-b5391bc9566f-parameters"}},{"url":"http://hl7.org/fhir/us/cqfmeasures/StructureDefinition/cqfm-testCaseDescription","valueMarkdown":"1st PSA 10.1, 2nd PSA 8, last PSA 11 before most recent staging"}],"modifierExtension":[{"url":"http://hl7.org/fhir/us/cqfmeasures/StructureDefinition/cqfm-isTestCase","valueBoolean":true}],"status":"complete","type":"individual","measure":"https://madie.cms.gov/Measure/ProstateCaAvoidanceBoneScanOveruseFHIR","period":{"start":"2025-01-01","end":"2025-12-31"},"group":[{"population":[{"code":{"coding":[{"system":"http://terminology.hl7.org/CodeSystem/measure-population","code":"initial-population","display":"Initial Population"}]},"count":1},{"code":{"coding":[{"system":"http://terminology.hl7.org/CodeSystem/measure-population","code":"denominator","display":"Denominator"}]},"count":0},{"code":{"coding":[{"system":"http://terminology.hl7.org/CodeSystem/measure-population","code":"numerator","display":"Numerator"}]},"count":0},{"code":{"coding":[{"system":"http://terminology.hl7.org/CodeSystem/measure-population","code":"denominator-exception","display":"Denominator Exception"}]},"count":0}]}]},"request":{"method":"PUT","url":"MeasureReport/1e301504-061e-4100-b621-ce17069ce446"}}]}