{"resourceType":"Bundle","id":"tests-3f3451df-9ff1-48b1-9c67-647aa6144389-bundle","type":"transaction","entry":[{"fullUrl":"https://madie.cms.gov/Patient/3f3451df-9ff1-48b1-9c67-647aa6144389","resource":{"resourceType":"Patient","id":"3f3451df-9ff1-48b1-9c67-647aa6144389","meta":{"profile":["http://hl7.org/fhir/us/qicore/StructureDefinition/qicore-patient"]},"extension":[{"url":"http://hl7.org/fhir/us/core/StructureDefinition/us-core-race","extension":[{"url":"ombCategory","valueCoding":{"system":"urn:oid:2.16.840.1.113883.6.238","code":"1002-5","display":"American Indian or Alaska Native","userSelected":true}},{"url":"text","valueString":"American Indian or Alaska Native"}]},{"url":"http://hl7.org/fhir/us/core/StructureDefinition/us-core-ethnicity","extension":[{"url":"ombCategory","valueCoding":{"system":"urn:oid:2.16.840.1.113883.6.238","code":"2135-2","display":"Hispanic or Latino","userSelected":true}},{"url":"text","valueString":"Hispanic or Latino"}]}],"identifier":[{"type":{"coding":[{"system":"http://terminology.hl7.org/CodeSystem/v2-0203","code":"MR"}]},"system":"https://bonnie-fhir.healthit.gov/","value":"62fd2c9e32e2f917c3627d87"}],"name":[{"family":"NUMERFail","given":["BoneScanOverlapsStartMP"]}],"gender":"male","birthDate":"1986-02-27"},"request":{"method":"PUT","url":"Patient/3f3451df-9ff1-48b1-9c67-647aa6144389"}},{"fullUrl":"https://madie.cms.gov/Condition/prostate-cancer-a8e0","resource":{"resourceType":"Condition","id":"6deb3441-e0be-4622-977f-b75221274138","meta":{"profile":["http://hl7.org/fhir/us/qicore/StructureDefinition/qicore-condition"]},"clinicalStatus":{"coding":[{"system":"http://terminology.hl7.org/CodeSystem/condition-clinical","code":"active","display":"active","userSelected":true}]},"category":[{"coding":[{"system":"http://terminology.hl7.org/CodeSystem/condition-category","code":"problem-list-item","display":"Problem List Item"},{"system":"http://snomed.info/sct","code":"439401001","display":"Diagnosis"}]}],"code":{"coding":[{"system":"http://snomed.info/sct","version":"2022-03","code":"254900004","display":"Carcinoma of prostate (disorder)","userSelected":true}]},"subject":{"reference":"Patient/3f3451df-9ff1-48b1-9c67-647aa6144389"},"onsetDateTime":"2024-01-07T08:00:00.000+00:00","recordedDate":"2025-06-02T08:00:00.000+00:00"},"request":{"method":"PUT","url":"Condition/6deb3441-e0be-4622-977f-b75221274138"}},{"fullUrl":"https://madie.cms.gov/Procedure/prostate-cancer-treatment-a8e1","resource":{"resourceType":"Procedure","id":"13205524-1610-4cef-9fdd-2a641302d18c","meta":{"profile":["http://hl7.org/fhir/us/qicore/StructureDefinition/qicore-procedure"]},"extension":[{"url":"http://hl7.org/fhir/us/qicore/StructureDefinition/qicore-recorded","valueDateTime":"2025-02-01T09:00:00.000+00:00"}],"status":"completed","code":{"coding":[{"system":"http://snomed.info/sct","version":"2022-03","code":"10492003","display":"Radionuclide therapy for glandular suppression (procedure)","userSelected":true}]},"subject":{"reference":"Patient/3f3451df-9ff1-48b1-9c67-647aa6144389"},"performedDateTime":"2025-06-02T08:00:00.000+00:00"},"request":{"method":"PUT","url":"Procedure/13205524-1610-4cef-9fdd-2a641302d18c"}},{"fullUrl":"https://madie.cms.gov/Observation/prostate-specific-antigen-test-a8e2","resource":{"resourceType":"Observation","id":"54074a53-5454-463e-80bb-1b9cc9c0809e","meta":{"profile":["http://hl7.org/fhir/us/qicore/StructureDefinition/qicore-observation"]},"status":"final","category":[{"coding":[{"system":"http://terminology.hl7.org/CodeSystem/observation-category","code":"procedure","display":"Procedure"}]}],"code":{"coding":[{"system":"http://loinc.org","version":"2.72","code":"2857-1","display":"Prostate specific Ag [Mass/volume] in Serum or Plasma","userSelected":true}]},"subject":{"reference":"Patient/3f3451df-9ff1-48b1-9c67-647aa6144389"},"effectiveDateTime":"2025-01-07T08:00:00.000+00:00","issued":"2025-04-02T08:00:00.000+00:00","valueQuantity":{"value":8.0,"system":"http://unitsofmeasure.org","code":"ng/mL"}},"request":{"method":"PUT","url":"Observation/54074a53-5454-463e-80bb-1b9cc9c0809e"}},{"fullUrl":"https://madie.cms.gov/Observation/gleason-score-in-specimen-qualitative-a8e3","resource":{"resourceType":"Observation","id":"c6ad22ac-b091-4094-9658-3157dc87c17a","meta":{"profile":["http://hl7.org/fhir/us/qicore/StructureDefinition/qicore-observation"]},"status":"final","category":[{"coding":[{"system":"http://terminology.hl7.org/CodeSystem/observation-category","code":"procedure","display":"Procedure"}]}],"code":{"coding":[{"system":"http://loinc.org","code":"35266-6","display":"Gleason score in Specimen Qualitative","userSelected":true}]},"subject":{"reference":"Patient/3f3451df-9ff1-48b1-9c67-647aa6144389"},"effectivePeriod":{"start":"2025-04-02T08:00:00.000+00:00"},"issued":"2025-04-02T08:00:00.000+00:00","valueInteger":5},"request":{"method":"PUT","url":"Observation/c6ad22ac-b091-4094-9658-3157dc87c17a"}},{"fullUrl":"https://madie.cms.gov/Observation/tumor-staging-tumor-staging-a8e4","resource":{"resourceType":"Observation","id":"f1b646f4-7937-4e30-ab2e-d9f74ed34658","meta":{"profile":["http://hl7.org/fhir/us/qicore/StructureDefinition/qicore-observation"]},"status":"final","category":[{"coding":[{"system":"http://terminology.hl7.org/CodeSystem/observation-category","code":"procedure","display":"Procedure"}]}],"code":{"coding":[{"system":"http://snomed.info/sct","code":"254292007","display":"Tumor staging (tumor staging)","userSelected":true}]},"subject":{"reference":"Patient/3f3451df-9ff1-48b1-9c67-647aa6144389"},"effectivePeriod":{"start":"2025-02-07T08:00:00.000+00:00"},"issued":"2025-02-02T08:00:00.000+00:00","valueCodeableConcept":{"coding":[{"system":"http://snomed.info/sct","code":"369833007","display":"T1a: Prostate tumor incidental histologic finding in 5% or less of tissue resected (finding)","userSelected":true}]}},"request":{"method":"PUT","url":"Observation/f1b646f4-7937-4e30-ab2e-d9f74ed34658"}},{"fullUrl":"https://madie.cms.gov/Observation/bone-scan-7d88","resource":{"resourceType":"Observation","id":"21b7bb7f-3cac-460c-b4a0-54b9740f5e60","meta":{"profile":["http://hl7.org/fhir/us/qicore/StructureDefinition/qicore-observation"]},"status":"final","category":[{"coding":[{"system":"http://terminology.hl7.org/CodeSystem/observation-category","code":"procedure","display":"Procedure"}]}],"code":{"coding":[{"system":"http://loinc.org","version":"2.72","code":"25031-6","display":"NM Bone Views","userSelected":true}]},"subject":{"reference":"Patient/3f3451df-9ff1-48b1-9c67-647aa6144389"},"effectivePeriod":{"start":"2025-12-31T08:00:00.000+00:00","end":"2026-01-01T08:00:00.000+00:00"}},"request":{"method":"PUT","url":"Observation/21b7bb7f-3cac-460c-b4a0-54b9740f5e60"}},{"fullUrl":"https://madie.cms.gov/Coverage/1","resource":{"resourceType":"Coverage","id":"f634b20f-ae6c-43ae-b480-eb473cf7bbb9","meta":{"profile":["http://hl7.org/fhir/us/qicore/StructureDefinition/qicore-coverage"]},"status":"active","beneficiary":{"reference":"Patient/3f3451df-9ff1-48b1-9c67-647aa6144389"},"payor":[{"reference":"Organization/9e9b3f13-a353-4173-b29b-947d6f1f2031"}]},"request":{"method":"PUT","url":"Coverage/f634b20f-ae6c-43ae-b480-eb473cf7bbb9"}},{"fullUrl":"https://madie.cms.gov/Organization/123456","resource":{"resourceType":"Organization","id":"9e9b3f13-a353-4173-b29b-947d6f1f2031","meta":{"profile":["http://hl7.org/fhir/us/qicore/StructureDefinition/qicore-organization"]},"identifier":[{"use":"temp","system":"urn:oid:2.16.840.1.113883.4.4","value":"21-3259825"}],"active":true,"type":[{"coding":[{"system":"http://terminology.hl7.org/CodeSystem/organization-type","code":"pay","display":"Payer"}]}],"name":"Blue Cross Blue Shield of Texas","telecom":[{"system":"phone","value":"(+1) 972-766-6900"}],"address":[{"use":"billing","type":"postal","line":["P.O. Box 660044"],"city":"Dallas","state":"TX","postalCode":"75266-0044","country":"USA"}]},"request":{"method":"PUT","url":"Organization/9e9b3f13-a353-4173-b29b-947d6f1f2031"}},{"fullUrl":"https://madie.cms.gov/Practitioner/practitioner-123456","resource":{"resourceType":"Practitioner","id":"d95b42cc-0da9-4b82-80ba-ead8513bc5e6","meta":{"profile":["http://hl7.org/fhir/us/qicore/StructureDefinition/qicore-practitioner"]},"identifier":[{"system":"http://hl7.org/fhir/sid/us-npi","value":"123456"}],"name":[{"family":"Evil","prefix":["Dr"]}]},"request":{"method":"PUT","url":"Practitioner/d95b42cc-0da9-4b82-80ba-ead8513bc5e6"}},{"fullUrl":"https://madie.cms.gov/MeasureReport/cd0b0896-f006-479d-9581-5cf7895f4025","resource":{"resourceType":"MeasureReport","id":"cd0b0896-f006-479d-9581-5cf7895f4025","meta":{"profile":["http://hl7.org/fhir/us/cqfmeasures/StructureDefinition/test-case-cqfm"]},"contained":[{"resourceType":"Parameters","id":"8c9e6466-cdf9-4f3e-9ee4-304aadc222b1-parameters","parameter":[{"name":"subject","valueString":"3f3451df-9ff1-48b1-9c67-647aa6144389"}]}],"extension":[{"url":"http://hl7.org/fhir/us/cqfmeasures/StructureDefinition/cqfm-inputParameters","valueReference":{"reference":"#8c9e6466-cdf9-4f3e-9ee4-304aadc222b1-parameters"}},{"url":"http://hl7.org/fhir/us/cqfmeasures/StructureDefinition/cqfm-testCaseDescription","valueMarkdown":"Bone scan overlaps end of MP where BoneScan ends after MP so numerator will pass. \n\n*Inside test, name indicates fail  \"BoneScanOverlapsStartMP\" but here in \"Details\"  name indicates that test passes overlaps end"}],"modifierExtension":[{"url":"http://hl7.org/fhir/us/cqfmeasures/StructureDefinition/cqfm-isTestCase","valueBoolean":true}],"status":"complete","type":"individual","measure":"https://madie.cms.gov/Measure/ProstateCaAvoidanceBoneScanOveruseFHIR","period":{"start":"2025-01-01","end":"2025-12-31"},"group":[{"population":[{"code":{"coding":[{"system":"http://terminology.hl7.org/CodeSystem/measure-population","code":"initial-population","display":"Initial Population"}]},"count":1},{"code":{"coding":[{"system":"http://terminology.hl7.org/CodeSystem/measure-population","code":"denominator","display":"Denominator"}]},"count":1},{"code":{"coding":[{"system":"http://terminology.hl7.org/CodeSystem/measure-population","code":"numerator","display":"Numerator"}]},"count":1},{"code":{"coding":[{"system":"http://terminology.hl7.org/CodeSystem/measure-population","code":"denominator-exception","display":"Denominator Exception"}]},"count":0}]}]},"request":{"method":"PUT","url":"MeasureReport/cd0b0896-f006-479d-9581-5cf7895f4025"}}]}