{"resourceType":"Bundle","id":"tests-0c90d2ea-5034-4465-8e4a-4d0d4e17cd5a-bundle","type":"transaction","entry":[{"fullUrl":"https://madie.cms.gov/Patient/0c90d2ea-5034-4465-8e4a-4d0d4e17cd5a","resource":{"resourceType":"Patient","id":"0c90d2ea-5034-4465-8e4a-4d0d4e17cd5a","meta":{"profile":["http://hl7.org/fhir/us/qicore/StructureDefinition/qicore-patient"]},"text":{"status":"generated","div":"<div xmlns=\"http://www.w3.org/1999/xhtml\"><div class=\"hapiHeaderText\">CMOdurED_ED&gt;1hrObs&gt;1hrBFEnc <b>DENEXFAIL </b></div><table class=\"hapiPropertyTable\"><tbody><tr><td>Identifier</td><td>b071f8846ebde5085dfbfab832ea39a12264592e0d7b151bd51d996298ce6f35</td></tr><tr><td>Date of birth</td><td><span>18 September 1985</span></td></tr></tbody></table></div>"},"extension":[{"url":"http://hl7.org/fhir/us/core/StructureDefinition/us-core-race","extension":[{"url":"ombCategory","valueCoding":{"system":"urn:oid:2.16.840.1.113883.6.238","code":"1002-5","display":"American Indian or Alaska Native","userSelected":true}},{"url":"text","valueString":"American Indian or Alaska Native"}]},{"url":"http://hl7.org/fhir/us/core/StructureDefinition/us-core-ethnicity","extension":[{"url":"ombCategory","valueCoding":{"system":"urn:oid:2.16.840.1.113883.6.238","code":"2135-2","display":"Hispanic or Latino","userSelected":true}},{"url":"text","valueString":"Hispanic or Latino"}]}],"identifier":[{"type":{"coding":[{"system":"http://terminology.hl7.org/CodeSystem/v2-0203","code":"MR"}]},"system":"https://bonnie-fhir.healthit.gov/","value":"633c9d040968f8012250fca7"}],"active":true,"name":[{"use":"usual","family":"DENEXFail","given":["CMOdurED_ED>1hrObs>1hrBFEnc"]}],"gender":"female","birthDate":"1985-09-18"},"request":{"method":"PUT","url":"Patient/0c90d2ea-5034-4465-8e4a-4d0d4e17cd5a"}},{"fullUrl":"https://madie.cms.gov/Condition/5c953f97b848462de0ae4161","resource":{"resourceType":"Condition","id":"f4d61b86-480c-4bb5-92bd-f9a08c2a1d60","meta":{"profile":["http://hl7.org/fhir/us/qicore/StructureDefinition/qicore-condition"]},"clinicalStatus":{"coding":[{"system":"http://terminology.hl7.org/CodeSystem/condition-clinical","code":"inactive"}]},"verificationStatus":{"coding":[{"system":"http://terminology.hl7.org/CodeSystem/condition-ver-status","code":"confirmed"}]},"category":[{"coding":[{"system":"http://terminology.hl7.org/CodeSystem/condition-category","code":"encounter-diagnosis","display":"Encounter Diagnosis"}]}],"code":{"coding":[{"system":"http://hl7.org/fhir/sid/icd-9-cm","code":"427.31"},{"system":"http://hl7.org/fhir/sid/icd-10-cm","code":"I48.0"},{"system":"http://snomed.info/sct","code":"5370000"}]},"subject":{"reference":"Patient/0c90d2ea-5034-4465-8e4a-4d0d4e17cd5a"},"onsetDateTime":"2025-10-01T09:00:00.000Z","abatementDateTime":"2025-10-12T00:15:00.000Z"},"request":{"method":"PUT","url":"Condition/f4d61b86-480c-4bb5-92bd-f9a08c2a1d60"}},{"fullUrl":"https://madie.cms.gov/Encounter/5c953f97b848462de0ae4162","resource":{"resourceType":"Encounter","id":"32b67b25-f72f-4777-a4f2-a1b4d5b6cab0","meta":{"profile":["http://hl7.org/fhir/us/qicore/StructureDefinition/qicore-encounter"]},"status":"finished","class":{"system":"http://terminology.hl7.org/CodeSystem/v3-ActCode","code":"EMER","display":"emergency"},"type":[{"coding":[{"system":"http://snomed.info/sct","code":"4525004"}]}],"subject":{"reference":"Patient/0c90d2ea-5034-4465-8e4a-4d0d4e17cd5a"},"period":{"start":"2025-09-30T06:59:00.000Z","end":"2025-09-30T07:00:00.000Z"},"length":{"value":0,"unit":"days"}},"request":{"method":"PUT","url":"Encounter/32b67b25-f72f-4777-a4f2-a1b4d5b6cab0"}},{"fullUrl":"https://madie.cms.gov/Encounter/5c953f97b848462de0ae4163","resource":{"resourceType":"Encounter","id":"a184232f-d96a-4b39-8c75-de5fe864ad53","meta":{"profile":["http://hl7.org/fhir/us/qicore/StructureDefinition/qicore-encounter"]},"status":"finished","class":{"system":"http://terminology.hl7.org/CodeSystem/v3-ActCode","code":"OBSENC","display":"observation encounter"},"type":[{"coding":[{"system":"http://snomed.info/sct","code":"448851000124103"}]}],"subject":{"reference":"Patient/0c90d2ea-5034-4465-8e4a-4d0d4e17cd5a"},"period":{"start":"2025-09-30T08:01:00.000Z","end":"2025-09-30T08:05:00.000Z"},"length":{"value":0,"unit":"days"}},"request":{"method":"PUT","url":"Encounter/a184232f-d96a-4b39-8c75-de5fe864ad53"}},{"fullUrl":"https://madie.cms.gov/Encounter/5c953f97b848462de0ae4164","resource":{"resourceType":"Encounter","id":"1bb74cf3-d575-42b5-90b8-d5238e263a2a","meta":{"profile":["http://hl7.org/fhir/us/qicore/StructureDefinition/qicore-encounter"]},"status":"finished","class":{"system":"http://terminology.hl7.org/CodeSystem/v3-ActCode","code":"IMP","display":"inpatient encounter"},"type":[{"coding":[{"system":"http://snomed.info/sct","code":"32485007"}]}],"subject":{"reference":"Patient/0c90d2ea-5034-4465-8e4a-4d0d4e17cd5a"},"period":{"start":"2025-09-30T09:06:00.000Z","end":"2025-10-12T00:15:00.000Z"},"length":{"value":12,"unit":"days"},"diagnosis":[{"condition":{"reference":"Condition/ischemic-stroke-1958"},"use":{"coding":[{"system":"http://terminology.hl7.org/CodeSystem/diagnosis-role","code":"billing","display":"Billing"}]},"rank":1}],"hospitalization":{"dischargeDisposition":{"coding":[{"system":"http://snomed.info/sct","code":"10161009","display":"Discharge To Home Or Police Custody"}]}}},"request":{"method":"PUT","url":"Encounter/1bb74cf3-d575-42b5-90b8-d5238e263a2a"}},{"fullUrl":"https://madie.cms.gov/ServiceRequest/5c953f97b848462de0ae4166","resource":{"resourceType":"ServiceRequest","id":"38a94969-c9a2-4982-abfd-1bf32464461a","meta":{"profile":["http://hl7.org/fhir/us/qicore/StructureDefinition/qicore-servicerequest"]},"status":"active","intent":"order","code":{"coding":[{"system":"http://snomed.info/sct","code":"133918004"}]},"subject":{"reference":"Patient/0c90d2ea-5034-4465-8e4a-4d0d4e17cd5a"},"authoredOn":"2025-09-30T06:59:00.000+00:00"},"request":{"method":"PUT","url":"ServiceRequest/38a94969-c9a2-4982-abfd-1bf32464461a"}},{"fullUrl":"https://madie.cms.gov/Coverage/5f2c53cf1c76ba5c99605795","resource":{"resourceType":"Coverage","id":"bd9464eb-2b40-4a7a-8e1e-80f1fd0efbfe","status":"active","beneficiary":{"reference":"Patient/0c90d2ea-5034-4465-8e4a-4d0d4e17cd5a"},"period":{"start":"1985-09-18T08:00:00.000Z"},"payor":[{"reference":"Organization/024e2731-b045-43bf-80d2-684774c5b51c"}]},"request":{"method":"PUT","url":"Coverage/bd9464eb-2b40-4a7a-8e1e-80f1fd0efbfe"}},{"fullUrl":"https://madie.cms.gov/Condition/ischemic-stroke-1958","resource":{"resourceType":"Condition","id":"27b9f519-0b0f-44ce-821d-1812f95c8dfc","meta":{"profile":["http://hl7.org/fhir/us/qicore/StructureDefinition/qicore-condition"]},"clinicalStatus":{"coding":[{"system":"http://terminology.hl7.org/CodeSystem/condition-clinical","code":"active"}]},"verificationStatus":{"coding":[{"system":"http://terminology.hl7.org/CodeSystem/condition-ver-status","code":"confirmed"}]},"category":[{"coding":[{"system":"http://terminology.hl7.org/CodeSystem/condition-category","code":"encounter-diagnosis","display":"Encounter Diagnosis"}]}],"code":{"coding":[{"system":"http://snomed.info/sct","version":"2021-09","code":"111297002","display":"Nonparalytic stroke (disorder)","userSelected":true}]},"subject":{"reference":"Patient/0c90d2ea-5034-4465-8e4a-4d0d4e17cd5a"},"recordedDate":"2025-10-13T08:00:00.000+00:00"},"request":{"method":"PUT","url":"Condition/27b9f519-0b0f-44ce-821d-1812f95c8dfc"}},{"fullUrl":"https://madie.cms.gov/Organization/123456","resource":{"resourceType":"Organization","id":"024e2731-b045-43bf-80d2-684774c5b51c","meta":{"profile":["http://hl7.org/fhir/us/qicore/StructureDefinition/qicore-organization"]},"identifier":[{"use":"temp","system":"urn:oid:2.16.840.1.113883.4.4","value":"21-3259825"}],"active":true,"type":[{"coding":[{"system":"http://terminology.hl7.org/CodeSystem/organization-type","code":"pay","display":"Payer"}]}],"name":"Blue Cross Blue Shield of Texas","telecom":[{"system":"phone","value":"(+1) 972-766-6900"}],"address":[{"use":"billing","type":"postal","line":["P.O. Box 660044"],"city":"Dallas","state":"TX","postalCode":"75266-0044","country":"USA"}]},"request":{"method":"PUT","url":"Organization/024e2731-b045-43bf-80d2-684774c5b51c"}},{"fullUrl":"https://madie.cms.gov/Practitioner/practitioner-123456","resource":{"resourceType":"Practitioner","id":"4b7d862f-414e-4b7d-9fe3-d668aa1d1baf","identifier":[{"system":"http://hl7.org/fhir/sid/us-npi","value":"123456"}],"name":[{"family":"Evil","prefix":["Dr"]}]},"request":{"method":"PUT","url":"Practitioner/4b7d862f-414e-4b7d-9fe3-d668aa1d1baf"}},{"fullUrl":"https://madie.cms.gov/MeasureReport/132a1aaf-c9bb-4e45-8dbd-decb28cc10a1","resource":{"resourceType":"MeasureReport","id":"132a1aaf-c9bb-4e45-8dbd-decb28cc10a1","meta":{"profile":["http://hl7.org/fhir/us/cqfmeasures/StructureDefinition/test-case-cqfm"]},"contained":[{"resourceType":"Parameters","id":"1e92c79c-f0a9-44e3-adea-5e8ed0849c03-parameters","parameter":[{"name":"subject","valueString":"0c90d2ea-5034-4465-8e4a-4d0d4e17cd5a"}]}],"extension":[{"url":"http://hl7.org/fhir/us/cqfmeasures/StructureDefinition/cqfm-inputParameters","valueReference":{"reference":"#1e92c79c-f0a9-44e3-adea-5e8ed0849c03-parameters"}},{"url":"http://hl7.org/fhir/us/cqfmeasures/StructureDefinition/cqfm-testCaseDescription","valueMarkdown":"Patient receives CMO order during ED. ED visit ends 61 min. before Obs start, Obs ends 61 min before Inpatient encounter. Testing HospitalizationWithObservation function.\n"}],"modifierExtension":[{"url":"http://hl7.org/fhir/us/cqfmeasures/StructureDefinition/cqfm-isTestCase","valueBoolean":true}],"status":"complete","type":"individual","measure":"https://madie.cms.gov/Measure/AnticoagulationTherapyforAtrialFibrillationFlutterFHIR","period":{"start":"2025-01-01","end":"2025-12-31"},"group":[{"population":[{"code":{"coding":[{"system":"http://terminology.hl7.org/CodeSystem/measure-population","code":"initial-population","display":"Initial Population"}]},"count":1},{"code":{"coding":[{"system":"http://terminology.hl7.org/CodeSystem/measure-population","code":"denominator","display":"Denominator"}]},"count":1},{"code":{"coding":[{"system":"http://terminology.hl7.org/CodeSystem/measure-population","code":"denominator-exclusion","display":"Denominator Exclusion"}]},"count":0},{"code":{"coding":[{"system":"http://terminology.hl7.org/CodeSystem/measure-population","code":"numerator","display":"Numerator"}]},"count":0},{"code":{"coding":[{"system":"http://terminology.hl7.org/CodeSystem/measure-population","code":"denominator-exception","display":"Denominator Exception"}]},"count":0}]}]},"request":{"method":"PUT","url":"MeasureReport/132a1aaf-c9bb-4e45-8dbd-decb28cc10a1"}}]}