{"resourceType":"Bundle","id":"tests-1dbcccc2-895d-46a7-b28a-bf936fc7978a-bundle","type":"transaction","entry":[{"fullUrl":"https://madie.cms.gov/Patient/1dbcccc2-895d-46a7-b28a-bf936fc7978a","resource":{"resourceType":"Patient","id":"1dbcccc2-895d-46a7-b28a-bf936fc7978a","meta":{"profile":["http://hl7.org/fhir/us/qicore/StructureDefinition/qicore-patient"]},"text":{"status":"generated","div":"<div xmlns=\"http://www.w3.org/1999/xhtml\"><div class=\"hapiHeaderText\">ProcAtrialAblEncStartRelePer <b>DENOMFAIL </b></div><table class=\"hapiPropertyTable\"><tbody><tr><td>Identifier</td><td>1ebc7a8ec0c65913b7018969c7b50ead</td></tr><tr><td>Date of birth</td><td><span>01 December 1960</span></td></tr></tbody></table></div>"},"extension":[{"url":"http://hl7.org/fhir/us/core/StructureDefinition/us-core-race","extension":[{"url":"ombCategory","valueCoding":{"system":"urn:oid:2.16.840.1.113883.6.238","code":"1002-5","display":"American Indian or Alaska Native","userSelected":true}},{"url":"text","valueString":"American Indian or Alaska Native"}]},{"url":"http://hl7.org/fhir/us/core/StructureDefinition/us-core-ethnicity","extension":[{"url":"ombCategory","valueCoding":{"system":"urn:oid:2.16.840.1.113883.6.238","code":"2135-2","display":"Hispanic or Latino","userSelected":true}},{"url":"text","valueString":"Hispanic or Latino"}]}],"identifier":[{"type":{"coding":[{"system":"http://terminology.hl7.org/CodeSystem/v2-0203","code":"MR"}]},"system":"https://bonnie-fhir.healthit.gov/","value":"633c9d030968f8012250fc79"}],"active":true,"name":[{"use":"usual","family":"DENOMFail","given":["ProcAtrialAblEncStartRelePer"]}],"gender":"male","birthDate":"1960-12-01"},"request":{"method":"PUT","url":"Patient/1dbcccc2-895d-46a7-b28a-bf936fc7978a"}},{"fullUrl":"https://madie.cms.gov/Encounter/5c953f96b848462de0ae4096","resource":{"resourceType":"Encounter","id":"2d3eee41-1a4d-4c20-b99f-4c07c49143f0","meta":{"profile":["http://hl7.org/fhir/us/qicore/StructureDefinition/qicore-encounter"]},"status":"finished","class":{"system":"http://terminology.hl7.org/CodeSystem/v3-ActCode","code":"IMP","display":"inpatient encounter"},"type":[{"coding":[{"system":"http://snomed.info/sct","code":"32485007"}]}],"subject":{"reference":"Patient/1dbcccc2-895d-46a7-b28a-bf936fc7978a"},"period":{"start":"2025-02-08T08:00:00.000Z","end":"2025-02-10T08:15:00.000Z"},"length":{"value":2,"unit":"days"},"diagnosis":[{"condition":{"reference":"Condition/ischemic-stroke-1979"},"use":{"coding":[{"system":"http://terminology.hl7.org/CodeSystem/diagnosis-role","code":"billing","display":"Billing"}]},"rank":1}]},"request":{"method":"PUT","url":"Encounter/2d3eee41-1a4d-4c20-b99f-4c07c49143f0"}},{"fullUrl":"https://madie.cms.gov/Coverage/5f2c53ca1c76ba5c9960570b","resource":{"resourceType":"Coverage","id":"b32ff335-a146-47ff-9997-7a28f6e2760d","status":"active","beneficiary":{"reference":"Patient/1dbcccc2-895d-46a7-b28a-bf936fc7978a"},"period":{"start":"1960-12-01T08:00:00.000Z"},"payor":[{"reference":"Organization/5224cb12-ed64-4d6d-ab28-40a64f0800f1"}]},"request":{"method":"PUT","url":"Coverage/b32ff335-a146-47ff-9997-7a28f6e2760d"}},{"fullUrl":"https://madie.cms.gov/Procedure/5c953f96b848462de0ae4098","resource":{"resourceType":"Procedure","id":"a13dbaa6-880a-475e-95f2-8201827732f9","meta":{"profile":["http://hl7.org/fhir/us/qicore/StructureDefinition/qicore-procedure"]},"extension":[{"url":"http://hl7.org/fhir/us/qicore/StructureDefinition/qicore-recorded","valueDateTime":"2025-11-19T09:35:00-04:00"}],"status":"completed","code":{"coding":[{"system":"http://www.cms.gov/Medicare/Coding/ICD10","code":"02560ZZ"},{"system":"http://snomed.info/sct","code":"175095005"}]},"subject":{"reference":"Patient/1dbcccc2-895d-46a7-b28a-bf936fc7978a"},"performedPeriod":{"start":"2025-02-08T08:00:00.000Z","end":"2025-02-10T08:15:00.000Z"}},"request":{"method":"PUT","url":"Procedure/a13dbaa6-880a-475e-95f2-8201827732f9"}},{"fullUrl":"https://madie.cms.gov/Condition/ischemic-stroke-1979","resource":{"resourceType":"Condition","id":"b4ff65a4-a051-4ee7-a491-d2051cac898c","meta":{"profile":["http://hl7.org/fhir/us/qicore/StructureDefinition/qicore-condition"]},"clinicalStatus":{"coding":[{"system":"http://terminology.hl7.org/CodeSystem/condition-clinical","code":"active"}]},"verificationStatus":{"coding":[{"system":"http://terminology.hl7.org/CodeSystem/condition-ver-status","code":"confirmed"}]},"category":[{"coding":[{"system":"http://terminology.hl7.org/CodeSystem/condition-category","code":"encounter-diagnosis","display":"Encounter Diagnosis"}]}],"code":{"coding":[{"system":"http://snomed.info/sct","version":"2021-09","code":"111297002","display":"Nonparalytic stroke (disorder)","userSelected":true}]},"subject":{"reference":"Patient/1dbcccc2-895d-46a7-b28a-bf936fc7978a"},"recordedDate":"2025-10-13T08:00:00.000+00:00"},"request":{"method":"PUT","url":"Condition/b4ff65a4-a051-4ee7-a491-d2051cac898c"}},{"fullUrl":"https://madie.cms.gov/Organization/123456","resource":{"resourceType":"Organization","id":"5224cb12-ed64-4d6d-ab28-40a64f0800f1","meta":{"profile":["http://hl7.org/fhir/us/qicore/StructureDefinition/qicore-organization"]},"identifier":[{"use":"temp","system":"urn:oid:2.16.840.1.113883.4.4","value":"21-3259825"}],"active":true,"type":[{"coding":[{"system":"http://terminology.hl7.org/CodeSystem/organization-type","code":"pay","display":"Payer"}]}],"name":"Blue Cross Blue Shield of Texas","telecom":[{"system":"phone","value":"(+1) 972-766-6900"}],"address":[{"use":"billing","type":"postal","line":["P.O. Box 660044"],"city":"Dallas","state":"TX","postalCode":"75266-0044","country":"USA"}]},"request":{"method":"PUT","url":"Organization/5224cb12-ed64-4d6d-ab28-40a64f0800f1"}},{"fullUrl":"https://madie.cms.gov/Practitioner/practitioner-123456","resource":{"resourceType":"Practitioner","id":"07c1b858-0db2-480f-bb40-dbbf618a4655","identifier":[{"system":"http://hl7.org/fhir/sid/us-npi","value":"123456"}],"name":[{"family":"Evil","prefix":["Dr"]}]},"request":{"method":"PUT","url":"Practitioner/07c1b858-0db2-480f-bb40-dbbf618a4655"}},{"fullUrl":"https://madie.cms.gov/MeasureReport/3585ef9d-9a49-4855-ab43-8308967e3646","resource":{"resourceType":"MeasureReport","id":"3585ef9d-9a49-4855-ab43-8308967e3646","meta":{"profile":["http://hl7.org/fhir/us/cqfmeasures/StructureDefinition/test-case-cqfm"]},"contained":[{"resourceType":"Parameters","id":"48f1a24f-2f78-4e61-9199-1ebd86f58603-parameters","parameter":[{"name":"subject","valueString":"1dbcccc2-895d-46a7-b28a-bf936fc7978a"}]}],"extension":[{"url":"http://hl7.org/fhir/us/cqfmeasures/StructureDefinition/cqfm-inputParameters","valueReference":{"reference":"#48f1a24f-2f78-4e61-9199-1ebd86f58603-parameters"}},{"url":"http://hl7.org/fhir/us/cqfmeasures/StructureDefinition/cqfm-testCaseDescription","valueMarkdown":"Procedure performed Atrial Ablation starts at the start of the encounter using our relevant period\n"}],"modifierExtension":[{"url":"http://hl7.org/fhir/us/cqfmeasures/StructureDefinition/cqfm-isTestCase","valueBoolean":true}],"status":"complete","type":"individual","measure":"https://madie.cms.gov/Measure/AnticoagulationTherapyforAtrialFibrillationFlutterFHIR","period":{"start":"2025-01-01","end":"2025-12-31"},"group":[{"population":[{"code":{"coding":[{"system":"http://terminology.hl7.org/CodeSystem/measure-population","code":"initial-population","display":"Initial Population"}]},"count":1},{"code":{"coding":[{"system":"http://terminology.hl7.org/CodeSystem/measure-population","code":"denominator","display":"Denominator"}]},"count":0},{"code":{"coding":[{"system":"http://terminology.hl7.org/CodeSystem/measure-population","code":"denominator-exclusion","display":"Denominator Exclusion"}]},"count":0},{"code":{"coding":[{"system":"http://terminology.hl7.org/CodeSystem/measure-population","code":"numerator","display":"Numerator"}]},"count":0},{"code":{"coding":[{"system":"http://terminology.hl7.org/CodeSystem/measure-population","code":"denominator-exception","display":"Denominator Exception"}]},"count":0}]}]},"request":{"method":"PUT","url":"MeasureReport/3585ef9d-9a49-4855-ab43-8308967e3646"}}]}