{"resourceType":"Bundle","id":"tests-acdea97f-8a2e-4aa3-b51f-768c5ad5ead8-bundle","type":"transaction","entry":[{"fullUrl":"https://madie.cms.gov/Patient/acdea97f-8a2e-4aa3-b51f-768c5ad5ead8","resource":{"resourceType":"Patient","id":"acdea97f-8a2e-4aa3-b51f-768c5ad5ead8","meta":{"profile":["http://hl7.org/fhir/us/qicore/StructureDefinition/qicore-patient"]},"text":{"status":"generated","div":"<div xmlns=\"http://www.w3.org/1999/xhtml\"><div class=\"hapiHeaderText\">DCtoICU <b>DENEXFAIL </b></div><table class=\"hapiPropertyTable\"><tbody><tr><td>Identifier</td><td>a1386c36da1b287caf9fd1b8d75c10d3</td></tr><tr><td>Date of birth</td><td><span>31 July 1969</span></td></tr></tbody></table></div>"},"extension":[{"url":"http://hl7.org/fhir/us/core/StructureDefinition/us-core-race","extension":[{"url":"ombCategory","valueCoding":{"system":"urn:oid:2.16.840.1.113883.6.238","code":"1002-5","display":"American Indian or Alaska Native","userSelected":true}},{"url":"text","valueString":"American Indian or Alaska Native"}]},{"url":"http://hl7.org/fhir/us/core/StructureDefinition/us-core-ethnicity","extension":[{"url":"ombCategory","valueCoding":{"system":"urn:oid:2.16.840.1.113883.6.238","code":"2135-2","display":"Hispanic or Latino","userSelected":true}},{"url":"text","valueString":"Hispanic or Latino"}]}],"identifier":[{"type":{"coding":[{"system":"http://terminology.hl7.org/CodeSystem/v2-0203","code":"MR"}]},"system":"https://bonnie-fhir.healthit.gov/","value":"633c9d040968f8012250fcac"}],"active":true,"name":[{"use":"usual","family":"DENEXFail","given":["DCtoICU"]}],"gender":"male","birthDate":"1969-07-31"},"request":{"method":"PUT","url":"Patient/acdea97f-8a2e-4aa3-b51f-768c5ad5ead8"}},{"fullUrl":"https://madie.cms.gov/Encounter/5c953f96b848462de0ae4071","resource":{"resourceType":"Encounter","id":"1d751090-4c40-43ea-af48-aaae091f7ac3","meta":{"profile":["http://hl7.org/fhir/us/qicore/StructureDefinition/qicore-encounter"]},"status":"finished","class":{"system":"http://terminology.hl7.org/CodeSystem/v3-ActCode","code":"EMER","display":"emergency"},"type":[{"coding":[{"system":"http://snomed.info/sct","code":"4525004"}]}],"subject":{"reference":"Patient/acdea97f-8a2e-4aa3-b51f-768c5ad5ead8"},"period":{"start":"2025-11-20T07:00:00.000Z","end":"2025-11-20T07:45:00.000Z"},"length":{"value":0,"unit":"days"}},"request":{"method":"PUT","url":"Encounter/1d751090-4c40-43ea-af48-aaae091f7ac3"}},{"fullUrl":"https://madie.cms.gov/Encounter/5c953f96b848462de0ae4072","resource":{"resourceType":"Encounter","id":"79297737-6a2e-459e-8bea-031009da545a","meta":{"profile":["http://hl7.org/fhir/us/qicore/StructureDefinition/qicore-encounter"]},"status":"finished","class":{"system":"http://terminology.hl7.org/CodeSystem/v3-ActCode","code":"IMP","display":"inpatient encounter"},"type":[{"coding":[{"system":"http://snomed.info/sct","code":"32485007"}]}],"subject":{"reference":"Patient/acdea97f-8a2e-4aa3-b51f-768c5ad5ead8"},"period":{"start":"2025-11-20T08:00:00.000Z","end":"2025-11-24T08:15:00.000Z"},"length":{"value":4,"unit":"days"},"diagnosis":[{"condition":{"reference":"Condition/ischemic-stroke-195a"},"use":{"coding":[{"system":"http://terminology.hl7.org/CodeSystem/diagnosis-role","code":"billing","display":"Billing"}]},"rank":1}],"hospitalization":{"dischargeDisposition":{"coding":[{"system":"http://cts.nlm.nih.gov/fhir/cs/hsloc","code":"1025-6","display":"Trauma Critical Care"}]}}},"request":{"method":"PUT","url":"Encounter/79297737-6a2e-459e-8bea-031009da545a"}},{"fullUrl":"https://madie.cms.gov/Coverage/5f2c53d01c76ba5c996057a4","resource":{"resourceType":"Coverage","id":"e4e59a11-8a36-4a0c-9ef3-ef670fdabf0d","status":"active","beneficiary":{"reference":"Patient/acdea97f-8a2e-4aa3-b51f-768c5ad5ead8"},"period":{"start":"1969-07-31T08:00:00.000Z"},"payor":[{"reference":"Organization/806b0255-13cb-4f2b-9412-571554dd2169"}]},"request":{"method":"PUT","url":"Coverage/e4e59a11-8a36-4a0c-9ef3-ef670fdabf0d"}},{"fullUrl":"https://madie.cms.gov/Procedure/5c953f96b848462de0ae4074","resource":{"resourceType":"Procedure","id":"af91d046-5010-4e1e-a7af-6c673aaf9ac5","meta":{"profile":["http://hl7.org/fhir/us/qicore/StructureDefinition/qicore-procedure"]},"extension":[{"url":"http://hl7.org/fhir/us/qicore/StructureDefinition/qicore-recorded","valueDateTime":"2025-11-19T09:35:00-04:00"}],"status":"completed","code":{"coding":[{"system":"http://www.cms.gov/Medicare/Coding/ICD10","code":"02560ZZ"},{"system":"http://snomed.info/sct","code":"175095005"}]},"subject":{"reference":"Patient/acdea97f-8a2e-4aa3-b51f-768c5ad5ead8"},"performedPeriod":{"start":"2025-11-19T08:00:00.000Z","end":"2025-11-20T08:15:00.000Z"}},"request":{"method":"PUT","url":"Procedure/af91d046-5010-4e1e-a7af-6c673aaf9ac5"}},{"fullUrl":"https://madie.cms.gov/Condition/ischemic-stroke-195a","resource":{"resourceType":"Condition","id":"bb8c551f-5a17-457f-84e3-7be569b31f80","meta":{"profile":["http://hl7.org/fhir/us/qicore/StructureDefinition/qicore-condition"]},"clinicalStatus":{"coding":[{"system":"http://terminology.hl7.org/CodeSystem/condition-clinical","code":"active"}]},"verificationStatus":{"coding":[{"system":"http://terminology.hl7.org/CodeSystem/condition-ver-status","code":"confirmed"}]},"category":[{"coding":[{"system":"http://terminology.hl7.org/CodeSystem/condition-category","code":"encounter-diagnosis","display":"Encounter Diagnosis"}]}],"code":{"coding":[{"system":"http://snomed.info/sct","version":"2021-09","code":"111297002","display":"Nonparalytic stroke (disorder)","userSelected":true}]},"subject":{"reference":"Patient/acdea97f-8a2e-4aa3-b51f-768c5ad5ead8"},"recordedDate":"2025-10-13T08:00:00.000+00:00"},"request":{"method":"PUT","url":"Condition/bb8c551f-5a17-457f-84e3-7be569b31f80"}},{"fullUrl":"https://madie.cms.gov/Organization/123456","resource":{"resourceType":"Organization","id":"806b0255-13cb-4f2b-9412-571554dd2169","meta":{"profile":["http://hl7.org/fhir/us/qicore/StructureDefinition/qicore-organization"]},"identifier":[{"use":"temp","system":"urn:oid:2.16.840.1.113883.4.4","value":"21-3259825"}],"active":true,"type":[{"coding":[{"system":"http://terminology.hl7.org/CodeSystem/organization-type","code":"pay","display":"Payer"}]}],"name":"Blue Cross Blue Shield of Texas","telecom":[{"system":"phone","value":"(+1) 972-766-6900"}],"address":[{"use":"billing","type":"postal","line":["P.O. Box 660044"],"city":"Dallas","state":"TX","postalCode":"75266-0044","country":"USA"}]},"request":{"method":"PUT","url":"Organization/806b0255-13cb-4f2b-9412-571554dd2169"}},{"fullUrl":"https://madie.cms.gov/Practitioner/practitioner-123456","resource":{"resourceType":"Practitioner","id":"ac20b8c7-f849-4a73-b439-75887f606822","identifier":[{"system":"http://hl7.org/fhir/sid/us-npi","value":"123456"}],"name":[{"family":"Evil","prefix":["Dr"]}]},"request":{"method":"PUT","url":"Practitioner/ac20b8c7-f849-4a73-b439-75887f606822"}},{"fullUrl":"https://madie.cms.gov/MeasureReport/46713dd9-8c86-4371-8806-6e264f3ee2f7","resource":{"resourceType":"MeasureReport","id":"46713dd9-8c86-4371-8806-6e264f3ee2f7","meta":{"profile":["http://hl7.org/fhir/us/cqfmeasures/StructureDefinition/test-case-cqfm"]},"contained":[{"resourceType":"Parameters","id":"aa34098f-a5c3-4154-aa3b-ea4c0d3534b9-parameters","parameter":[{"name":"subject","valueString":"acdea97f-8a2e-4aa3-b51f-768c5ad5ead8"}]}],"extension":[{"url":"http://hl7.org/fhir/us/cqfmeasures/StructureDefinition/cqfm-inputParameters","valueReference":{"reference":"#aa34098f-a5c3-4154-aa3b-ea4c0d3534b9-parameters"}},{"url":"http://hl7.org/fhir/us/cqfmeasures/StructureDefinition/cqfm-testCaseDescription","valueMarkdown":"No discharge status indicated. Testing DENEX logic (intentional fail) with disposition to ICD\n"}],"modifierExtension":[{"url":"http://hl7.org/fhir/us/cqfmeasures/StructureDefinition/cqfm-isTestCase","valueBoolean":true}],"status":"complete","type":"individual","measure":"https://madie.cms.gov/Measure/AnticoagulationTherapyforAtrialFibrillationFlutterFHIR","period":{"start":"2025-01-01","end":"2025-12-31"},"group":[{"population":[{"code":{"coding":[{"system":"http://terminology.hl7.org/CodeSystem/measure-population","code":"initial-population","display":"Initial Population"}]},"count":1},{"code":{"coding":[{"system":"http://terminology.hl7.org/CodeSystem/measure-population","code":"denominator","display":"Denominator"}]},"count":1},{"code":{"coding":[{"system":"http://terminology.hl7.org/CodeSystem/measure-population","code":"denominator-exclusion","display":"Denominator Exclusion"}]},"count":0},{"code":{"coding":[{"system":"http://terminology.hl7.org/CodeSystem/measure-population","code":"numerator","display":"Numerator"}]},"count":0},{"code":{"coding":[{"system":"http://terminology.hl7.org/CodeSystem/measure-population","code":"denominator-exception","display":"Denominator Exception"}]},"count":0}]}]},"request":{"method":"PUT","url":"MeasureReport/46713dd9-8c86-4371-8806-6e264f3ee2f7"}}]}