{"resourceType":"Bundle","id":"tests-fd13e14c-cd97-4e81-9a69-e638b0a1fa58-bundle","type":"transaction","entry":[{"fullUrl":"https://madie.cms.gov/Patient/fd13e14c-cd97-4e81-9a69-e638b0a1fa58","resource":{"resourceType":"Patient","id":"fd13e14c-cd97-4e81-9a69-e638b0a1fa58","meta":{"profile":["http://hl7.org/fhir/us/qicore/StructureDefinition/qicore-patient"]},"text":{"status":"generated","div":"<div xmlns=\"http://www.w3.org/1999/xhtml\"><div class=\"hapiHeaderText\">MultipleIPEncounter <b>IPPFAIL </b></div><table class=\"hapiPropertyTable\"><tbody><tr><td>Identifier</td><td>946910ea4598e45468b2565ed3cdbc9e</td></tr><tr><td>Date of birth</td><td><span>01 December 1960</span></td></tr></tbody></table></div>"},"extension":[{"url":"http://hl7.org/fhir/us/core/StructureDefinition/us-core-race","extension":[{"url":"ombCategory","valueCoding":{"system":"urn:oid:2.16.840.1.113883.6.238","code":"1002-5","display":"American Indian or Alaska Native","userSelected":true}},{"url":"text","valueString":"American Indian or Alaska Native"}]},{"url":"http://hl7.org/fhir/us/core/StructureDefinition/us-core-ethnicity","extension":[{"url":"ombCategory","valueCoding":{"system":"urn:oid:2.16.840.1.113883.6.238","code":"2135-2","display":"Hispanic or Latino","userSelected":true}},{"url":"text","valueString":"Hispanic or Latino"}]}],"identifier":[{"type":{"coding":[{"system":"http://terminology.hl7.org/CodeSystem/v2-0203","code":"MR"}]},"system":"https://bonnie-fhir.healthit.gov/","value":"633c9d040968f8012250fcad"}],"active":true,"name":[{"use":"usual","family":"IPPFail","given":["MultipleIPEncounter"]}],"gender":"male","birthDate":"1960-12-01"},"request":{"method":"PUT","url":"Patient/fd13e14c-cd97-4e81-9a69-e638b0a1fa58"}},{"fullUrl":"https://madie.cms.gov/Encounter/5c953f96b848462de0ae407e","resource":{"resourceType":"Encounter","id":"bd40f490-d93b-44d3-8f3f-6154b5cc38ec","meta":{"profile":["http://hl7.org/fhir/us/qicore/StructureDefinition/qicore-encounter"]},"status":"finished","class":{"system":"http://terminology.hl7.org/CodeSystem/v3-ActCode","code":"EMER","display":"emergency"},"type":[{"coding":[{"system":"http://snomed.info/sct","code":"4525004"}]}],"subject":{"reference":"Patient/fd13e14c-cd97-4e81-9a69-e638b0a1fa58"},"period":{"start":"2025-02-08T08:00:00.000Z","end":"2025-02-08T08:15:00.000Z"},"length":{"value":0.0,"unit":"days"},"diagnosis":[{"condition":{"reference":"Condition/ischemic-stroke-198e"},"rank":1}]},"request":{"method":"PUT","url":"Encounter/bd40f490-d93b-44d3-8f3f-6154b5cc38ec"}},{"fullUrl":"https://madie.cms.gov/Encounter/5e309068ef08fe00001552f4","resource":{"resourceType":"Encounter","id":"8b1e5263-5bf7-43b8-9d39-89b085531bd0","meta":{"profile":["http://hl7.org/fhir/us/qicore/StructureDefinition/qicore-encounter"]},"status":"finished","class":{"system":"http://terminology.hl7.org/CodeSystem/v3-ActCode","code":"IMP","display":"inpatient encounter"},"type":[{"coding":[{"system":"http://snomed.info/sct","code":"183452005"}]}],"subject":{"reference":"Patient/fd13e14c-cd97-4e81-9a69-e638b0a1fa58"},"period":{"start":"2025-02-08T08:20:00.000Z","end":"2025-02-10T08:15:00.000Z"},"diagnosis":[{"condition":{"reference":"Condition/atrial-fibrillation-flutter-198d"},"rank":1}]},"request":{"method":"PUT","url":"Encounter/8b1e5263-5bf7-43b8-9d39-89b085531bd0"}},{"fullUrl":"https://madie.cms.gov/Encounter/5e3090a1ef08fe000015531f","resource":{"resourceType":"Encounter","id":"142128dc-fd32-436c-9d40-78291aeff82e","meta":{"profile":["http://hl7.org/fhir/us/qicore/StructureDefinition/qicore-encounter"]},"status":"finished","class":{"system":"http://terminology.hl7.org/CodeSystem/v3-ActCode","code":"IMP","display":"inpatient encounter"},"type":[{"coding":[{"system":"http://snomed.info/sct","code":"183452005"}]}],"subject":{"reference":"Patient/fd13e14c-cd97-4e81-9a69-e638b0a1fa58"},"period":{"start":"2025-02-07T08:00:00.000Z","end":"2025-02-11T08:15:00.000Z"}},"request":{"method":"PUT","url":"Encounter/142128dc-fd32-436c-9d40-78291aeff82e"}},{"fullUrl":"https://madie.cms.gov/Coverage/5f2c53d01c76ba5c996057a7","resource":{"resourceType":"Coverage","id":"0f0ca77b-74d5-4d61-873c-9879a9b149e3","status":"active","beneficiary":{"reference":"Patient/fd13e14c-cd97-4e81-9a69-e638b0a1fa58"},"period":{"start":"1960-12-01T01:00:00.000Z"},"payor":[{"reference":"Organization/41c75c00-82d9-4ab2-98f6-cfaf7fc3381d"}]},"request":{"method":"PUT","url":"Coverage/0f0ca77b-74d5-4d61-873c-9879a9b149e3"}},{"fullUrl":"https://madie.cms.gov/Condition/atrial-fibrillation-flutter-198d","resource":{"resourceType":"Condition","id":"e57c6c54-8ca1-402a-bbd9-d20d5556a11f","meta":{"profile":["http://hl7.org/fhir/us/qicore/StructureDefinition/qicore-condition"]},"clinicalStatus":{"coding":[{"system":"http://terminology.hl7.org/CodeSystem/condition-clinical","code":"active"}]},"verificationStatus":{"coding":[{"system":"http://terminology.hl7.org/CodeSystem/condition-ver-status","code":"confirmed"}]},"category":[{"coding":[{"system":"http://terminology.hl7.org/CodeSystem/condition-category","code":"encounter-diagnosis","display":"Encounter Diagnosis"}]}],"code":{"coding":[{"system":"http://snomed.info/sct","version":"2021-09","code":"120041000119109","display":"Atrial fibrillation with rapid ventricular response (disorder)","userSelected":true}]},"subject":{"reference":"Patient/fd13e14c-cd97-4e81-9a69-e638b0a1fa58"},"recordedDate":"2025-10-13T08:00:00.000+00:00"},"request":{"method":"PUT","url":"Condition/e57c6c54-8ca1-402a-bbd9-d20d5556a11f"}},{"fullUrl":"https://madie.cms.gov/Condition/ischemic-stroke-198e","resource":{"resourceType":"Condition","id":"637829c1-cae1-4886-a332-d338e8d14b9e","meta":{"profile":["http://hl7.org/fhir/us/qicore/StructureDefinition/qicore-condition"]},"clinicalStatus":{"coding":[{"system":"http://terminology.hl7.org/CodeSystem/condition-clinical","code":"active"}]},"verificationStatus":{"coding":[{"system":"http://terminology.hl7.org/CodeSystem/condition-ver-status","code":"confirmed"}]},"category":[{"coding":[{"system":"http://terminology.hl7.org/CodeSystem/condition-category","code":"encounter-diagnosis","display":"Encounter Diagnosis"}]}],"code":{"coding":[{"system":"http://snomed.info/sct","version":"2021-09","code":"111297002","display":"Nonparalytic stroke (disorder)","userSelected":true}]},"subject":{"reference":"Patient/fd13e14c-cd97-4e81-9a69-e638b0a1fa58"},"recordedDate":"2025-10-13T08:00:00.000+00:00"},"request":{"method":"PUT","url":"Condition/637829c1-cae1-4886-a332-d338e8d14b9e"}},{"fullUrl":"https://madie.cms.gov/Organization/123456","resource":{"resourceType":"Organization","id":"41c75c00-82d9-4ab2-98f6-cfaf7fc3381d","meta":{"profile":["http://hl7.org/fhir/us/qicore/StructureDefinition/qicore-organization"]},"identifier":[{"use":"temp","system":"urn:oid:2.16.840.1.113883.4.4","value":"21-3259825"}],"active":true,"type":[{"coding":[{"system":"http://terminology.hl7.org/CodeSystem/organization-type","code":"pay","display":"Payer"}]}],"name":"Blue Cross Blue Shield of Texas","telecom":[{"system":"phone","value":"(+1) 972-766-6900"}],"address":[{"use":"billing","type":"postal","line":["P.O. Box 660044"],"city":"Dallas","state":"TX","postalCode":"75266-0044","country":"USA"}]},"request":{"method":"PUT","url":"Organization/41c75c00-82d9-4ab2-98f6-cfaf7fc3381d"}},{"fullUrl":"https://madie.cms.gov/Practitioner/practitioner-123456","resource":{"resourceType":"Practitioner","id":"960a7e95-8a23-4b7b-98cf-ff7ff22f96cd","identifier":[{"system":"http://hl7.org/fhir/sid/us-npi","value":"123456"}],"name":[{"family":"Evil","prefix":["Dr"]}]},"request":{"method":"PUT","url":"Practitioner/960a7e95-8a23-4b7b-98cf-ff7ff22f96cd"}},{"fullUrl":"https://madie.cms.gov/MeasureReport/11005f18-de09-4f59-ab64-6053c984d50f","resource":{"resourceType":"MeasureReport","id":"11005f18-de09-4f59-ab64-6053c984d50f","meta":{"profile":["http://hl7.org/fhir/us/cqfmeasures/StructureDefinition/test-case-cqfm"]},"contained":[{"resourceType":"Parameters","id":"46d0afe6-c26d-4e1c-a178-af623b9fca20-parameters","parameter":[{"name":"subject","valueString":"fd13e14c-cd97-4e81-9a69-e638b0a1fa58"}]}],"extension":[{"url":"http://hl7.org/fhir/us/cqfmeasures/StructureDefinition/cqfm-inputParameters","valueReference":{"reference":"#46d0afe6-c26d-4e1c-a178-af623b9fca20-parameters"}},{"url":"http://hl7.org/fhir/us/cqfmeasures/StructureDefinition/cqfm-testCaseDescription","valueMarkdown":"ED visit with Principal Dx = Ischemic Stroke. No inpatient encounter \n"}],"modifierExtension":[{"url":"http://hl7.org/fhir/us/cqfmeasures/StructureDefinition/cqfm-isTestCase","valueBoolean":true}],"status":"complete","type":"individual","measure":"https://madie.cms.gov/Measure/AnticoagulationTherapyforAtrialFibrillationFlutterFHIR","period":{"start":"2025-01-01","end":"2025-12-31"},"group":[{"population":[{"code":{"coding":[{"system":"http://terminology.hl7.org/CodeSystem/measure-population","code":"initial-population","display":"Initial Population"}]},"count":0},{"code":{"coding":[{"system":"http://terminology.hl7.org/CodeSystem/measure-population","code":"denominator","display":"Denominator"}]},"count":0},{"code":{"coding":[{"system":"http://terminology.hl7.org/CodeSystem/measure-population","code":"denominator-exclusion","display":"Denominator Exclusion"}]},"count":0},{"code":{"coding":[{"system":"http://terminology.hl7.org/CodeSystem/measure-population","code":"numerator","display":"Numerator"}]},"count":0},{"code":{"coding":[{"system":"http://terminology.hl7.org/CodeSystem/measure-population","code":"denominator-exception","display":"Denominator Exception"}]},"count":0}]}]},"request":{"method":"PUT","url":"MeasureReport/11005f18-de09-4f59-ab64-6053c984d50f"}}]}