{"resourceType":"Bundle","id":"tests-e695d66d-1f4e-4b69-acad-0861f1222d44-bundle","type":"transaction","entry":[{"fullUrl":"https://madie.cms.gov/Patient/e695d66d-1f4e-4b69-acad-0861f1222d44","resource":{"resourceType":"Patient","id":"e695d66d-1f4e-4b69-acad-0861f1222d44","meta":{"profile":["http://hl7.org/fhir/us/qicore/StructureDefinition/qicore-patient"]},"text":{"status":"generated","div":"<div xmlns=\"http://www.w3.org/1999/xhtml\"><div class=\"hapiHeaderText\">ProcAtrialAblB4EncDateTime <b>DENOMPASS </b></div><table class=\"hapiPropertyTable\"><tbody><tr><td>Identifier</td><td>1ebc7a8ec0c65913b7018969c7b50ead</td></tr><tr><td>Date of birth</td><td><span>01 December 1960</span></td></tr></tbody></table></div>"},"extension":[{"url":"http://hl7.org/fhir/us/core/StructureDefinition/us-core-race","extension":[{"url":"ombCategory","valueCoding":{"system":"urn:oid:2.16.840.1.113883.6.238","code":"1002-5","display":"American Indian or Alaska Native","userSelected":true}},{"url":"text","valueString":"American Indian or Alaska Native"}]},{"url":"http://hl7.org/fhir/us/core/StructureDefinition/us-core-ethnicity","extension":[{"url":"ombCategory","valueCoding":{"system":"urn:oid:2.16.840.1.113883.6.238","code":"2135-2","display":"Hispanic or Latino","userSelected":true}},{"url":"text","valueString":"Hispanic or Latino"}]}],"identifier":[{"type":{"coding":[{"system":"http://terminology.hl7.org/CodeSystem/v2-0203","code":"MR"}]},"system":"https://bonnie-fhir.healthit.gov/","value":"633c9d040968f8012250fcb2"}],"active":true,"name":[{"use":"usual","family":"DENOMPass","given":["ProcAtrialAblB4EncDateTime"]}],"gender":"male","birthDate":"1960-12-01"},"request":{"method":"PUT","url":"Patient/e695d66d-1f4e-4b69-acad-0861f1222d44"}},{"fullUrl":"https://madie.cms.gov/Encounter/5c953f96b848462de0ae4096","resource":{"resourceType":"Encounter","id":"c0958fed-769b-4d72-97bc-595b6e84f179","meta":{"profile":["http://hl7.org/fhir/us/qicore/StructureDefinition/qicore-encounter"]},"status":"finished","class":{"system":"http://terminology.hl7.org/CodeSystem/v3-ActCode","code":"IMP","display":"inpatient encounter"},"type":[{"coding":[{"system":"http://snomed.info/sct","code":"32485007"}]}],"subject":{"reference":"Patient/e695d66d-1f4e-4b69-acad-0861f1222d44"},"period":{"start":"2025-02-08T08:00:00.000Z","end":"2025-02-10T08:15:00.000Z"},"length":{"value":2,"unit":"days"},"diagnosis":[{"condition":{"reference":"Condition/ischemic-stroke-1983"},"use":{"coding":[{"system":"http://terminology.hl7.org/CodeSystem/diagnosis-role","code":"billing","display":"Billing"}]},"rank":1}]},"request":{"method":"PUT","url":"Encounter/c0958fed-769b-4d72-97bc-595b6e84f179"}},{"fullUrl":"https://madie.cms.gov/Coverage/5f2c53ca1c76ba5c9960570b","resource":{"resourceType":"Coverage","id":"4d50b073-3b57-4875-a760-e2aa7ba63265","status":"active","beneficiary":{"reference":"Patient/e695d66d-1f4e-4b69-acad-0861f1222d44"},"period":{"start":"1960-12-01T08:00:00.000Z"},"payor":[{"reference":"Organization/33ead57e-5e04-40e4-95ea-bc3cdbd58917"}]},"request":{"method":"PUT","url":"Coverage/4d50b073-3b57-4875-a760-e2aa7ba63265"}},{"fullUrl":"https://madie.cms.gov/Procedure/5c953f96b848462de0ae4098","resource":{"resourceType":"Procedure","id":"4349e928-9231-4d97-95d2-0656cb606273","meta":{"profile":["http://hl7.org/fhir/us/qicore/StructureDefinition/qicore-procedure"]},"extension":[{"url":"http://hl7.org/fhir/us/qicore/StructureDefinition/qicore-recorded","valueDateTime":"2025-11-19T09:35:00-04:00"}],"status":"completed","code":{"coding":[{"system":"http://www.cms.gov/Medicare/Coding/ICD10","code":"02560ZZ"},{"system":"http://snomed.info/sct","code":"175095005"}]},"subject":{"reference":"Patient/e695d66d-1f4e-4b69-acad-0861f1222d44"},"performedDateTime":"2025-02-08T07:59:00.000+00:00"},"request":{"method":"PUT","url":"Procedure/4349e928-9231-4d97-95d2-0656cb606273"}},{"fullUrl":"https://madie.cms.gov/Condition/ischemic-stroke-1983","resource":{"resourceType":"Condition","id":"a5c58ca1-6301-4a44-955d-d5d6916e9379","meta":{"profile":["http://hl7.org/fhir/us/qicore/StructureDefinition/qicore-condition"]},"clinicalStatus":{"coding":[{"system":"http://terminology.hl7.org/CodeSystem/condition-clinical","code":"active"}]},"verificationStatus":{"coding":[{"system":"http://terminology.hl7.org/CodeSystem/condition-ver-status","code":"confirmed"}]},"category":[{"coding":[{"system":"http://terminology.hl7.org/CodeSystem/condition-category","code":"encounter-diagnosis","display":"Encounter Diagnosis"}]}],"code":{"coding":[{"system":"http://snomed.info/sct","version":"2021-09","code":"111297002","display":"Nonparalytic stroke (disorder)","userSelected":true}]},"subject":{"reference":"Patient/e695d66d-1f4e-4b69-acad-0861f1222d44"},"recordedDate":"2025-10-13T08:00:00.000+00:00"},"request":{"method":"PUT","url":"Condition/a5c58ca1-6301-4a44-955d-d5d6916e9379"}},{"fullUrl":"https://madie.cms.gov/Organization/123456","resource":{"resourceType":"Organization","id":"33ead57e-5e04-40e4-95ea-bc3cdbd58917","meta":{"profile":["http://hl7.org/fhir/us/qicore/StructureDefinition/qicore-organization"]},"identifier":[{"use":"temp","system":"urn:oid:2.16.840.1.113883.4.4","value":"21-3259825"}],"active":true,"type":[{"coding":[{"system":"http://terminology.hl7.org/CodeSystem/organization-type","code":"pay","display":"Payer"}]}],"name":"Blue Cross Blue Shield of Texas","telecom":[{"system":"phone","value":"(+1) 972-766-6900"}],"address":[{"use":"billing","type":"postal","line":["P.O. Box 660044"],"city":"Dallas","state":"TX","postalCode":"75266-0044","country":"USA"}]},"request":{"method":"PUT","url":"Organization/33ead57e-5e04-40e4-95ea-bc3cdbd58917"}},{"fullUrl":"https://madie.cms.gov/Practitioner/practitioner-123456","resource":{"resourceType":"Practitioner","id":"c3bc3821-83b5-4dd4-8220-b8ae14db7517","identifier":[{"system":"http://hl7.org/fhir/sid/us-npi","value":"123456"}],"name":[{"family":"Evil","prefix":["Dr"]}]},"request":{"method":"PUT","url":"Practitioner/c3bc3821-83b5-4dd4-8220-b8ae14db7517"}},{"fullUrl":"https://madie.cms.gov/MeasureReport/3a273ead-0735-401c-bc52-ffa00e66b927","resource":{"resourceType":"MeasureReport","id":"3a273ead-0735-401c-bc52-ffa00e66b927","meta":{"profile":["http://hl7.org/fhir/us/cqfmeasures/StructureDefinition/test-case-cqfm"]},"contained":[{"resourceType":"Parameters","id":"611dfa6e-4664-4660-b9de-daf62ef68087-parameters","parameter":[{"name":"subject","valueString":"e695d66d-1f4e-4b69-acad-0861f1222d44"}]}],"extension":[{"url":"http://hl7.org/fhir/us/cqfmeasures/StructureDefinition/cqfm-inputParameters","valueReference":{"reference":"#611dfa6e-4664-4660-b9de-daf62ef68087-parameters"}},{"url":"http://hl7.org/fhir/us/cqfmeasures/StructureDefinition/cqfm-testCaseDescription","valueMarkdown":"Proc performed Atrial Ablation starts before start of OccA by 1 minutes\n"}],"modifierExtension":[{"url":"http://hl7.org/fhir/us/cqfmeasures/StructureDefinition/cqfm-isTestCase","valueBoolean":true}],"status":"complete","type":"individual","measure":"https://madie.cms.gov/Measure/AnticoagulationTherapyforAtrialFibrillationFlutterFHIR","period":{"start":"2025-01-01","end":"2025-12-31"},"group":[{"population":[{"code":{"coding":[{"system":"http://terminology.hl7.org/CodeSystem/measure-population","code":"initial-population","display":"Initial Population"}]},"count":1},{"code":{"coding":[{"system":"http://terminology.hl7.org/CodeSystem/measure-population","code":"denominator","display":"Denominator"}]},"count":1},{"code":{"coding":[{"system":"http://terminology.hl7.org/CodeSystem/measure-population","code":"denominator-exclusion","display":"Denominator Exclusion"}]},"count":0},{"code":{"coding":[{"system":"http://terminology.hl7.org/CodeSystem/measure-population","code":"numerator","display":"Numerator"}]},"count":0},{"code":{"coding":[{"system":"http://terminology.hl7.org/CodeSystem/measure-population","code":"denominator-exception","display":"Denominator Exception"}]},"count":0}]}]},"request":{"method":"PUT","url":"MeasureReport/3a273ead-0735-401c-bc52-ffa00e66b927"}}]}