{"resourceType":"Bundle","id":"tests-b1d0c606-661d-44e8-a25f-4e7ca8131f2a-bundle","type":"transaction","entry":[{"fullUrl":"https://madie.cms.gov/Patient/b1d0c606-661d-44e8-a25f-4e7ca8131f2a","resource":{"resourceType":"Patient","id":"b1d0c606-661d-44e8-a25f-4e7ca8131f2a","meta":{"profile":["http://hl7.org/fhir/us/qicore/StructureDefinition/qicore-patient"]},"text":{"status":"generated","div":"<div xmlns=\"http://www.w3.org/1999/xhtml\"><div class=\"hapiHeaderText\">CMOdurEnc_ED&gt;1hrObs&gt;1hrBFEnc <b>DENEXPASS </b></div><table class=\"hapiPropertyTable\"><tbody><tr><td>Identifier</td><td>46dce2b3319988ed781af0093af5d517</td></tr><tr><td>Date of birth</td><td><span>18 September 1985</span></td></tr></tbody></table></div>"},"extension":[{"url":"http://hl7.org/fhir/us/core/StructureDefinition/us-core-race","extension":[{"url":"ombCategory","valueCoding":{"system":"urn:oid:2.16.840.1.113883.6.238","code":"1002-5","display":"American Indian or Alaska Native","userSelected":true}},{"url":"text","valueString":"American Indian or Alaska Native"}]},{"url":"http://hl7.org/fhir/us/core/StructureDefinition/us-core-ethnicity","extension":[{"url":"ombCategory","valueCoding":{"system":"urn:oid:2.16.840.1.113883.6.238","code":"2135-2","display":"Hispanic or Latino","userSelected":true}},{"url":"text","valueString":"Hispanic or Latino"}]}],"identifier":[{"type":{"coding":[{"system":"http://terminology.hl7.org/CodeSystem/v2-0203","code":"MR"}]},"system":"https://bonnie-fhir.healthit.gov/","value":"633c9d030968f8012250fc9b"}],"active":true,"name":[{"use":"usual","family":"DENEXPass","given":["CMOdurEnc_ED>1hrObs>1hrBFEnc"]}],"gender":"female","birthDate":"1985-09-18"},"request":{"method":"PUT","url":"Patient/b1d0c606-661d-44e8-a25f-4e7ca8131f2a"}},{"fullUrl":"https://madie.cms.gov/Condition/5c953f97b848462de0ae40fc","resource":{"resourceType":"Condition","id":"0618a080-1506-4d04-80cc-72be4b2fde1c","meta":{"profile":["http://hl7.org/fhir/us/qicore/StructureDefinition/qicore-condition"]},"clinicalStatus":{"coding":[{"system":"http://terminology.hl7.org/CodeSystem/condition-clinical","code":"inactive"}]},"verificationStatus":{"coding":[{"system":"http://terminology.hl7.org/CodeSystem/condition-ver-status","code":"confirmed"}]},"category":[{"coding":[{"system":"http://terminology.hl7.org/CodeSystem/condition-category","code":"encounter-diagnosis","display":"Encounter Diagnosis"}]}],"code":{"coding":[{"system":"http://hl7.org/fhir/sid/icd-10-cm","code":"I48.20"},{"system":"http://hl7.org/fhir/sid/icd-10-cm","code":"I48.0"},{"system":"http://snomed.info/sct","code":"5370000"}]},"subject":{"reference":"Patient/b1d0c606-661d-44e8-a25f-4e7ca8131f2a"},"onsetDateTime":"2025-10-01T09:00:00.000Z","abatementDateTime":"2025-10-12T00:15:00.000Z"},"request":{"method":"PUT","url":"Condition/0618a080-1506-4d04-80cc-72be4b2fde1c"}},{"fullUrl":"https://madie.cms.gov/Encounter/5c953f97b848462de0ae40fd","resource":{"resourceType":"Encounter","id":"ddb46b27-0840-42fe-ab31-ec52a8e1ad58","meta":{"profile":["http://hl7.org/fhir/us/qicore/StructureDefinition/qicore-encounter"]},"status":"finished","class":{"system":"http://terminology.hl7.org/CodeSystem/v3-ActCode","code":"EMER","display":"emergency"},"type":[{"coding":[{"system":"http://snomed.info/sct","code":"4525004"}]}],"subject":{"reference":"Patient/b1d0c606-661d-44e8-a25f-4e7ca8131f2a"},"period":{"start":"2025-10-01T07:59:00.000Z","end":"2025-10-01T08:00:00.000Z"},"length":{"value":0,"unit":"days"}},"request":{"method":"PUT","url":"Encounter/ddb46b27-0840-42fe-ab31-ec52a8e1ad58"}},{"fullUrl":"https://madie.cms.gov/Encounter/5c953f97b848462de0ae40fe","resource":{"resourceType":"Encounter","id":"1906b430-999b-4de8-bbaf-5f4df75ba63b","meta":{"profile":["http://hl7.org/fhir/us/qicore/StructureDefinition/qicore-encounter"]},"status":"finished","class":{"system":"http://terminology.hl7.org/CodeSystem/v3-ActCode","code":"OBSENC","display":"observation encounter"},"type":[{"coding":[{"system":"http://snomed.info/sct","code":"448851000124103"}]}],"subject":{"reference":"Patient/b1d0c606-661d-44e8-a25f-4e7ca8131f2a"},"period":{"start":"2025-10-01T09:01:00.000Z","end":"2025-10-01T09:30:00.000Z"},"length":{"value":0,"unit":"days"}},"request":{"method":"PUT","url":"Encounter/1906b430-999b-4de8-bbaf-5f4df75ba63b"}},{"fullUrl":"https://madie.cms.gov/Encounter/5c953f97b848462de0ae40ff","resource":{"resourceType":"Encounter","id":"7cf12b45-b490-4d4a-b1ae-9113f6bc8488","meta":{"profile":["http://hl7.org/fhir/us/qicore/StructureDefinition/qicore-encounter"]},"status":"finished","class":{"system":"http://terminology.hl7.org/CodeSystem/v3-ActCode","code":"IMP","display":"inpatient encounter"},"type":[{"coding":[{"system":"http://snomed.info/sct","code":"32485007"}]}],"subject":{"reference":"Patient/b1d0c606-661d-44e8-a25f-4e7ca8131f2a"},"period":{"start":"2025-10-01T10:31:00.000Z","end":"2025-10-12T00:15:00.000Z"},"length":{"value":11,"unit":"days"},"diagnosis":[{"condition":{"reference":"Condition/ischemic-stroke-1968"},"use":{"coding":[{"system":"http://terminology.hl7.org/CodeSystem/diagnosis-role","code":"billing","display":"Billing"}]},"rank":1}]},"request":{"method":"PUT","url":"Encounter/7cf12b45-b490-4d4a-b1ae-9113f6bc8488"}},{"fullUrl":"https://madie.cms.gov/ServiceRequest/5c953f97b848462de0ae4101","resource":{"resourceType":"ServiceRequest","id":"1102177a-f54f-4886-a2cc-54470ff6a7de","meta":{"profile":["http://hl7.org/fhir/us/qicore/StructureDefinition/qicore-servicerequest"]},"status":"active","intent":"order","code":{"coding":[{"system":"http://snomed.info/sct","code":"133918004"}]},"subject":{"reference":"Patient/b1d0c606-661d-44e8-a25f-4e7ca8131f2a"},"authoredOn":"2025-10-01T11:30:00.000+00:00"},"request":{"method":"PUT","url":"ServiceRequest/1102177a-f54f-4886-a2cc-54470ff6a7de"}},{"fullUrl":"https://madie.cms.gov/Coverage/5f2c53ce1c76ba5c99605771","resource":{"resourceType":"Coverage","id":"de1ed95c-8b08-401a-b53c-3098c7bbe9b1","status":"active","beneficiary":{"reference":"Patient/b1d0c606-661d-44e8-a25f-4e7ca8131f2a"},"period":{"start":"1985-09-18T08:00:00.000Z"},"payor":[{"reference":"Organization/5224cb12-ed64-4d6d-ab28-40a64f0800f1"}]},"request":{"method":"PUT","url":"Coverage/de1ed95c-8b08-401a-b53c-3098c7bbe9b1"}},{"fullUrl":"https://madie.cms.gov/Condition/ischemic-stroke-1968","resource":{"resourceType":"Condition","id":"e2760c27-b9ff-4b1b-b38a-e63088dbf062","meta":{"profile":["http://hl7.org/fhir/us/qicore/StructureDefinition/qicore-condition"]},"clinicalStatus":{"coding":[{"system":"http://terminology.hl7.org/CodeSystem/condition-clinical","code":"active"}]},"verificationStatus":{"coding":[{"system":"http://terminology.hl7.org/CodeSystem/condition-ver-status","code":"confirmed"}]},"category":[{"coding":[{"system":"http://terminology.hl7.org/CodeSystem/condition-category","code":"encounter-diagnosis","display":"Encounter Diagnosis"}]}],"code":{"coding":[{"system":"http://snomed.info/sct","version":"2021-09","code":"111297002","display":"Nonparalytic stroke (disorder)","userSelected":true}]},"subject":{"reference":"Patient/b1d0c606-661d-44e8-a25f-4e7ca8131f2a"},"recordedDate":"2025-10-13T08:00:00.000+00:00"},"request":{"method":"PUT","url":"Condition/e2760c27-b9ff-4b1b-b38a-e63088dbf062"}},{"fullUrl":"https://madie.cms.gov/Organization/123456","resource":{"resourceType":"Organization","id":"5224cb12-ed64-4d6d-ab28-40a64f0800f1","meta":{"profile":["http://hl7.org/fhir/us/qicore/StructureDefinition/qicore-organization"]},"identifier":[{"use":"temp","system":"urn:oid:2.16.840.1.113883.4.4","value":"21-3259825"}],"active":true,"type":[{"coding":[{"system":"http://terminology.hl7.org/CodeSystem/organization-type","code":"pay","display":"Payer"}]}],"name":"Blue Cross Blue Shield of Texas","telecom":[{"system":"phone","value":"(+1) 972-766-6900"}],"address":[{"use":"billing","type":"postal","line":["P.O. Box 660044"],"city":"Dallas","state":"TX","postalCode":"75266-0044","country":"USA"}]},"request":{"method":"PUT","url":"Organization/5224cb12-ed64-4d6d-ab28-40a64f0800f1"}},{"fullUrl":"https://madie.cms.gov/Practitioner/practitioner-123456","resource":{"resourceType":"Practitioner","id":"16ef1317-c37e-4b0c-8dcd-2288695e7e82","identifier":[{"system":"http://hl7.org/fhir/sid/us-npi","value":"123456"}],"name":[{"family":"Evil","prefix":["Dr"]}]},"request":{"method":"PUT","url":"Practitioner/16ef1317-c37e-4b0c-8dcd-2288695e7e82"}},{"fullUrl":"https://madie.cms.gov/MeasureReport/345b2934-1d0b-4210-88bb-769d22b32262","resource":{"resourceType":"MeasureReport","id":"345b2934-1d0b-4210-88bb-769d22b32262","meta":{"profile":["http://hl7.org/fhir/us/cqfmeasures/StructureDefinition/test-case-cqfm"]},"contained":[{"resourceType":"Parameters","id":"e744ef47-a3fd-4dd6-ac0b-e3de066e3715-parameters","parameter":[{"name":"subject","valueString":"b1d0c606-661d-44e8-a25f-4e7ca8131f2a"}]}],"extension":[{"url":"http://hl7.org/fhir/us/cqfmeasures/StructureDefinition/cqfm-inputParameters","valueReference":{"reference":"#e744ef47-a3fd-4dd6-ac0b-e3de066e3715-parameters"}},{"url":"http://hl7.org/fhir/us/cqfmeasures/StructureDefinition/cqfm-testCaseDescription","valueMarkdown":"Patient receives CMO during inpatient encounter. ED ends 61 minutes before Obs start, Obs ends 61 min before inpatient encounter start. Testing HospitalizationWithObservation function.\n"}],"modifierExtension":[{"url":"http://hl7.org/fhir/us/cqfmeasures/StructureDefinition/cqfm-isTestCase","valueBoolean":true}],"status":"complete","type":"individual","measure":"https://madie.cms.gov/Measure/AnticoagulationTherapyforAtrialFibrillationFlutterFHIR","period":{"start":"2025-01-01","end":"2025-12-31"},"group":[{"population":[{"code":{"coding":[{"system":"http://terminology.hl7.org/CodeSystem/measure-population","code":"initial-population","display":"Initial Population"}]},"count":1},{"code":{"coding":[{"system":"http://terminology.hl7.org/CodeSystem/measure-population","code":"denominator","display":"Denominator"}]},"count":1},{"code":{"coding":[{"system":"http://terminology.hl7.org/CodeSystem/measure-population","code":"denominator-exclusion","display":"Denominator Exclusion"}]},"count":1},{"code":{"coding":[{"system":"http://terminology.hl7.org/CodeSystem/measure-population","code":"numerator","display":"Numerator"}]},"count":0},{"code":{"coding":[{"system":"http://terminology.hl7.org/CodeSystem/measure-population","code":"denominator-exception","display":"Denominator Exception"}]},"count":0}]}]},"request":{"method":"PUT","url":"MeasureReport/345b2934-1d0b-4210-88bb-769d22b32262"}}]}