{"resourceType":"Bundle","id":"tests-3ed947b5-9aba-4bed-aa72-f96b6f3f5082-bundle","type":"transaction","entry":[{"fullUrl":"https://madie.cms.gov/Patient/3ed947b5-9aba-4bed-aa72-f96b6f3f5082","resource":{"resourceType":"Patient","id":"3ed947b5-9aba-4bed-aa72-f96b6f3f5082","meta":{"profile":["http://hl7.org/fhir/us/qicore/StructureDefinition/qicore-patient"]},"text":{"status":"generated","div":"<div xmlns=\"http://www.w3.org/1999/xhtml\"><div class=\"hapiHeaderText\">CMOdurEncTM_EDEndTM=ObsTM_ObsEndTM=EncTM <b>DENEXPASS </b></div><table class=\"hapiPropertyTable\"><tbody><tr><td>Identifier</td><td>a33eaee35b35d61ecea21326efe74641</td></tr><tr><td>Date of birth</td><td><span>18 September 1985</span></td></tr></tbody></table></div>"},"extension":[{"url":"http://hl7.org/fhir/us/core/StructureDefinition/us-core-race","extension":[{"url":"ombCategory","valueCoding":{"system":"urn:oid:2.16.840.1.113883.6.238","code":"1002-5","display":"American Indian or Alaska Native","userSelected":true}},{"url":"text","valueString":"American Indian or Alaska Native"}]},{"url":"http://hl7.org/fhir/us/core/StructureDefinition/us-core-ethnicity","extension":[{"url":"ombCategory","valueCoding":{"system":"urn:oid:2.16.840.1.113883.6.238","code":"2135-2","display":"Hispanic or Latino","userSelected":true}},{"url":"text","valueString":"Hispanic or Latino"}]}],"identifier":[{"type":{"coding":[{"system":"http://terminology.hl7.org/CodeSystem/v2-0203","code":"MR"}]},"system":"https://bonnie-fhir.healthit.gov/","value":"633c9d030968f8012250fc9c"}],"active":true,"name":[{"use":"usual","family":"DENEXPass","given":["CMOdurEncTM_EDEndTM=ObsTM_ObsEndTM=EncTM"]}],"gender":"female","birthDate":"1985-09-18"},"request":{"method":"PUT","url":"Patient/3ed947b5-9aba-4bed-aa72-f96b6f3f5082"}},{"fullUrl":"https://madie.cms.gov/Condition/5c953f97b848462de0ae4137","resource":{"resourceType":"Condition","id":"3925792b-947b-4302-9e0b-fcbac5f0ca19","meta":{"profile":["http://hl7.org/fhir/us/qicore/StructureDefinition/qicore-condition"]},"clinicalStatus":{"coding":[{"system":"http://terminology.hl7.org/CodeSystem/condition-clinical","code":"inactive"}]},"verificationStatus":{"coding":[{"system":"http://terminology.hl7.org/CodeSystem/condition-ver-status","code":"confirmed"}]},"category":[{"coding":[{"system":"http://terminology.hl7.org/CodeSystem/condition-category","code":"encounter-diagnosis","display":"Encounter Diagnosis"}]}],"code":{"coding":[{"system":"http://hl7.org/fhir/sid/icd-10-cm","code":"I48.20"},{"system":"http://hl7.org/fhir/sid/icd-10-cm","code":"I48.0"},{"system":"http://snomed.info/sct","code":"5370000"}]},"subject":{"reference":"Patient/3ed947b5-9aba-4bed-aa72-f96b6f3f5082"},"onsetDateTime":"2025-10-01T09:00:00.000Z","abatementDateTime":"2025-10-12T00:15:00.000Z"},"request":{"method":"PUT","url":"Condition/3925792b-947b-4302-9e0b-fcbac5f0ca19"}},{"fullUrl":"https://madie.cms.gov/Encounter/5c953f97b848462de0ae4138","resource":{"resourceType":"Encounter","id":"d812534d-c3a5-4ebc-9efd-030e91dcca2a","meta":{"profile":["http://hl7.org/fhir/us/qicore/StructureDefinition/qicore-encounter"]},"status":"finished","class":{"system":"http://terminology.hl7.org/CodeSystem/v3-ActCode","code":"EMER","display":"emergency"},"type":[{"coding":[{"system":"http://snomed.info/sct","code":"4525004"}]}],"subject":{"reference":"Patient/3ed947b5-9aba-4bed-aa72-f96b6f3f5082"},"period":{"start":"2025-10-01T07:59:00.000Z","end":"2025-10-01T09:00:00.000Z"},"length":{"value":0,"unit":"days"}},"request":{"method":"PUT","url":"Encounter/d812534d-c3a5-4ebc-9efd-030e91dcca2a"}},{"fullUrl":"https://madie.cms.gov/Encounter/5c953f97b848462de0ae4139","resource":{"resourceType":"Encounter","id":"61eab057-1a0c-4b4b-842b-c27a8bbede58","meta":{"profile":["http://hl7.org/fhir/us/qicore/StructureDefinition/qicore-encounter"]},"status":"finished","class":{"system":"http://terminology.hl7.org/CodeSystem/v3-ActCode","code":"OBSENC","display":"observation encounter"},"type":[{"coding":[{"system":"http://snomed.info/sct","code":"448851000124103"}]}],"subject":{"reference":"Patient/3ed947b5-9aba-4bed-aa72-f96b6f3f5082"},"period":{"start":"2025-10-01T09:00:00.000Z","end":"2025-10-01T10:00:00.000Z"},"length":{"value":0,"unit":"days"}},"request":{"method":"PUT","url":"Encounter/61eab057-1a0c-4b4b-842b-c27a8bbede58"}},{"fullUrl":"https://madie.cms.gov/Encounter/5c953f97b848462de0ae413a","resource":{"resourceType":"Encounter","id":"2144382b-5f14-4cb5-b77e-7f3a42c0396c","meta":{"profile":["http://hl7.org/fhir/us/qicore/StructureDefinition/qicore-encounter"]},"status":"finished","class":{"system":"http://terminology.hl7.org/CodeSystem/v3-ActCode","code":"IMP","display":"inpatient encounter"},"type":[{"coding":[{"system":"http://snomed.info/sct","code":"32485007"}]}],"subject":{"reference":"Patient/3ed947b5-9aba-4bed-aa72-f96b6f3f5082"},"period":{"start":"2025-10-01T10:00:00.000Z","end":"2025-10-12T00:15:00.000Z"},"length":{"value":11,"unit":"days"},"diagnosis":[{"condition":{"reference":"Condition/ischemic-stroke-195c"},"use":{"coding":[{"system":"http://terminology.hl7.org/CodeSystem/diagnosis-role","code":"billing","display":"Billing"}]},"rank":1}]},"request":{"method":"PUT","url":"Encounter/2144382b-5f14-4cb5-b77e-7f3a42c0396c"}},{"fullUrl":"https://madie.cms.gov/ServiceRequest/5c953f97b848462de0ae413c","resource":{"resourceType":"ServiceRequest","id":"212f8223-20f0-4b01-8699-388310d03a8d","meta":{"profile":["http://hl7.org/fhir/us/qicore/StructureDefinition/qicore-servicerequest"]},"status":"active","intent":"order","code":{"coding":[{"system":"http://snomed.info/sct","code":"133918004"}]},"subject":{"reference":"Patient/3ed947b5-9aba-4bed-aa72-f96b6f3f5082"},"authoredOn":"2025-10-01T10:00:00.000+00:00"},"request":{"method":"PUT","url":"ServiceRequest/212f8223-20f0-4b01-8699-388310d03a8d"}},{"fullUrl":"https://madie.cms.gov/Coverage/5f2c53ce1c76ba5c99605774","resource":{"resourceType":"Coverage","id":"469e224e-8619-40c9-a243-770fe1cfd153","status":"active","beneficiary":{"reference":"Patient/3ed947b5-9aba-4bed-aa72-f96b6f3f5082"},"period":{"start":"1985-09-18T08:00:00.000Z"},"payor":[{"reference":"Organization/77e4d06f-5e3c-436a-a598-80cefcca5028"}]},"request":{"method":"PUT","url":"Coverage/469e224e-8619-40c9-a243-770fe1cfd153"}},{"fullUrl":"https://madie.cms.gov/Condition/ischemic-stroke-195c","resource":{"resourceType":"Condition","id":"22dcd5ea-01b4-4cb9-9db0-1b3ef12cb739","meta":{"profile":["http://hl7.org/fhir/us/qicore/StructureDefinition/qicore-condition"]},"clinicalStatus":{"coding":[{"system":"http://terminology.hl7.org/CodeSystem/condition-clinical","code":"active"}]},"verificationStatus":{"coding":[{"system":"http://terminology.hl7.org/CodeSystem/condition-ver-status","code":"confirmed"}]},"category":[{"coding":[{"system":"http://terminology.hl7.org/CodeSystem/condition-category","code":"encounter-diagnosis","display":"Encounter Diagnosis"}]}],"code":{"coding":[{"system":"http://snomed.info/sct","version":"2021-09","code":"111297002","display":"Nonparalytic stroke (disorder)","userSelected":true}]},"subject":{"reference":"Patient/3ed947b5-9aba-4bed-aa72-f96b6f3f5082"},"recordedDate":"2025-10-13T08:00:00.000+00:00"},"request":{"method":"PUT","url":"Condition/22dcd5ea-01b4-4cb9-9db0-1b3ef12cb739"}},{"fullUrl":"https://madie.cms.gov/Organization/123456","resource":{"resourceType":"Organization","id":"77e4d06f-5e3c-436a-a598-80cefcca5028","meta":{"profile":["http://hl7.org/fhir/us/qicore/StructureDefinition/qicore-organization"]},"identifier":[{"use":"temp","system":"urn:oid:2.16.840.1.113883.4.4","value":"21-3259825"}],"active":true,"type":[{"coding":[{"system":"http://terminology.hl7.org/CodeSystem/organization-type","code":"pay","display":"Payer"}]}],"name":"Blue Cross Blue Shield of Texas","telecom":[{"system":"phone","value":"(+1) 972-766-6900"}],"address":[{"use":"billing","type":"postal","line":["P.O. Box 660044"],"city":"Dallas","state":"TX","postalCode":"75266-0044","country":"USA"}]},"request":{"method":"PUT","url":"Organization/77e4d06f-5e3c-436a-a598-80cefcca5028"}},{"fullUrl":"https://madie.cms.gov/Practitioner/practitioner-123456","resource":{"resourceType":"Practitioner","id":"bba6f8fc-2fc3-44f3-909b-96696bf4dd66","identifier":[{"system":"http://hl7.org/fhir/sid/us-npi","value":"123456"}],"name":[{"family":"Evil","prefix":["Dr"]}]},"request":{"method":"PUT","url":"Practitioner/bba6f8fc-2fc3-44f3-909b-96696bf4dd66"}},{"fullUrl":"https://madie.cms.gov/MeasureReport/ddf7be7c-0195-4840-a77f-352271d728d1","resource":{"resourceType":"MeasureReport","id":"ddf7be7c-0195-4840-a77f-352271d728d1","meta":{"profile":["http://hl7.org/fhir/us/cqfmeasures/StructureDefinition/test-case-cqfm"]},"contained":[{"resourceType":"Parameters","id":"348f108b-1289-4ab4-b877-aa92ca7e2da5-parameters","parameter":[{"name":"subject","valueString":"3ed947b5-9aba-4bed-aa72-f96b6f3f5082"}]}],"extension":[{"url":"http://hl7.org/fhir/us/cqfmeasures/StructureDefinition/cqfm-inputParameters","valueReference":{"reference":"#348f108b-1289-4ab4-b877-aa92ca7e2da5-parameters"}},{"url":"http://hl7.org/fhir/us/cqfmeasures/StructureDefinition/cqfm-testCaseDescription","valueMarkdown":"Patient receives CMO during inpatient encounter. ED ends on Observation start and Obs ends on inpatient encounter start. Testing HospitalizationWithObservation function.\n"}],"modifierExtension":[{"url":"http://hl7.org/fhir/us/cqfmeasures/StructureDefinition/cqfm-isTestCase","valueBoolean":true}],"status":"complete","type":"individual","measure":"https://madie.cms.gov/Measure/AnticoagulationTherapyforAtrialFibrillationFlutterFHIR","period":{"start":"2025-01-01","end":"2025-12-31"},"group":[{"population":[{"code":{"coding":[{"system":"http://terminology.hl7.org/CodeSystem/measure-population","code":"initial-population","display":"Initial Population"}]},"count":1},{"code":{"coding":[{"system":"http://terminology.hl7.org/CodeSystem/measure-population","code":"denominator","display":"Denominator"}]},"count":1},{"code":{"coding":[{"system":"http://terminology.hl7.org/CodeSystem/measure-population","code":"denominator-exclusion","display":"Denominator Exclusion"}]},"count":1},{"code":{"coding":[{"system":"http://terminology.hl7.org/CodeSystem/measure-population","code":"numerator","display":"Numerator"}]},"count":0},{"code":{"coding":[{"system":"http://terminology.hl7.org/CodeSystem/measure-population","code":"denominator-exception","display":"Denominator Exception"}]},"count":0}]}]},"request":{"method":"PUT","url":"MeasureReport/ddf7be7c-0195-4840-a77f-352271d728d1"}}]}