{"resourceType":"Bundle","id":"tests-67622b2b-10f4-44c5-be6e-7f15b78f1464-bundle","type":"transaction","entry":[{"fullUrl":"https://madie.cms.gov/Patient/67622b2b-10f4-44c5-be6e-7f15b78f1464","resource":{"resourceType":"Patient","id":"67622b2b-10f4-44c5-be6e-7f15b78f1464","meta":{"profile":["http://hl7.org/fhir/us/qicore/StructureDefinition/qicore-patient"]},"text":{"status":"generated","div":"<div xmlns=\"http://www.w3.org/1999/xhtml\"><div class=\"hapiHeaderText\">2IPPass1IPFail DENEXPass <b>NUMERPASSX1 </b></div><table class=\"hapiPropertyTable\"><tbody><tr><td>Identifier</td><td>52c14de634122f39abfbd9ffaa41bc27</td></tr><tr><td>Date of birth</td><td><span>23 May 1954</span></td></tr></tbody></table></div>"},"extension":[{"url":"http://hl7.org/fhir/us/core/StructureDefinition/us-core-race","extension":[{"url":"ombCategory","valueCoding":{"system":"urn:oid:2.16.840.1.113883.6.238","code":"1002-5","display":"American Indian or Alaska Native","userSelected":true}},{"url":"text","valueString":"American Indian or Alaska Native"}]},{"url":"http://hl7.org/fhir/us/core/StructureDefinition/us-core-ethnicity","extension":[{"url":"ombCategory","valueCoding":{"system":"urn:oid:2.16.840.1.113883.6.238","code":"2135-2","display":"Hispanic or Latino","userSelected":true}},{"url":"text","valueString":"Hispanic or Latino"}]}],"identifier":[{"type":{"coding":[{"system":"http://terminology.hl7.org/CodeSystem/v2-0203","code":"MR"}]},"system":"https://bonnie-fhir.healthit.gov/","value":"633c9d040968f8012250fcaf"}],"active":true,"name":[{"use":"usual","family":"NUMERPassX1","given":["2IPPass1IPFail DENEXPass"]}],"gender":"female","birthDate":"1954-05-23"},"request":{"method":"PUT","url":"Patient/67622b2b-10f4-44c5-be6e-7f15b78f1464"}},{"fullUrl":"https://madie.cms.gov/Encounter/5c953f96b848462de0ae406d","resource":{"resourceType":"Encounter","id":"7cfb6ee1-b05b-4ff3-b908-7629d4cfefd1","meta":{"profile":["http://hl7.org/fhir/us/qicore/StructureDefinition/qicore-encounter"]},"status":"finished","class":{"system":"http://terminology.hl7.org/CodeSystem/v3-ActCode","code":"IMP","display":"inpatient encounter"},"type":[{"coding":[{"system":"http://snomed.info/sct","code":"32485007"}]}],"subject":{"reference":"Patient/67622b2b-10f4-44c5-be6e-7f15b78f1464"},"period":{"start":"2025-11-20T08:00:00.000Z","end":"2025-11-24T08:15:00.000Z"},"length":{"value":4,"unit":"days"},"diagnosis":[{"condition":{"reference":"Condition/ischemic-stroke-19a4"},"use":{"coding":[{"system":"http://terminology.hl7.org/CodeSystem/diagnosis-role","code":"billing","display":"Billing"}]},"rank":1}]},"request":{"method":"PUT","url":"Encounter/7cfb6ee1-b05b-4ff3-b908-7629d4cfefd1"}},{"fullUrl":"https://madie.cms.gov/Encounter/5e309320ef08fe00001553e0","resource":{"resourceType":"Encounter","id":"f6b88e24-0594-42ae-a3c7-1420372e8b07","meta":{"profile":["http://hl7.org/fhir/us/qicore/StructureDefinition/qicore-encounter"]},"status":"finished","class":{"system":"http://terminology.hl7.org/CodeSystem/v3-ActCode","code":"IMP","display":"inpatient encounter"},"type":[{"coding":[{"system":"http://snomed.info/sct","code":"183452005"}]}],"subject":{"reference":"Patient/67622b2b-10f4-44c5-be6e-7f15b78f1464"},"period":{"start":"2025-10-28T08:00:00.000Z","end":"2025-10-30T08:15:00.000Z"},"diagnosis":[{"condition":{"reference":"Condition/atrial-ablation-19a5"},"use":{"coding":[{"system":"http://terminology.hl7.org/CodeSystem/diagnosis-role","code":"billing","display":"Billing"}]},"rank":2}]},"request":{"method":"PUT","url":"Encounter/f6b88e24-0594-42ae-a3c7-1420372e8b07"}},{"fullUrl":"https://madie.cms.gov/Encounter/5e30973bef08fe0000155769","resource":{"resourceType":"Encounter","id":"b001e5f7-eedf-4710-9b30-9ad92bcce5d5","meta":{"profile":["http://hl7.org/fhir/us/qicore/StructureDefinition/qicore-encounter"]},"status":"finished","class":{"system":"http://terminology.hl7.org/CodeSystem/v3-ActCode","code":"IMP","display":"inpatient encounter"},"type":[{"coding":[{"system":"http://snomed.info/sct","code":"183452005"}]}],"subject":{"reference":"Patient/67622b2b-10f4-44c5-be6e-7f15b78f1464"},"period":{"start":"2025-09-03T08:00:00.000Z","end":"2025-09-07T08:15:00.000Z"},"length":{"value":4,"unit":"days"},"diagnosis":[{"condition":{"reference":"Condition/atrial-ablation-19a5"},"use":{"coding":[{"system":"http://www.cms.gov/Medicare/Coding/ICD10","code":"02560ZZ","display":"Destruction of Right Atrium, Open Approach"}]}},{"condition":{"reference":"Condition/atrial-fibrillation-flutter-19a7"}},{"condition":{"reference":"Condition/ischemic-stroke-19a8"},"use":{"coding":[{"system":"http://terminology.hl7.org/CodeSystem/diagnosis-role","code":"billing","display":"Billing"}]},"rank":1}]},"request":{"method":"PUT","url":"Encounter/b001e5f7-eedf-4710-9b30-9ad92bcce5d5"}},{"fullUrl":"https://madie.cms.gov/ServiceRequest/5e309a40ef08fe0000155922","resource":{"resourceType":"ServiceRequest","id":"1c93c81c-fed4-4f7f-b0f3-3781d75844db","meta":{"profile":["http://hl7.org/fhir/us/qicore/StructureDefinition/qicore-servicerequest"]},"status":"active","intent":"order","code":{"coding":[{"system":"http://snomed.info/sct","code":"133918004"}]},"subject":{"reference":"Patient/67622b2b-10f4-44c5-be6e-7f15b78f1464"},"authoredOn":"2025-11-20T08:00:00.000+00:00"},"request":{"method":"PUT","url":"ServiceRequest/1c93c81c-fed4-4f7f-b0f3-3781d75844db"}},{"fullUrl":"https://madie.cms.gov/MedicationRequest/5c953f96b848462de0ae406f","resource":{"resourceType":"MedicationRequest","id":"911af095-8052-42a6-80ad-be4c050394bd","meta":{"profile":["http://hl7.org/fhir/us/qicore/StructureDefinition/qicore-mednotrequested"]},"status":"completed","intent":"order","category":[{"coding":[{"system":"http://terminology.hl7.org/CodeSystem/medicationrequest-category","code":"community"}]}],"doNotPerform":true,"medicationCodeableConcept":{"coding":[{"system":"http://www.nlm.nih.gov/research/umls/rxnorm","code":"308351"}]},"subject":{"reference":"Patient/67622b2b-10f4-44c5-be6e-7f15b78f1464"},"authoredOn":"2025-09-07T08:00:00.000+00:00","requester":{"reference":"Practitioner/example"},"reasonCode":[{"coding":[{"system":"http://snomed.info/sct","code":"183966005","display":"Drug treatment not indicated (situation)"}]}]},"request":{"method":"PUT","url":"MedicationRequest/911af095-8052-42a6-80ad-be4c050394bd"}},{"fullUrl":"https://madie.cms.gov/MedicationRequest/5e30936eef08fe0000155444","resource":{"resourceType":"MedicationRequest","id":"123411e9-1e49-4e7d-89b7-e565b3192bf9","meta":{"profile":["http://hl7.org/fhir/us/qicore/StructureDefinition/qicore-medicationrequest"]},"status":"active","intent":"order","category":[{"coding":[{"system":"http://terminology.hl7.org/CodeSystem/medicationrequest-category","code":"community","display":"Community","userSelected":true}]}],"medicationCodeableConcept":{"coding":[{"system":"http://www.nlm.nih.gov/research/umls/rxnorm","version":"2022-01","code":"1114198","display":"rivaroxaban 10 MG Oral Tablet","userSelected":true}]},"subject":{"reference":"Patient/67622b2b-10f4-44c5-be6e-7f15b78f1464"},"authoredOn":"2025-11-24T08:00:00.000+00:00","requester":{"reference":"Practitioner/example"}},"request":{"method":"PUT","url":"MedicationRequest/123411e9-1e49-4e7d-89b7-e565b3192bf9"}},{"fullUrl":"https://madie.cms.gov/Coverage/5f2c53d01c76ba5c996057ad","resource":{"resourceType":"Coverage","id":"624dacff-f35a-4b0c-a5f5-6db89f130f8f","status":"active","beneficiary":{"reference":"Patient/67622b2b-10f4-44c5-be6e-7f15b78f1464"},"period":{"start":"1954-05-23T08:00:00.000Z"},"payor":[{"reference":"Organization/ec8cac12-7dd8-4c6e-8c44-d6c645085c80"}]},"request":{"method":"PUT","url":"Coverage/624dacff-f35a-4b0c-a5f5-6db89f130f8f"}},{"fullUrl":"https://madie.cms.gov/Procedure/5c953f96b848462de0ae4070","resource":{"resourceType":"Procedure","id":"c23b0d75-72ff-4a1a-80b9-c0264bd09718","meta":{"profile":["http://hl7.org/fhir/us/qicore/StructureDefinition/qicore-procedure"]},"extension":[{"url":"http://hl7.org/fhir/us/qicore/StructureDefinition/qicore-recorded","valueDateTime":"2025-11-19T09:35:00-04:00"}],"status":"completed","code":{"coding":[{"system":"http://www.cms.gov/Medicare/Coding/ICD10","code":"02560ZZ"},{"system":"http://snomed.info/sct","code":"175095005"}]},"subject":{"reference":"Patient/67622b2b-10f4-44c5-be6e-7f15b78f1464"},"performedPeriod":{"start":"2025-11-20T06:00:00.000Z","end":"2025-11-20T07:15:00.000Z"}},"request":{"method":"PUT","url":"Procedure/c23b0d75-72ff-4a1a-80b9-c0264bd09718"}},{"fullUrl":"https://madie.cms.gov/Condition/ischemic-stroke-19a4","resource":{"resourceType":"Condition","id":"c0d17e8b-db45-43af-8074-e23051f8d746","meta":{"profile":["http://hl7.org/fhir/us/qicore/StructureDefinition/qicore-condition"]},"clinicalStatus":{"coding":[{"system":"http://terminology.hl7.org/CodeSystem/condition-clinical","code":"active"}]},"verificationStatus":{"coding":[{"system":"http://terminology.hl7.org/CodeSystem/condition-ver-status","code":"confirmed"}]},"category":[{"coding":[{"system":"http://terminology.hl7.org/CodeSystem/condition-category","code":"encounter-diagnosis","display":"Encounter Diagnosis"}]}],"code":{"coding":[{"system":"http://snomed.info/sct","version":"2021-09","code":"111297002","display":"Nonparalytic stroke (disorder)","userSelected":true}]},"subject":{"reference":"Patient/67622b2b-10f4-44c5-be6e-7f15b78f1464"},"recordedDate":"2025-10-13T08:00:00.000+00:00"},"request":{"method":"PUT","url":"Condition/c0d17e8b-db45-43af-8074-e23051f8d746"}},{"fullUrl":"https://madie.cms.gov/Condition/atrial-ablation-19a5","resource":{"resourceType":"Condition","id":"d8b177f7-4fcb-4240-add4-5f8b38584cce","meta":{"profile":["http://hl7.org/fhir/us/qicore/StructureDefinition/qicore-condition"]},"clinicalStatus":{"coding":[{"system":"http://terminology.hl7.org/CodeSystem/condition-clinical","code":"active"}]},"verificationStatus":{"coding":[{"system":"http://terminology.hl7.org/CodeSystem/condition-ver-status","code":"confirmed"}]},"category":[{"coding":[{"system":"http://terminology.hl7.org/CodeSystem/condition-category","code":"encounter-diagnosis","display":"Encounter Diagnosis"}]}],"code":{"coding":[{"system":"http://www.icd10data.com/icd10pcs","version":"2022","code":"02560ZZ","display":"Destruction of Right Atrium, Open Approach","userSelected":true}]},"subject":{"reference":"Patient/67622b2b-10f4-44c5-be6e-7f15b78f1464"},"recordedDate":"2025-10-13T08:00:00.000+00:00"},"request":{"method":"PUT","url":"Condition/d8b177f7-4fcb-4240-add4-5f8b38584cce"}},{"fullUrl":"https://madie.cms.gov/Condition/ischemic-stroke-19a6","resource":{"resourceType":"Condition","id":"fded3f7e-7479-408e-b617-88e80bda7191","meta":{"profile":["http://hl7.org/fhir/us/qicore/StructureDefinition/qicore-condition"]},"clinicalStatus":{"coding":[{"system":"http://terminology.hl7.org/CodeSystem/condition-clinical","code":"active"}]},"verificationStatus":{"coding":[{"system":"http://terminology.hl7.org/CodeSystem/condition-ver-status","code":"confirmed"}]},"category":[{"coding":[{"system":"http://terminology.hl7.org/CodeSystem/condition-category","code":"encounter-diagnosis","display":"Encounter Diagnosis"}]}],"code":{"coding":[{"system":"http://snomed.info/sct","version":"2021-09","code":"111297002","display":"Nonparalytic stroke (disorder)","userSelected":true}]},"subject":{"reference":"Patient/67622b2b-10f4-44c5-be6e-7f15b78f1464"},"recordedDate":"2025-10-13T08:00:00.000+00:00"},"request":{"method":"PUT","url":"Condition/fded3f7e-7479-408e-b617-88e80bda7191"}},{"fullUrl":"https://madie.cms.gov/Condition/atrial-fibrillation-flutter-19a7","resource":{"resourceType":"Condition","id":"be1b84dc-a9f5-43e4-b003-5f9e09b07c78","meta":{"profile":["http://hl7.org/fhir/us/qicore/StructureDefinition/qicore-condition"]},"clinicalStatus":{"coding":[{"system":"http://terminology.hl7.org/CodeSystem/condition-clinical","code":"active"}]},"verificationStatus":{"coding":[{"system":"http://terminology.hl7.org/CodeSystem/condition-ver-status","code":"confirmed"}]},"category":[{"coding":[{"system":"http://terminology.hl7.org/CodeSystem/condition-category","code":"encounter-diagnosis","display":"Encounter Diagnosis"}]}],"code":{"coding":[{"system":"http://snomed.info/sct","version":"2021-09","code":"120041000119109","display":"Atrial fibrillation with rapid ventricular response (disorder)","userSelected":true}]},"subject":{"reference":"Patient/67622b2b-10f4-44c5-be6e-7f15b78f1464"},"recordedDate":"2025-10-13T08:00:00.000+00:00"},"request":{"method":"PUT","url":"Condition/be1b84dc-a9f5-43e4-b003-5f9e09b07c78"}},{"fullUrl":"https://madie.cms.gov/Condition/ischemic-stroke-19a8","resource":{"resourceType":"Condition","id":"207825dc-2f72-4be9-9524-f2117aafbe73","meta":{"profile":["http://hl7.org/fhir/us/qicore/StructureDefinition/qicore-condition"]},"clinicalStatus":{"coding":[{"system":"http://terminology.hl7.org/CodeSystem/condition-clinical","code":"active"}]},"verificationStatus":{"coding":[{"system":"http://terminology.hl7.org/CodeSystem/condition-ver-status","code":"confirmed"}]},"category":[{"coding":[{"system":"http://terminology.hl7.org/CodeSystem/condition-category","code":"encounter-diagnosis","display":"Encounter Diagnosis"}]}],"code":{"coding":[{"system":"http://snomed.info/sct","version":"2021-09","code":"111297002","display":"Nonparalytic stroke (disorder)","userSelected":true}]},"subject":{"reference":"Patient/67622b2b-10f4-44c5-be6e-7f15b78f1464"},"recordedDate":"2025-10-13T08:00:00.000+00:00"},"request":{"method":"PUT","url":"Condition/207825dc-2f72-4be9-9524-f2117aafbe73"}},{"fullUrl":"https://madie.cms.gov/Organization/123456","resource":{"resourceType":"Organization","id":"ec8cac12-7dd8-4c6e-8c44-d6c645085c80","meta":{"profile":["http://hl7.org/fhir/us/qicore/StructureDefinition/qicore-organization"]},"identifier":[{"use":"temp","system":"urn:oid:2.16.840.1.113883.4.4","value":"21-3259825"}],"active":true,"type":[{"coding":[{"system":"http://terminology.hl7.org/CodeSystem/organization-type","code":"pay","display":"Payer"}]}],"name":"Blue Cross Blue Shield of Texas","telecom":[{"system":"phone","value":"(+1) 972-766-6900"}],"address":[{"use":"billing","type":"postal","line":["P.O. Box 660044"],"city":"Dallas","state":"TX","postalCode":"75266-0044","country":"USA"}]},"request":{"method":"PUT","url":"Organization/ec8cac12-7dd8-4c6e-8c44-d6c645085c80"}},{"fullUrl":"https://madie.cms.gov/Practitioner/practitioner-123456","resource":{"resourceType":"Practitioner","id":"e07a40ca-9b87-4d30-ad86-6cb737982c4b","identifier":[{"system":"http://hl7.org/fhir/sid/us-npi","value":"123456"}],"name":[{"family":"Evil","prefix":["Dr"]}]},"request":{"method":"PUT","url":"Practitioner/e07a40ca-9b87-4d30-ad86-6cb737982c4b"}},{"fullUrl":"https://madie.cms.gov/MeasureReport/38a0708e-2a13-44fc-85fc-db27675855b6","resource":{"resourceType":"MeasureReport","id":"38a0708e-2a13-44fc-85fc-db27675855b6","meta":{"profile":["http://hl7.org/fhir/us/cqfmeasures/StructureDefinition/test-case-cqfm"]},"contained":[{"resourceType":"Parameters","id":"10943c08-6fd3-4480-9623-a13db6257ada-parameters","parameter":[{"name":"subject","valueString":"67622b2b-10f4-44c5-be6e-7f15b78f1464"}]}],"extension":[{"url":"http://hl7.org/fhir/us/cqfmeasures/StructureDefinition/cqfm-inputParameters","valueReference":{"reference":"#10943c08-6fd3-4480-9623-a13db6257ada-parameters"}},{"url":"http://hl7.org/fhir/us/cqfmeasures/StructureDefinition/cqfm-testCaseDescription","valueMarkdown":"Pt. discharged on anticoagulant, starts during encounter 1. Encounter 2 has admitting diagnosis with rank 2. Encounter 3 satisfies IPP and Denom. \n"}],"modifierExtension":[{"url":"http://hl7.org/fhir/us/cqfmeasures/StructureDefinition/cqfm-isTestCase","valueBoolean":true}],"status":"complete","type":"individual","measure":"https://madie.cms.gov/Measure/AnticoagulationTherapyforAtrialFibrillationFlutterFHIR","period":{"start":"2025-01-01","end":"2025-12-31"},"group":[{"population":[{"code":{"coding":[{"system":"http://terminology.hl7.org/CodeSystem/measure-population","code":"initial-population","display":"Initial Population"}]},"count":2},{"code":{"coding":[{"system":"http://terminology.hl7.org/CodeSystem/measure-population","code":"denominator","display":"Denominator"}]},"count":2},{"code":{"coding":[{"system":"http://terminology.hl7.org/CodeSystem/measure-population","code":"denominator-exclusion","display":"Denominator Exclusion"}]},"count":1},{"code":{"coding":[{"system":"http://terminology.hl7.org/CodeSystem/measure-population","code":"numerator","display":"Numerator"}]},"count":0},{"code":{"coding":[{"system":"http://terminology.hl7.org/CodeSystem/measure-population","code":"denominator-exception","display":"Denominator Exception"}]},"count":1}]}]},"request":{"method":"PUT","url":"MeasureReport/38a0708e-2a13-44fc-85fc-db27675855b6"}}]}