{"resourceType":"Bundle","id":"tests-3b8d6a18-b4a3-4369-b33c-6a6daa6b5b4c-bundle","type":"transaction","entry":[{"fullUrl":"https://madie.cms.gov/Patient/3b8d6a18-b4a3-4369-b33c-6a6daa6b5b4c","resource":{"resourceType":"Patient","id":"3b8d6a18-b4a3-4369-b33c-6a6daa6b5b4c","meta":{"profile":["http://hl7.org/fhir/us/qicore/StructureDefinition/qicore-patient"]},"text":{"status":"generated","div":"<div xmlns=\"http://www.w3.org/1999/xhtml\"><div class=\"hapiHeaderText\">MedDCAnticoaStartTmEQEncDischTm <b>NUMERPASS </b></div><table class=\"hapiPropertyTable\"><tbody><tr><td>Identifier</td><td>9128716b0b21eec571089f9d5d345182</td></tr><tr><td>Date of birth</td><td><span>23 May 1954</span></td></tr></tbody></table></div>"},"extension":[{"url":"http://hl7.org/fhir/us/core/StructureDefinition/us-core-race","extension":[{"url":"ombCategory","valueCoding":{"system":"urn:oid:2.16.840.1.113883.6.238","code":"1002-5","display":"American Indian or Alaska Native","userSelected":true}},{"url":"text","valueString":"American Indian or Alaska Native"}]},{"url":"http://hl7.org/fhir/us/core/StructureDefinition/us-core-ethnicity","extension":[{"url":"ombCategory","valueCoding":{"system":"urn:oid:2.16.840.1.113883.6.238","code":"2135-2","display":"Hispanic or Latino","userSelected":true}},{"url":"text","valueString":"Hispanic or Latino"}]}],"identifier":[{"type":{"coding":[{"system":"http://terminology.hl7.org/CodeSystem/v2-0203","code":"MR"}]},"system":"https://bonnie-fhir.healthit.gov/","value":"633c9d030968f8012250fc9d"}],"active":true,"name":[{"use":"usual","family":"NUMERPass","given":["MedDCAnticoaStartTmEQEncDischTm"]}],"gender":"female","birthDate":"1954-05-23"},"request":{"method":"PUT","url":"Patient/3b8d6a18-b4a3-4369-b33c-6a6daa6b5b4c"}},{"fullUrl":"https://madie.cms.gov/Encounter/5c953f97b848462de0ae40ed","resource":{"resourceType":"Encounter","id":"ba815b4a-aaac-4110-953b-09132c0ffb1e","meta":{"profile":["http://hl7.org/fhir/us/qicore/StructureDefinition/qicore-encounter"]},"status":"finished","class":{"system":"http://terminology.hl7.org/CodeSystem/v3-ActCode","code":"IMP","display":"inpatient encounter"},"type":[{"coding":[{"system":"http://snomed.info/sct","code":"32485007"}]}],"subject":{"reference":"Patient/3b8d6a18-b4a3-4369-b33c-6a6daa6b5b4c"},"period":{"start":"2025-11-20T08:00:00.000Z","end":"2025-11-24T08:15:00.000Z"},"length":{"value":4,"unit":"days"},"diagnosis":[{"condition":{"reference":"Condition/ischemic-stroke-19a3"},"use":{"coding":[{"system":"http://terminology.hl7.org/CodeSystem/diagnosis-role","code":"billing","display":"Billing"}]},"rank":1}]},"request":{"method":"PUT","url":"Encounter/ba815b4a-aaac-4110-953b-09132c0ffb1e"}},{"fullUrl":"https://madie.cms.gov/MedicationRequest/5c953f97b848462de0ae40ef","resource":{"resourceType":"MedicationRequest","id":"053e689b-e605-4e21-92e9-6bdb48277f76","meta":{"profile":["http://hl7.org/fhir/us/qicore/StructureDefinition/qicore-medicationrequest"]},"status":"active","intent":"order","category":[{"coding":[{"system":"http://terminology.hl7.org/CodeSystem/medicationrequest-category","code":"community","display":"Community","userSelected":true}]}],"medicationCodeableConcept":{"coding":[{"system":"http://www.nlm.nih.gov/research/umls/rxnorm","code":"308351"}]},"subject":{"reference":"Patient/3b8d6a18-b4a3-4369-b33c-6a6daa6b5b4c"},"authoredOn":"2025-11-24T08:15:00.000+00:00","requester":{"reference":"Practitioner/example"}},"request":{"method":"PUT","url":"MedicationRequest/053e689b-e605-4e21-92e9-6bdb48277f76"}},{"fullUrl":"https://madie.cms.gov/Coverage/5f2c53ce1c76ba5c99605777","resource":{"resourceType":"Coverage","id":"07ffeaf5-39cf-4ae2-9dda-b92eb7fd76d5","status":"active","beneficiary":{"reference":"Patient/3b8d6a18-b4a3-4369-b33c-6a6daa6b5b4c"},"period":{"start":"1954-05-23T08:00:00.000Z"},"payor":[{"reference":"Organization/33ead57e-5e04-40e4-95ea-bc3cdbd58917"}]},"request":{"method":"PUT","url":"Coverage/07ffeaf5-39cf-4ae2-9dda-b92eb7fd76d5"}},{"fullUrl":"https://madie.cms.gov/Procedure/5c953f97b848462de0ae40f0","resource":{"resourceType":"Procedure","id":"340f13e8-35a5-4429-9949-0b0abb385720","meta":{"profile":["http://hl7.org/fhir/us/qicore/StructureDefinition/qicore-procedure"]},"extension":[{"url":"http://hl7.org/fhir/us/qicore/StructureDefinition/qicore-recorded","valueDateTime":"2025-11-19T09:35:00-04:00"}],"status":"unknown","code":{"coding":[{"system":"http://www.cms.gov/Medicare/Coding/ICD10","code":"02560ZZ"},{"system":"http://snomed.info/sct","code":"175095005"}]},"subject":{"reference":"Patient/3b8d6a18-b4a3-4369-b33c-6a6daa6b5b4c"},"performedPeriod":{"start":"2025-11-20T06:00:00.000Z","end":"2025-11-20T07:15:00.000Z"}},"request":{"method":"PUT","url":"Procedure/340f13e8-35a5-4429-9949-0b0abb385720"}},{"fullUrl":"https://madie.cms.gov/Condition/ischemic-stroke-19a3","resource":{"resourceType":"Condition","id":"8b38bfbc-4474-4d83-9b8d-6584995d55f0","meta":{"profile":["http://hl7.org/fhir/us/qicore/StructureDefinition/qicore-condition"]},"clinicalStatus":{"coding":[{"system":"http://terminology.hl7.org/CodeSystem/condition-clinical","code":"active"}]},"verificationStatus":{"coding":[{"system":"http://terminology.hl7.org/CodeSystem/condition-ver-status","code":"confirmed"}]},"category":[{"coding":[{"system":"http://terminology.hl7.org/CodeSystem/condition-category","code":"encounter-diagnosis","display":"Encounter Diagnosis"}]}],"code":{"coding":[{"system":"http://snomed.info/sct","version":"2021-09","code":"111297002","display":"Nonparalytic stroke (disorder)","userSelected":true}]},"subject":{"reference":"Patient/3b8d6a18-b4a3-4369-b33c-6a6daa6b5b4c"},"recordedDate":"2025-10-13T08:00:00.000+00:00"},"request":{"method":"PUT","url":"Condition/8b38bfbc-4474-4d83-9b8d-6584995d55f0"}},{"fullUrl":"https://madie.cms.gov/Organization/123456","resource":{"resourceType":"Organization","id":"33ead57e-5e04-40e4-95ea-bc3cdbd58917","meta":{"profile":["http://hl7.org/fhir/us/qicore/StructureDefinition/qicore-organization"]},"identifier":[{"use":"temp","system":"urn:oid:2.16.840.1.113883.4.4","value":"21-3259825"}],"active":true,"type":[{"coding":[{"system":"http://terminology.hl7.org/CodeSystem/organization-type","code":"pay","display":"Payer"}]}],"name":"Blue Cross Blue Shield of Texas","telecom":[{"system":"phone","value":"(+1) 972-766-6900"}],"address":[{"use":"billing","type":"postal","line":["P.O. Box 660044"],"city":"Dallas","state":"TX","postalCode":"75266-0044","country":"USA"}]},"request":{"method":"PUT","url":"Organization/33ead57e-5e04-40e4-95ea-bc3cdbd58917"}},{"fullUrl":"https://madie.cms.gov/Practitioner/practitioner-123456","resource":{"resourceType":"Practitioner","id":"f680a8b6-0e53-4be3-ae36-e7f9dad18a68","identifier":[{"system":"http://hl7.org/fhir/sid/us-npi","value":"123456"}],"name":[{"family":"Evil","prefix":["Dr"]}]},"request":{"method":"PUT","url":"Practitioner/f680a8b6-0e53-4be3-ae36-e7f9dad18a68"}},{"fullUrl":"https://madie.cms.gov/MeasureReport/ea7b2cee-cbf9-4d91-9229-8457806289ff","resource":{"resourceType":"MeasureReport","id":"ea7b2cee-cbf9-4d91-9229-8457806289ff","meta":{"profile":["http://hl7.org/fhir/us/cqfmeasures/StructureDefinition/test-case-cqfm"]},"contained":[{"resourceType":"Parameters","id":"f0c148e0-8db4-4526-b289-fc9a04e33c6e-parameters","parameter":[{"name":"subject","valueString":"3b8d6a18-b4a3-4369-b33c-6a6daa6b5b4c"}]}],"extension":[{"url":"http://hl7.org/fhir/us/cqfmeasures/StructureDefinition/cqfm-inputParameters","valueReference":{"reference":"#f0c148e0-8db4-4526-b289-fc9a04e33c6e-parameters"}},{"url":"http://hl7.org/fhir/us/cqfmeasures/StructureDefinition/cqfm-testCaseDescription","valueMarkdown":"Coverage for AA procedure listed as unknown"}],"modifierExtension":[{"url":"http://hl7.org/fhir/us/cqfmeasures/StructureDefinition/cqfm-isTestCase","valueBoolean":true}],"status":"complete","type":"individual","measure":"https://madie.cms.gov/Measure/AnticoagulationTherapyforAtrialFibrillationFlutterFHIR","period":{"start":"2025-01-01","end":"2025-12-31"},"group":[{"population":[{"code":{"coding":[{"system":"http://terminology.hl7.org/CodeSystem/measure-population","code":"initial-population","display":"Initial Population"}]},"count":1},{"code":{"coding":[{"system":"http://terminology.hl7.org/CodeSystem/measure-population","code":"denominator","display":"Denominator"}]},"count":0},{"code":{"coding":[{"system":"http://terminology.hl7.org/CodeSystem/measure-population","code":"denominator-exclusion","display":"Denominator Exclusion"}]},"count":0},{"code":{"coding":[{"system":"http://terminology.hl7.org/CodeSystem/measure-population","code":"numerator","display":"Numerator"}]},"count":0},{"code":{"coding":[{"system":"http://terminology.hl7.org/CodeSystem/measure-population","code":"denominator-exception","display":"Denominator Exception"}]},"count":0}]}]},"request":{"method":"PUT","url":"MeasureReport/ea7b2cee-cbf9-4d91-9229-8457806289ff"}}]}