{"resourceType":"Bundle","id":"tests-67622b2b-10f4-44c5-be6e-7f15b78f1464-bundle","type":"transaction","entry":[{"fullUrl":"https://madie.cms.gov/Patient/67622b2b-10f4-44c5-be6e-7f15b78f1464","resource":{"resourceType":"Patient","id":"67622b2b-10f4-44c5-be6e-7f15b78f1464","meta":{"profile":["http://hl7.org/fhir/us/qicore/StructureDefinition/qicore-patient"]},"text":{"status":"generated","div":"<div xmlns=\"http://www.w3.org/1999/xhtml\"><div class=\"hapiHeaderText\">2IPPass1IPFail DENEXPass <b>NUMERPASSX1 </b></div><table class=\"hapiPropertyTable\"><tbody><tr><td>Identifier</td><td>52c14de634122f39abfbd9ffaa41bc27</td></tr><tr><td>Date of birth</td><td><span>23 May 1954</span></td></tr></tbody></table></div>"},"extension":[{"url":"http://hl7.org/fhir/us/core/StructureDefinition/us-core-race","extension":[{"url":"ombCategory","valueCoding":{"system":"urn:oid:2.16.840.1.113883.6.238","code":"1002-5","display":"American Indian or Alaska Native","userSelected":true}},{"url":"text","valueString":"American Indian or Alaska Native"}]},{"url":"http://hl7.org/fhir/us/core/StructureDefinition/us-core-ethnicity","extension":[{"url":"ombCategory","valueCoding":{"system":"urn:oid:2.16.840.1.113883.6.238","code":"2135-2","display":"Hispanic or Latino","userSelected":true}},{"url":"text","valueString":"Hispanic or Latino"}]}],"identifier":[{"type":{"coding":[{"system":"http://terminology.hl7.org/CodeSystem/v2-0203","code":"MR"}]},"system":"https://bonnie-fhir.healthit.gov/","value":"633c9d040968f8012250fcaf"}],"active":true,"name":[{"use":"usual","family":"NUMERPassX1","given":["2IPPass1IPFail DENEXPass"]}],"gender":"female","birthDate":"1954-05-23"},"request":{"method":"PUT","url":"Patient/67622b2b-10f4-44c5-be6e-7f15b78f1464"}},{"fullUrl":"https://madie.cms.gov/Encounter/5c953f96b848462de0ae406d","resource":{"resourceType":"Encounter","id":"2d6cb39e-a51f-407a-b8cb-84912b6aefef","meta":{"profile":["http://hl7.org/fhir/us/qicore/StructureDefinition/qicore-encounter"]},"status":"finished","class":{"system":"http://terminology.hl7.org/CodeSystem/v3-ActCode","code":"IMP","display":"inpatient encounter"},"type":[{"coding":[{"system":"http://snomed.info/sct","code":"32485007"}]}],"subject":{"reference":"Patient/67622b2b-10f4-44c5-be6e-7f15b78f1464"},"period":{"start":"2025-11-20T08:00:00.000Z","end":"2025-11-24T08:15:00.000Z"},"length":{"value":4,"unit":"days"},"diagnosis":[{"condition":{"reference":"Condition/ischemic-stroke-19a4"},"use":{"coding":[{"system":"http://terminology.hl7.org/CodeSystem/diagnosis-role","code":"billing","display":"Billing"}]},"rank":1}]},"request":{"method":"PUT","url":"Encounter/2d6cb39e-a51f-407a-b8cb-84912b6aefef"}},{"fullUrl":"https://madie.cms.gov/Encounter/5e309320ef08fe00001553e0","resource":{"resourceType":"Encounter","id":"f9f39e60-634c-44a8-8a60-6639f69b9499","meta":{"profile":["http://hl7.org/fhir/us/qicore/StructureDefinition/qicore-encounter"]},"status":"finished","class":{"system":"http://terminology.hl7.org/CodeSystem/v3-ActCode","code":"IMP","display":"inpatient encounter"},"type":[{"coding":[{"system":"http://snomed.info/sct","code":"183452005"}]}],"subject":{"reference":"Patient/67622b2b-10f4-44c5-be6e-7f15b78f1464"},"period":{"start":"2025-10-28T08:00:00.000Z","end":"2025-10-30T08:15:00.000Z"},"diagnosis":[{"condition":{"reference":"Condition/atrial-ablation-19a5"},"use":{"coding":[{"system":"http://terminology.hl7.org/CodeSystem/diagnosis-role","code":"billing","display":"Billing"}]},"rank":2}]},"request":{"method":"PUT","url":"Encounter/f9f39e60-634c-44a8-8a60-6639f69b9499"}},{"fullUrl":"https://madie.cms.gov/Encounter/5e30973bef08fe0000155769","resource":{"resourceType":"Encounter","id":"e466e8b0-8754-4574-b755-d92fbe9ca08e","meta":{"profile":["http://hl7.org/fhir/us/qicore/StructureDefinition/qicore-encounter"]},"status":"finished","class":{"system":"http://terminology.hl7.org/CodeSystem/v3-ActCode","code":"IMP","display":"inpatient encounter"},"type":[{"coding":[{"system":"http://snomed.info/sct","code":"183452005"}]}],"subject":{"reference":"Patient/67622b2b-10f4-44c5-be6e-7f15b78f1464"},"period":{"start":"2025-09-03T08:00:00.000Z","end":"2025-09-07T08:15:00.000Z"},"length":{"value":4,"unit":"days"},"diagnosis":[{"condition":{"reference":"Condition/atrial-ablation-19a5"},"use":{"coding":[{"system":"http://www.cms.gov/Medicare/Coding/ICD10","code":"02560ZZ","display":"Destruction of Right Atrium, Open Approach"}]}},{"condition":{"reference":"Condition/atrial-fibrillation-flutter-19a7"}},{"condition":{"reference":"Condition/ischemic-stroke-19a8"},"use":{"coding":[{"system":"http://terminology.hl7.org/CodeSystem/diagnosis-role","code":"billing","display":"Billing"}]},"rank":1}]},"request":{"method":"PUT","url":"Encounter/e466e8b0-8754-4574-b755-d92fbe9ca08e"}},{"fullUrl":"https://madie.cms.gov/ServiceRequest/5e309a40ef08fe0000155922","resource":{"resourceType":"ServiceRequest","id":"a484435a-8978-4eb2-9077-b538ac0b4996","meta":{"profile":["http://hl7.org/fhir/us/qicore/StructureDefinition/qicore-servicerequest"]},"status":"active","intent":"order","code":{"coding":[{"system":"http://snomed.info/sct","code":"133918004"}]},"subject":{"reference":"Patient/67622b2b-10f4-44c5-be6e-7f15b78f1464"},"authoredOn":"2025-11-20T08:00:00.000+00:00"},"request":{"method":"PUT","url":"ServiceRequest/a484435a-8978-4eb2-9077-b538ac0b4996"}},{"fullUrl":"https://madie.cms.gov/MedicationRequest/5c953f96b848462de0ae406f","resource":{"resourceType":"MedicationRequest","id":"cdb910f3-f39d-40e2-9075-d30062a2f8fb","meta":{"profile":["http://hl7.org/fhir/us/qicore/StructureDefinition/qicore-mednotrequested"]},"status":"completed","intent":"order","category":[{"coding":[{"system":"http://terminology.hl7.org/CodeSystem/medicationrequest-category","code":"community"}]}],"doNotPerform":true,"medicationCodeableConcept":{"coding":[{"system":"http://www.nlm.nih.gov/research/umls/rxnorm","code":"308351"}]},"subject":{"reference":"Patient/67622b2b-10f4-44c5-be6e-7f15b78f1464"},"authoredOn":"2025-09-07T08:00:00.000+00:00","requester":{"reference":"Practitioner/example"},"reasonCode":[{"coding":[{"system":"http://snomed.info/sct","code":"183966005","display":"Drug treatment not indicated (situation)"}]}]},"request":{"method":"PUT","url":"MedicationRequest/cdb910f3-f39d-40e2-9075-d30062a2f8fb"}},{"fullUrl":"https://madie.cms.gov/MedicationRequest/5e30936eef08fe0000155444","resource":{"resourceType":"MedicationRequest","id":"4d199cfd-d4cc-4914-ad7a-a9b654458d0e","meta":{"profile":["http://hl7.org/fhir/us/qicore/StructureDefinition/qicore-medicationrequest"]},"status":"active","intent":"order","category":[{"coding":[{"system":"http://terminology.hl7.org/CodeSystem/medicationrequest-category","code":"community","display":"Community","userSelected":true}]}],"medicationCodeableConcept":{"coding":[{"system":"http://www.nlm.nih.gov/research/umls/rxnorm","version":"2022-01","code":"1114198","display":"rivaroxaban 10 MG Oral Tablet","userSelected":true}]},"subject":{"reference":"Patient/67622b2b-10f4-44c5-be6e-7f15b78f1464"},"authoredOn":"2025-11-24T08:00:00.000+00:00","requester":{"reference":"Practitioner/example"}},"request":{"method":"PUT","url":"MedicationRequest/4d199cfd-d4cc-4914-ad7a-a9b654458d0e"}},{"fullUrl":"https://madie.cms.gov/Coverage/5f2c53d01c76ba5c996057ad","resource":{"resourceType":"Coverage","id":"2379ea9c-34d4-4192-9b96-16c22f5df06b","status":"active","beneficiary":{"reference":"Patient/67622b2b-10f4-44c5-be6e-7f15b78f1464"},"period":{"start":"1954-05-23T08:00:00.000Z"},"payor":[{"reference":"Organization/4d7da20f-8773-4347-8f6b-80adcdcee1f4"}]},"request":{"method":"PUT","url":"Coverage/2379ea9c-34d4-4192-9b96-16c22f5df06b"}},{"fullUrl":"https://madie.cms.gov/Procedure/5c953f96b848462de0ae4070","resource":{"resourceType":"Procedure","id":"4a737545-3036-4618-97c8-181ade325086","meta":{"profile":["http://hl7.org/fhir/us/qicore/StructureDefinition/qicore-procedure"]},"extension":[{"url":"http://hl7.org/fhir/us/qicore/StructureDefinition/qicore-recorded","valueDateTime":"2025-11-19T09:35:00-04:00"}],"status":"completed","code":{"coding":[{"system":"http://www.cms.gov/Medicare/Coding/ICD10","code":"02560ZZ"},{"system":"http://snomed.info/sct","code":"175095005"}]},"subject":{"reference":"Patient/67622b2b-10f4-44c5-be6e-7f15b78f1464"},"performedPeriod":{"start":"2025-11-20T06:00:00.000Z","end":"2025-11-20T07:15:00.000Z"}},"request":{"method":"PUT","url":"Procedure/4a737545-3036-4618-97c8-181ade325086"}},{"fullUrl":"https://madie.cms.gov/Condition/ischemic-stroke-19a4","resource":{"resourceType":"Condition","id":"b745d288-03aa-46d3-b763-871e3097244f","meta":{"profile":["http://hl7.org/fhir/us/qicore/StructureDefinition/qicore-condition"]},"clinicalStatus":{"coding":[{"system":"http://terminology.hl7.org/CodeSystem/condition-clinical","code":"active"}]},"verificationStatus":{"coding":[{"system":"http://terminology.hl7.org/CodeSystem/condition-ver-status","code":"confirmed"}]},"category":[{"coding":[{"system":"http://terminology.hl7.org/CodeSystem/condition-category","code":"encounter-diagnosis","display":"Encounter Diagnosis"}]}],"code":{"coding":[{"system":"http://snomed.info/sct","version":"2021-09","code":"111297002","display":"Nonparalytic stroke (disorder)","userSelected":true}]},"subject":{"reference":"Patient/67622b2b-10f4-44c5-be6e-7f15b78f1464"},"recordedDate":"2025-10-13T08:00:00.000+00:00"},"request":{"method":"PUT","url":"Condition/b745d288-03aa-46d3-b763-871e3097244f"}},{"fullUrl":"https://madie.cms.gov/Condition/atrial-ablation-19a5","resource":{"resourceType":"Condition","id":"b4684591-5ee7-41fa-9c6b-902cc608b95a","meta":{"profile":["http://hl7.org/fhir/us/qicore/StructureDefinition/qicore-condition"]},"clinicalStatus":{"coding":[{"system":"http://terminology.hl7.org/CodeSystem/condition-clinical","code":"active"}]},"verificationStatus":{"coding":[{"system":"http://terminology.hl7.org/CodeSystem/condition-ver-status","code":"confirmed"}]},"category":[{"coding":[{"system":"http://terminology.hl7.org/CodeSystem/condition-category","code":"encounter-diagnosis","display":"Encounter Diagnosis"}]}],"code":{"coding":[{"system":"http://www.icd10data.com/icd10pcs","version":"2022","code":"02560ZZ","display":"Destruction of Right Atrium, Open Approach","userSelected":true}]},"subject":{"reference":"Patient/67622b2b-10f4-44c5-be6e-7f15b78f1464"},"recordedDate":"2025-10-13T08:00:00.000+00:00"},"request":{"method":"PUT","url":"Condition/b4684591-5ee7-41fa-9c6b-902cc608b95a"}},{"fullUrl":"https://madie.cms.gov/Condition/ischemic-stroke-19a6","resource":{"resourceType":"Condition","id":"9eecb8d8-7d8c-41fd-936c-93ecf5719a37","meta":{"profile":["http://hl7.org/fhir/us/qicore/StructureDefinition/qicore-condition"]},"clinicalStatus":{"coding":[{"system":"http://terminology.hl7.org/CodeSystem/condition-clinical","code":"active"}]},"verificationStatus":{"coding":[{"system":"http://terminology.hl7.org/CodeSystem/condition-ver-status","code":"confirmed"}]},"category":[{"coding":[{"system":"http://terminology.hl7.org/CodeSystem/condition-category","code":"encounter-diagnosis","display":"Encounter Diagnosis"}]}],"code":{"coding":[{"system":"http://snomed.info/sct","version":"2021-09","code":"111297002","display":"Nonparalytic stroke (disorder)","userSelected":true}]},"subject":{"reference":"Patient/67622b2b-10f4-44c5-be6e-7f15b78f1464"},"recordedDate":"2025-10-13T08:00:00.000+00:00"},"request":{"method":"PUT","url":"Condition/9eecb8d8-7d8c-41fd-936c-93ecf5719a37"}},{"fullUrl":"https://madie.cms.gov/Condition/atrial-fibrillation-flutter-19a7","resource":{"resourceType":"Condition","id":"0317a9fa-ccb3-44b8-acd5-ec58410689a6","meta":{"profile":["http://hl7.org/fhir/us/qicore/StructureDefinition/qicore-condition"]},"clinicalStatus":{"coding":[{"system":"http://terminology.hl7.org/CodeSystem/condition-clinical","code":"active"}]},"verificationStatus":{"coding":[{"system":"http://terminology.hl7.org/CodeSystem/condition-ver-status","code":"confirmed"}]},"category":[{"coding":[{"system":"http://terminology.hl7.org/CodeSystem/condition-category","code":"encounter-diagnosis","display":"Encounter Diagnosis"}]}],"code":{"coding":[{"system":"http://snomed.info/sct","version":"2021-09","code":"120041000119109","display":"Atrial fibrillation with rapid ventricular response (disorder)","userSelected":true}]},"subject":{"reference":"Patient/67622b2b-10f4-44c5-be6e-7f15b78f1464"},"recordedDate":"2025-10-13T08:00:00.000+00:00"},"request":{"method":"PUT","url":"Condition/0317a9fa-ccb3-44b8-acd5-ec58410689a6"}},{"fullUrl":"https://madie.cms.gov/Condition/ischemic-stroke-19a8","resource":{"resourceType":"Condition","id":"cbdb8562-8f2e-4fce-98d5-3ee7aebfc2d4","meta":{"profile":["http://hl7.org/fhir/us/qicore/StructureDefinition/qicore-condition"]},"clinicalStatus":{"coding":[{"system":"http://terminology.hl7.org/CodeSystem/condition-clinical","code":"active"}]},"verificationStatus":{"coding":[{"system":"http://terminology.hl7.org/CodeSystem/condition-ver-status","code":"confirmed"}]},"category":[{"coding":[{"system":"http://terminology.hl7.org/CodeSystem/condition-category","code":"encounter-diagnosis","display":"Encounter Diagnosis"}]}],"code":{"coding":[{"system":"http://snomed.info/sct","version":"2021-09","code":"111297002","display":"Nonparalytic stroke (disorder)","userSelected":true}]},"subject":{"reference":"Patient/67622b2b-10f4-44c5-be6e-7f15b78f1464"},"recordedDate":"2025-10-13T08:00:00.000+00:00"},"request":{"method":"PUT","url":"Condition/cbdb8562-8f2e-4fce-98d5-3ee7aebfc2d4"}},{"fullUrl":"https://madie.cms.gov/Organization/123456","resource":{"resourceType":"Organization","id":"4d7da20f-8773-4347-8f6b-80adcdcee1f4","meta":{"profile":["http://hl7.org/fhir/us/qicore/StructureDefinition/qicore-organization"]},"identifier":[{"use":"temp","system":"urn:oid:2.16.840.1.113883.4.4","value":"21-3259825"}],"active":true,"type":[{"coding":[{"system":"http://terminology.hl7.org/CodeSystem/organization-type","code":"pay","display":"Payer"}]}],"name":"Blue Cross Blue Shield of Texas","telecom":[{"system":"phone","value":"(+1) 972-766-6900"}],"address":[{"use":"billing","type":"postal","line":["P.O. Box 660044"],"city":"Dallas","state":"TX","postalCode":"75266-0044","country":"USA"}]},"request":{"method":"PUT","url":"Organization/4d7da20f-8773-4347-8f6b-80adcdcee1f4"}},{"fullUrl":"https://madie.cms.gov/Practitioner/practitioner-123456","resource":{"resourceType":"Practitioner","id":"c28bd584-8c10-4a4d-87f9-862392cd85a6","identifier":[{"system":"http://hl7.org/fhir/sid/us-npi","value":"123456"}],"name":[{"family":"Evil","prefix":["Dr"]}]},"request":{"method":"PUT","url":"Practitioner/c28bd584-8c10-4a4d-87f9-862392cd85a6"}},{"fullUrl":"https://madie.cms.gov/MeasureReport/38a0708e-2a13-44fc-85fc-db27675855b6","resource":{"resourceType":"MeasureReport","id":"38a0708e-2a13-44fc-85fc-db27675855b6","meta":{"profile":["http://hl7.org/fhir/us/cqfmeasures/StructureDefinition/test-case-cqfm"]},"contained":[{"resourceType":"Parameters","id":"10943c08-6fd3-4480-9623-a13db6257ada-parameters","parameter":[{"name":"subject","valueString":"67622b2b-10f4-44c5-be6e-7f15b78f1464"}]}],"extension":[{"url":"http://hl7.org/fhir/us/cqfmeasures/StructureDefinition/cqfm-inputParameters","valueReference":{"reference":"#10943c08-6fd3-4480-9623-a13db6257ada-parameters"}},{"url":"http://hl7.org/fhir/us/cqfmeasures/StructureDefinition/cqfm-testCaseDescription","valueMarkdown":"Pt. discharged on anticoagulant, starts during encounter 1. Encounter 2 has admitting diagnosis with rank 2. Encounter 3 satisfies IPP and Denom. \n"}],"modifierExtension":[{"url":"http://hl7.org/fhir/us/cqfmeasures/StructureDefinition/cqfm-isTestCase","valueBoolean":true}],"status":"complete","type":"individual","measure":"https://madie.cms.gov/Measure/AnticoagulationTherapyforAtrialFibrillationFlutterFHIR","period":{"start":"2025-01-01","end":"2025-12-31"},"group":[{"population":[{"code":{"coding":[{"system":"http://terminology.hl7.org/CodeSystem/measure-population","code":"initial-population","display":"Initial Population"}]},"count":2},{"code":{"coding":[{"system":"http://terminology.hl7.org/CodeSystem/measure-population","code":"denominator","display":"Denominator"}]},"count":2},{"code":{"coding":[{"system":"http://terminology.hl7.org/CodeSystem/measure-population","code":"denominator-exclusion","display":"Denominator Exclusion"}]},"count":1},{"code":{"coding":[{"system":"http://terminology.hl7.org/CodeSystem/measure-population","code":"numerator","display":"Numerator"}]},"count":0},{"code":{"coding":[{"system":"http://terminology.hl7.org/CodeSystem/measure-population","code":"denominator-exception","display":"Denominator Exception"}]},"count":1}]}]},"request":{"method":"PUT","url":"MeasureReport/38a0708e-2a13-44fc-85fc-db27675855b6"}}]}