{"resourceType":"Bundle","id":"tests-5704cb0f-a88b-4df3-b3d3-5438d3de4f6d-bundle","type":"transaction","entry":[{"fullUrl":"https://madie.cms.gov/Patient/5704cb0f-a88b-4df3-b3d3-5438d3de4f6d","resource":{"resourceType":"Patient","id":"5704cb0f-a88b-4df3-b3d3-5438d3de4f6d","meta":{"profile":["http://hl7.org/fhir/us/qicore/StructureDefinition/qicore-patient"]},"text":{"status":"generated","div":"<div xmlns=\"http://www.w3.org/1999/xhtml\"><div class=\"hapiHeaderText\"> CMOdurObs_ED&lt;1hrObs&gt;1hrBFEnc <b>DENEXFAIL </b></div><table class=\"hapiPropertyTable\"><tbody><tr><td>Identifier</td><td>0320cf57e9b83d932334af8e2d508abe</td></tr><tr><td>Date of birth</td><td><span>18 September 1985</span></td></tr></tbody></table></div>"},"extension":[{"url":"http://hl7.org/fhir/us/core/StructureDefinition/us-core-race","extension":[{"url":"ombCategory","valueCoding":{"system":"urn:oid:2.16.840.1.113883.6.238","code":"1002-5","display":"American Indian or Alaska Native","userSelected":true}},{"url":"text","valueString":"American Indian or Alaska Native"}]},{"url":"http://hl7.org/fhir/us/core/StructureDefinition/us-core-ethnicity","extension":[{"url":"ombCategory","valueCoding":{"system":"urn:oid:2.16.840.1.113883.6.238","code":"2135-2","display":"Hispanic or Latino","userSelected":true}},{"url":"text","valueString":"Hispanic or Latino"}]}],"identifier":[{"type":{"coding":[{"system":"http://terminology.hl7.org/CodeSystem/v2-0203","code":"MR"}]},"system":"https://bonnie-fhir.healthit.gov/","value":"633c9d030968f8012250fc7e"}],"active":true,"name":[{"use":"usual","family":"DENEXFail","given":["CMOdurObs_ED<1hrObs>1hrBFEnc"]}],"gender":"female","birthDate":"1985-09-18"},"request":{"method":"PUT","url":"Patient/5704cb0f-a88b-4df3-b3d3-5438d3de4f6d"}},{"fullUrl":"https://madie.cms.gov/Condition/5c953f97b848462de0ae413d","resource":{"resourceType":"Condition","id":"adfbb0ba-3beb-4a4e-8785-eb06d53500cc","meta":{"profile":["http://hl7.org/fhir/us/qicore/StructureDefinition/qicore-condition"]},"clinicalStatus":{"coding":[{"system":"http://terminology.hl7.org/CodeSystem/condition-clinical","code":"inactive","display":"InActive"}]},"verificationStatus":{"coding":[{"system":"http://terminology.hl7.org/CodeSystem/condition-ver-status","code":"confirmed","display":"Confirmed"}]},"category":[{"coding":[{"system":"http://terminology.hl7.org/CodeSystem/condition-category","code":"encounter-diagnosis","display":"Encounter Diagnosis"}]}],"code":{"coding":[{"system":"http://hl7.org/fhir/sid/icd-10-cm","code":"I48.0"},{"system":"http://snomed.info/sct","code":"5370000"}]},"subject":{"reference":"Patient/5704cb0f-a88b-4df3-b3d3-5438d3de4f6d"},"onsetDateTime":"2025-02-11T08:00:00.000Z","abatementDateTime":"2025-02-11T08:15:00.000Z"},"request":{"method":"PUT","url":"Condition/adfbb0ba-3beb-4a4e-8785-eb06d53500cc"}},{"fullUrl":"https://madie.cms.gov/Condition/5c953f97b848462de0ae413e","resource":{"resourceType":"Condition","id":"68a8dd19-817e-40aa-985c-64cd4aebb069","meta":{"profile":["http://hl7.org/fhir/us/qicore/StructureDefinition/qicore-condition"]},"clinicalStatus":{"coding":[{"system":"http://terminology.hl7.org/CodeSystem/condition-clinical","code":"inactive","display":"Inactive"}]},"verificationStatus":{"coding":[{"system":"http://terminology.hl7.org/CodeSystem/condition-ver-status","code":"confirmed","display":"Confirmed"}]},"category":[{"coding":[{"system":"http://terminology.hl7.org/CodeSystem/condition-category","code":"encounter-diagnosis","display":"Encounter Diagnosis"}]}],"code":{"coding":[{"system":"http://hl7.org/fhir/sid/icd-10-cm","code":"I48.0"},{"system":"http://snomed.info/sct","code":"5370000"}]},"subject":{"reference":"Patient/5704cb0f-a88b-4df3-b3d3-5438d3de4f6d"},"onsetDateTime":"2025-10-01T09:00:00.000Z","abatementDateTime":"2025-10-12T08:15:00.000Z"},"request":{"method":"PUT","url":"Condition/68a8dd19-817e-40aa-985c-64cd4aebb069"}},{"fullUrl":"https://madie.cms.gov/Encounter/5c953f97b848462de0ae413f","resource":{"resourceType":"Encounter","id":"53392902-224e-4b7d-a95e-dd79f82d3ecf","meta":{"profile":["http://hl7.org/fhir/us/qicore/StructureDefinition/qicore-encounter"]},"status":"finished","class":{"system":"http://terminology.hl7.org/CodeSystem/v3-ActCode","code":"EMER","display":"emergency"},"type":[{"coding":[{"system":"http://snomed.info/sct","code":"4525004"}]}],"subject":{"reference":"Patient/5704cb0f-a88b-4df3-b3d3-5438d3de4f6d"},"period":{"start":"2025-10-01T09:00:00.000Z","end":"2025-10-01T09:15:00.000Z"},"length":{"value":0,"unit":"days"}},"request":{"method":"PUT","url":"Encounter/53392902-224e-4b7d-a95e-dd79f82d3ecf"}},{"fullUrl":"https://madie.cms.gov/Encounter/5c953f97b848462de0ae4140","resource":{"resourceType":"Encounter","id":"029b5343-89a0-4e04-8fe9-495725cf1949","meta":{"profile":["http://hl7.org/fhir/us/qicore/StructureDefinition/qicore-encounter"]},"status":"finished","class":{"system":"http://terminology.hl7.org/CodeSystem/v3-ActCode","code":"OBSENC","display":"observation encounter"},"type":[{"coding":[{"system":"http://snomed.info/sct","code":"448851000124103"}]}],"subject":{"reference":"Patient/5704cb0f-a88b-4df3-b3d3-5438d3de4f6d"},"period":{"start":"2025-10-01T09:16:00.000Z","end":"2025-10-01T09:30:00.000Z"},"length":{"value":0,"unit":"days"}},"request":{"method":"PUT","url":"Encounter/029b5343-89a0-4e04-8fe9-495725cf1949"}},{"fullUrl":"https://madie.cms.gov/Encounter/5c953f97b848462de0ae4141","resource":{"resourceType":"Encounter","id":"46ed2092-bd41-4208-8404-355c9eb42605","meta":{"profile":["http://hl7.org/fhir/us/qicore/StructureDefinition/qicore-encounter"]},"status":"finished","class":{"system":"http://terminology.hl7.org/CodeSystem/v3-ActCode","code":"IMP","display":"inpatient encounter"},"type":[{"coding":[{"system":"http://snomed.info/sct","code":"32485007"}]}],"subject":{"reference":"Patient/5704cb0f-a88b-4df3-b3d3-5438d3de4f6d"},"period":{"start":"2025-10-01T10:31:00.000Z","end":"2025-10-12T08:15:00.000Z"},"length":{"value":11,"unit":"days"},"diagnosis":[{"condition":{"reference":"Condition/ischemic-stroke-1954"},"use":{"coding":[{"system":"http://terminology.hl7.org/CodeSystem/diagnosis-role","code":"billing","display":"Billing"}]},"rank":1}]},"request":{"method":"PUT","url":"Encounter/46ed2092-bd41-4208-8404-355c9eb42605"}},{"fullUrl":"https://madie.cms.gov/ServiceRequest/5c953f97b848462de0ae4143","resource":{"resourceType":"ServiceRequest","id":"44ad1f99-87e8-48a9-a98f-abcdeedd77a2","meta":{"profile":["http://hl7.org/fhir/us/qicore/StructureDefinition/qicore-servicerequest"]},"status":"active","intent":"order","code":{"coding":[{"system":"http://snomed.info/sct","code":"133918004"}]},"subject":{"reference":"Patient/5704cb0f-a88b-4df3-b3d3-5438d3de4f6d"},"authoredOn":"2025-10-01T09:17:00.000+00:00"},"request":{"method":"PUT","url":"ServiceRequest/44ad1f99-87e8-48a9-a98f-abcdeedd77a2"}},{"fullUrl":"https://madie.cms.gov/Coverage/5f2c53cb1c76ba5c9960571a","resource":{"resourceType":"Coverage","id":"925ce788-8355-4087-982e-f2ecf4d5ff2f","meta":{"profile":["http://hl7.org/fhir/us/qicore/StructureDefinition/qicore-coverage"]},"status":"active","beneficiary":{"reference":"Patient/5704cb0f-a88b-4df3-b3d3-5438d3de4f6d"},"period":{"start":"1985-09-18T08:00:00.000Z"},"payor":[{"reference":"Organization/77e4d06f-5e3c-436a-a598-80cefcca5028"}]},"request":{"method":"PUT","url":"Coverage/925ce788-8355-4087-982e-f2ecf4d5ff2f"}},{"fullUrl":"https://madie.cms.gov/Condition/ischemic-stroke-1954","resource":{"resourceType":"Condition","id":"91e5b547-c71f-437b-b5e5-0fe56ad69c0e","meta":{"profile":["http://hl7.org/fhir/us/qicore/StructureDefinition/qicore-condition"]},"clinicalStatus":{"coding":[{"system":"http://terminology.hl7.org/CodeSystem/condition-clinical","code":"active"}]},"verificationStatus":{"coding":[{"system":"http://terminology.hl7.org/CodeSystem/condition-ver-status","code":"confirmed"}]},"category":[{"coding":[{"system":"http://terminology.hl7.org/CodeSystem/condition-category","code":"encounter-diagnosis","display":"Encounter Diagnosis"}]}],"code":{"coding":[{"system":"http://snomed.info/sct","version":"2021-09","code":"111297002","display":"Nonparalytic stroke (disorder)","userSelected":true}]},"subject":{"reference":"Patient/5704cb0f-a88b-4df3-b3d3-5438d3de4f6d"},"recordedDate":"2025-10-13T08:00:00.000+00:00"},"request":{"method":"PUT","url":"Condition/91e5b547-c71f-437b-b5e5-0fe56ad69c0e"}},{"fullUrl":"https://madie.cms.gov/Organization/123456","resource":{"resourceType":"Organization","id":"77e4d06f-5e3c-436a-a598-80cefcca5028","meta":{"profile":["http://hl7.org/fhir/us/qicore/StructureDefinition/qicore-organization"]},"identifier":[{"use":"temp","system":"urn:oid:2.16.840.1.113883.4.4","value":"21-3259825"}],"active":true,"type":[{"coding":[{"system":"http://terminology.hl7.org/CodeSystem/organization-type","code":"pay","display":"Payer"}]}],"name":"Blue Cross Blue Shield of Texas","telecom":[{"system":"phone","value":"(+1) 972-766-6900"}],"address":[{"use":"billing","type":"postal","line":["P.O. Box 660044"],"city":"Dallas","state":"TX","postalCode":"75266-0044","country":"USA"}]},"request":{"method":"PUT","url":"Organization/77e4d06f-5e3c-436a-a598-80cefcca5028"}},{"fullUrl":"https://madie.cms.gov/MeasureReport/84ca3087-00f2-401e-ae8c-9b57fad0ad8d","resource":{"resourceType":"MeasureReport","id":"84ca3087-00f2-401e-ae8c-9b57fad0ad8d","meta":{"profile":["http://hl7.org/fhir/us/cqfmeasures/StructureDefinition/test-case-cqfm"]},"contained":[{"resourceType":"Parameters","id":"ab89ad77-10b3-4575-8ce6-b7a52e676e36-parameters","parameter":[{"name":"subject","valueString":"5704cb0f-a88b-4df3-b3d3-5438d3de4f6d"}]}],"extension":[{"url":"http://hl7.org/fhir/us/cqfmeasures/StructureDefinition/cqfm-inputParameters","valueReference":{"reference":"#ab89ad77-10b3-4575-8ce6-b7a52e676e36-parameters"}},{"url":"http://hl7.org/fhir/us/cqfmeasures/StructureDefinition/cqfm-testCaseDescription","valueMarkdown":"Patient receives CMO during Observation. ED ends 1 min before Obs start and Obs ends 61 min before inpatient encounter start. Testing HospitalizationWithObservation function.\n"}],"modifierExtension":[{"url":"http://hl7.org/fhir/us/cqfmeasures/StructureDefinition/cqfm-isTestCase","valueBoolean":true}],"status":"complete","type":"individual","measure":"https://madie.cms.gov/Measure/AnticoagulationTherapyforAtrialFibrillationFlutterFHIR","period":{"start":"2025-01-01","end":"2025-12-31"},"group":[{"population":[{"code":{"coding":[{"system":"http://terminology.hl7.org/CodeSystem/measure-population","code":"initial-population","display":"Initial Population"}]},"count":1},{"code":{"coding":[{"system":"http://terminology.hl7.org/CodeSystem/measure-population","code":"denominator","display":"Denominator"}]},"count":1},{"code":{"coding":[{"system":"http://terminology.hl7.org/CodeSystem/measure-population","code":"denominator-exclusion","display":"Denominator Exclusion"}]},"count":0},{"code":{"coding":[{"system":"http://terminology.hl7.org/CodeSystem/measure-population","code":"numerator","display":"Numerator"}]},"count":0},{"code":{"coding":[{"system":"http://terminology.hl7.org/CodeSystem/measure-population","code":"denominator-exception","display":"Denominator Exception"}]},"count":0}]}]},"request":{"method":"PUT","url":"MeasureReport/84ca3087-00f2-401e-ae8c-9b57fad0ad8d"}}]}