{"resourceType":"Bundle","id":"tests-e8df70c5-74a8-4a26-871c-0301bcf9fd45-bundle","type":"transaction","entry":[{"fullUrl":"https://madie.cms.gov/Patient/e8df70c5-74a8-4a26-871c-0301bcf9fd45","resource":{"resourceType":"Patient","id":"e8df70c5-74a8-4a26-871c-0301bcf9fd45","meta":{"profile":["http://hl7.org/fhir/us/qicore/StructureDefinition/qicore-patient"]},"text":{"status":"generated","div":"<div xmlns=\"http://www.w3.org/1999/xhtml\"><div class=\"hapiHeaderText\">DENEXPass CMOdurEnc_ED&lt;1hrNoObsBFEnc <b>DENEXPASS </b></div><table class=\"hapiPropertyTable\"><tbody><tr><td>Identifier</td><td>49d4dc38463db4c2b58eeaff86ecd8cb</td></tr><tr><td>Date of birth</td><td><span>18 September 1985</span></td></tr></tbody></table></div>"},"extension":[{"url":"http://hl7.org/fhir/us/core/StructureDefinition/us-core-race","extension":[{"url":"ombCategory","valueCoding":{"system":"urn:oid:2.16.840.1.113883.6.238","code":"1002-5","display":"American Indian or Alaska Native","userSelected":true}},{"url":"text","valueString":"American Indian or Alaska Native"}]},{"url":"http://hl7.org/fhir/us/core/StructureDefinition/us-core-ethnicity","extension":[{"url":"ombCategory","valueCoding":{"system":"urn:oid:2.16.840.1.113883.6.238","code":"2135-2","display":"Hispanic or Latino","userSelected":true}},{"url":"text","valueString":"Hispanic or Latino"}]}],"identifier":[{"type":{"coding":[{"system":"http://terminology.hl7.org/CodeSystem/v2-0203","code":"MR"}]},"system":"https://bonnie-fhir.healthit.gov/","value":"633c9d030968f8012250fc84"}],"active":true,"name":[{"use":"usual","family":"DENEXPass","given":["DENEXPass CMOdurEnc_ED<1hrNoObsBFEnc"]}],"gender":"female","birthDate":"1985-09-18"},"request":{"method":"PUT","url":"Patient/e8df70c5-74a8-4a26-871c-0301bcf9fd45"}},{"fullUrl":"https://madie.cms.gov/Condition/5c953f97b848462de0ae4109","resource":{"resourceType":"Condition","id":"3ca6ff4b-c172-4cc0-a73f-87e776a8dee4","meta":{"profile":["http://hl7.org/fhir/us/qicore/StructureDefinition/qicore-condition"]},"clinicalStatus":{"coding":[{"system":"http://terminology.hl7.org/CodeSystem/condition-clinical","code":"inactive"}]},"verificationStatus":{"coding":[{"system":"http://terminology.hl7.org/CodeSystem/condition-ver-status","code":"confirmed"}]},"category":[{"coding":[{"system":"http://terminology.hl7.org/CodeSystem/condition-category","code":"encounter-diagnosis","display":"Encounter Diagnosis"}]}],"code":{"coding":[{"system":"http://hl7.org/fhir/sid/icd-10-cm","code":"I48.20"},{"system":"http://hl7.org/fhir/sid/icd-10-cm","code":"I48.0"},{"system":"http://snomed.info/sct","code":"5370000"}]},"subject":{"reference":"Patient/e8df70c5-74a8-4a26-871c-0301bcf9fd45"},"onsetDateTime":"2025-10-01T09:00:00.000Z","abatementDateTime":"2025-10-12T00:15:00.000Z"},"request":{"method":"PUT","url":"Condition/3ca6ff4b-c172-4cc0-a73f-87e776a8dee4"}},{"fullUrl":"https://madie.cms.gov/Encounter/5c953f97b848462de0ae410a","resource":{"resourceType":"Encounter","id":"51ac26d1-202b-4d07-8dc3-bbbff2c0cf2a","meta":{"profile":["http://hl7.org/fhir/us/qicore/StructureDefinition/qicore-encounter"]},"status":"finished","class":{"system":"http://terminology.hl7.org/CodeSystem/v3-ActCode","code":"EMER","display":"emergency"},"type":[{"coding":[{"system":"http://snomed.info/sct","code":"4525004"}]}],"subject":{"reference":"Patient/e8df70c5-74a8-4a26-871c-0301bcf9fd45"},"period":{"start":"2025-10-01T09:00:00.000Z","end":"2025-10-01T11:00:00.000Z"},"length":{"value":0,"unit":"days"}},"request":{"method":"PUT","url":"Encounter/51ac26d1-202b-4d07-8dc3-bbbff2c0cf2a"}},{"fullUrl":"https://madie.cms.gov/Encounter/5c953f97b848462de0ae410b","resource":{"resourceType":"Encounter","id":"78fdb7c5-a20b-4327-b793-998971792d19","meta":{"profile":["http://hl7.org/fhir/us/qicore/StructureDefinition/qicore-encounter"]},"status":"finished","class":{"system":"http://terminology.hl7.org/CodeSystem/v3-ActCode","code":"IMP","display":"inpatient encounter"},"type":[{"coding":[{"system":"http://snomed.info/sct","code":"32485007"}]}],"subject":{"reference":"Patient/e8df70c5-74a8-4a26-871c-0301bcf9fd45"},"period":{"start":"2025-10-01T11:59:00.000Z","end":"2025-10-12T00:15:00.000Z"},"length":{"value":11,"unit":"days"},"diagnosis":[{"condition":{"reference":"Condition/ischemic-stroke-196e"},"use":{"coding":[{"system":"http://terminology.hl7.org/CodeSystem/diagnosis-role","code":"billing","display":"Billing"}]},"rank":1}]},"request":{"method":"PUT","url":"Encounter/78fdb7c5-a20b-4327-b793-998971792d19"}},{"fullUrl":"https://madie.cms.gov/ServiceRequest/5c953f97b848462de0ae410d","resource":{"resourceType":"ServiceRequest","id":"1705461a-f42c-4644-9303-465f01b6894b","meta":{"profile":["http://hl7.org/fhir/us/qicore/StructureDefinition/qicore-servicerequest"]},"status":"active","intent":"order","code":{"coding":[{"system":"http://snomed.info/sct","code":"133918004"}]},"subject":{"reference":"Patient/e8df70c5-74a8-4a26-871c-0301bcf9fd45"},"authoredOn":"2025-10-01T11:30:00.000+00:00"},"request":{"method":"PUT","url":"ServiceRequest/1705461a-f42c-4644-9303-465f01b6894b"}},{"fullUrl":"https://madie.cms.gov/Coverage/5f2c53cb1c76ba5c9960572c","resource":{"resourceType":"Coverage","id":"824a2cb2-983c-43cd-9103-b82a2b88daa2","status":"active","beneficiary":{"reference":"Patient/e8df70c5-74a8-4a26-871c-0301bcf9fd45"},"period":{"start":"1985-09-18T08:00:00.000Z"},"payor":[{"reference":"Organization/9e9b3f13-a353-4173-b29b-947d6f1f2031"}]},"request":{"method":"PUT","url":"Coverage/824a2cb2-983c-43cd-9103-b82a2b88daa2"}},{"fullUrl":"https://madie.cms.gov/Condition/ischemic-stroke-196e","resource":{"resourceType":"Condition","id":"febd48c4-a45d-41a5-b002-a81bd3475761","meta":{"profile":["http://hl7.org/fhir/us/qicore/StructureDefinition/qicore-condition"]},"clinicalStatus":{"coding":[{"system":"http://terminology.hl7.org/CodeSystem/condition-clinical","code":"active"}]},"verificationStatus":{"coding":[{"system":"http://terminology.hl7.org/CodeSystem/condition-ver-status","code":"confirmed"}]},"category":[{"coding":[{"system":"http://terminology.hl7.org/CodeSystem/condition-category","code":"encounter-diagnosis","display":"Encounter Diagnosis"}]}],"code":{"coding":[{"system":"http://snomed.info/sct","version":"2021-09","code":"111297002","display":"Nonparalytic stroke (disorder)","userSelected":true}]},"subject":{"reference":"Patient/e8df70c5-74a8-4a26-871c-0301bcf9fd45"},"recordedDate":"2025-10-13T08:00:00.000+00:00"},"request":{"method":"PUT","url":"Condition/febd48c4-a45d-41a5-b002-a81bd3475761"}},{"fullUrl":"https://madie.cms.gov/Organization/123456","resource":{"resourceType":"Organization","id":"9e9b3f13-a353-4173-b29b-947d6f1f2031","meta":{"profile":["http://hl7.org/fhir/us/qicore/StructureDefinition/qicore-organization"]},"identifier":[{"use":"temp","system":"urn:oid:2.16.840.1.113883.4.4","value":"21-3259825"}],"active":true,"type":[{"coding":[{"system":"http://terminology.hl7.org/CodeSystem/organization-type","code":"pay","display":"Payer"}]}],"name":"Blue Cross Blue Shield of Texas","telecom":[{"system":"phone","value":"(+1) 972-766-6900"}],"address":[{"use":"billing","type":"postal","line":["P.O. Box 660044"],"city":"Dallas","state":"TX","postalCode":"75266-0044","country":"USA"}]},"request":{"method":"PUT","url":"Organization/9e9b3f13-a353-4173-b29b-947d6f1f2031"}},{"fullUrl":"https://madie.cms.gov/Practitioner/practitioner-123456","resource":{"resourceType":"Practitioner","id":"ccce09e7-e7ce-4b0d-80ca-1a00d4c46f6a","identifier":[{"system":"http://hl7.org/fhir/sid/us-npi","value":"123456"}],"name":[{"family":"Evil","prefix":["Dr"]}]},"request":{"method":"PUT","url":"Practitioner/ccce09e7-e7ce-4b0d-80ca-1a00d4c46f6a"}},{"fullUrl":"https://madie.cms.gov/MeasureReport/cc574094-d8ed-410b-9b9a-a165454f161c","resource":{"resourceType":"MeasureReport","id":"cc574094-d8ed-410b-9b9a-a165454f161c","meta":{"profile":["http://hl7.org/fhir/us/cqfmeasures/StructureDefinition/test-case-cqfm"]},"contained":[{"resourceType":"Parameters","id":"cc413eff-9721-44c1-8118-d96b8e830ddb-parameters","parameter":[{"name":"subject","valueString":"e8df70c5-74a8-4a26-871c-0301bcf9fd45"}]}],"extension":[{"url":"http://hl7.org/fhir/us/cqfmeasures/StructureDefinition/cqfm-inputParameters","valueReference":{"reference":"#cc413eff-9721-44c1-8118-d96b8e830ddb-parameters"}},{"url":"http://hl7.org/fhir/us/cqfmeasures/StructureDefinition/cqfm-testCaseDescription","valueMarkdown":"Patient receives CMO during inpatient encounter. ED starts 59 minutes before inpatient encounter start on the same day. No Observation. Testing day of operator with HospitalizationWithObservation function.\n"}],"modifierExtension":[{"url":"http://hl7.org/fhir/us/cqfmeasures/StructureDefinition/cqfm-isTestCase","valueBoolean":true}],"status":"complete","type":"individual","measure":"https://madie.cms.gov/Measure/AnticoagulationTherapyforAtrialFibrillationFlutterFHIR","period":{"start":"2025-01-01","end":"2025-12-31"},"group":[{"population":[{"code":{"coding":[{"system":"http://terminology.hl7.org/CodeSystem/measure-population","code":"initial-population","display":"Initial Population"}]},"count":1},{"code":{"coding":[{"system":"http://terminology.hl7.org/CodeSystem/measure-population","code":"denominator","display":"Denominator"}]},"count":1},{"code":{"coding":[{"system":"http://terminology.hl7.org/CodeSystem/measure-population","code":"denominator-exclusion","display":"Denominator Exclusion"}]},"count":1},{"code":{"coding":[{"system":"http://terminology.hl7.org/CodeSystem/measure-population","code":"numerator","display":"Numerator"}]},"count":0},{"code":{"coding":[{"system":"http://terminology.hl7.org/CodeSystem/measure-population","code":"denominator-exception","display":"Denominator Exception"}]},"count":0}]}]},"request":{"method":"PUT","url":"MeasureReport/cc574094-d8ed-410b-9b9a-a165454f161c"}}]}