{"resourceType":"Bundle","id":"tests-cec2b099-7f6d-4260-a2f8-bc0ed0b9c3e5-bundle","type":"transaction","entry":[{"fullUrl":"https://madie.cms.gov/Patient/cec2b099-7f6d-4260-a2f8-bc0ed0b9c3e5","resource":{"resourceType":"Patient","id":"cec2b099-7f6d-4260-a2f8-bc0ed0b9c3e5","meta":{"profile":["http://hl7.org/fhir/us/qicore/StructureDefinition/qicore-patient"]},"text":{"status":"generated","div":"<div xmlns=\"http://www.w3.org/1999/xhtml\"><div class=\"hapiHeaderText\">NoDCstatus <b>DENEXFAIL </b></div><table class=\"hapiPropertyTable\"><tbody><tr><td>Identifier</td><td>a1386c36da1b287caf9fd1b8d75c10d3</td></tr><tr><td>Date of birth</td><td><span>31 July 1969</span></td></tr></tbody></table></div>"},"extension":[{"url":"http://hl7.org/fhir/us/core/StructureDefinition/us-core-race","extension":[{"url":"ombCategory","valueCoding":{"system":"urn:oid:2.16.840.1.113883.6.238","code":"1002-5","display":"American Indian or Alaska Native","userSelected":true}},{"url":"text","valueString":"American Indian or Alaska Native"}]},{"url":"http://hl7.org/fhir/us/core/StructureDefinition/us-core-ethnicity","extension":[{"url":"ombCategory","valueCoding":{"system":"urn:oid:2.16.840.1.113883.6.238","code":"2135-2","display":"Hispanic or Latino","userSelected":true}},{"url":"text","valueString":"Hispanic or Latino"}]}],"identifier":[{"type":{"coding":[{"system":"http://terminology.hl7.org/CodeSystem/v2-0203","code":"MR"}]},"system":"https://bonnie-fhir.healthit.gov/","value":"633c9d020968f8012250fc67"}],"active":true,"name":[{"use":"usual","family":"DENEXFail","given":["NoDCstatus"]}],"gender":"male","birthDate":"1969-07-31"},"request":{"method":"PUT","url":"Patient/cec2b099-7f6d-4260-a2f8-bc0ed0b9c3e5"}},{"fullUrl":"https://madie.cms.gov/Encounter/5c953f96b848462de0ae4071","resource":{"resourceType":"Encounter","id":"375d4ded-7727-4cbe-a36f-37cb76b96cbb","meta":{"profile":["http://hl7.org/fhir/us/qicore/StructureDefinition/qicore-encounter"]},"status":"finished","class":{"system":"http://terminology.hl7.org/CodeSystem/v3-ActCode","code":"EMER","display":"emergency"},"type":[{"coding":[{"system":"http://snomed.info/sct","code":"4525004"}]}],"subject":{"reference":"Patient/cec2b099-7f6d-4260-a2f8-bc0ed0b9c3e5"},"period":{"start":"2025-11-20T07:00:00.000Z","end":"2025-11-20T07:45:00.000Z"},"length":{"value":0,"unit":"days"}},"request":{"method":"PUT","url":"Encounter/375d4ded-7727-4cbe-a36f-37cb76b96cbb"}},{"fullUrl":"https://madie.cms.gov/Encounter/5c953f96b848462de0ae4072","resource":{"resourceType":"Encounter","id":"110941a9-dffd-4d3e-ae61-7f170f5129f0","meta":{"profile":["http://hl7.org/fhir/us/qicore/StructureDefinition/qicore-encounter"]},"status":"finished","class":{"system":"http://terminology.hl7.org/CodeSystem/v3-ActCode","code":"IMP","display":"inpatient encounter"},"type":[{"coding":[{"system":"http://snomed.info/sct","code":"32485007"}]}],"subject":{"reference":"Patient/cec2b099-7f6d-4260-a2f8-bc0ed0b9c3e5"},"period":{"start":"2025-11-20T08:00:00.000Z","end":"2025-11-24T08:15:00.000Z"},"length":{"value":4,"unit":"days"},"diagnosis":[{"condition":{"reference":"Condition/ischemic-stroke-195b"},"use":{"coding":[{"system":"http://terminology.hl7.org/CodeSystem/diagnosis-role","code":"billing","display":"Billing"}]},"rank":1}]},"request":{"method":"PUT","url":"Encounter/110941a9-dffd-4d3e-ae61-7f170f5129f0"}},{"fullUrl":"https://madie.cms.gov/Coverage/5f2c53c81c76ba5c996056d5","resource":{"resourceType":"Coverage","id":"5d73193c-2b0e-4d29-bb51-c48e50bc6866","status":"active","beneficiary":{"reference":"Patient/cec2b099-7f6d-4260-a2f8-bc0ed0b9c3e5"},"period":{"start":"1969-07-31T08:00:00.000Z"},"payor":[{"reference":"Organization/5224cb12-ed64-4d6d-ab28-40a64f0800f1"}]},"request":{"method":"PUT","url":"Coverage/5d73193c-2b0e-4d29-bb51-c48e50bc6866"}},{"fullUrl":"https://madie.cms.gov/Procedure/5c953f96b848462de0ae4074","resource":{"resourceType":"Procedure","id":"358e49f1-2a9c-4c2d-b449-beb16d7000ee","meta":{"profile":["http://hl7.org/fhir/us/qicore/StructureDefinition/qicore-procedure"]},"extension":[{"url":"http://hl7.org/fhir/us/qicore/StructureDefinition/qicore-recorded","valueDateTime":"2025-11-19T09:35:00-04:00"}],"status":"completed","code":{"coding":[{"system":"http://www.cms.gov/Medicare/Coding/ICD10","code":"02560ZZ"},{"system":"http://snomed.info/sct","code":"175095005"}]},"subject":{"reference":"Patient/cec2b099-7f6d-4260-a2f8-bc0ed0b9c3e5"},"performedPeriod":{"start":"2025-11-19T08:00:00.000Z","end":"2025-11-20T08:15:00.000Z"}},"request":{"method":"PUT","url":"Procedure/358e49f1-2a9c-4c2d-b449-beb16d7000ee"}},{"fullUrl":"https://madie.cms.gov/Condition/ischemic-stroke-195b","resource":{"resourceType":"Condition","id":"65486fbe-3a9c-410e-a81c-488c64e3c10c","meta":{"profile":["http://hl7.org/fhir/us/qicore/StructureDefinition/qicore-condition"]},"clinicalStatus":{"coding":[{"system":"http://terminology.hl7.org/CodeSystem/condition-clinical","code":"active"}]},"verificationStatus":{"coding":[{"system":"http://terminology.hl7.org/CodeSystem/condition-ver-status","code":"confirmed"}]},"category":[{"coding":[{"system":"http://terminology.hl7.org/CodeSystem/condition-category","code":"encounter-diagnosis","display":"Encounter Diagnosis"}]}],"code":{"coding":[{"system":"http://snomed.info/sct","version":"2021-09","code":"111297002","display":"Nonparalytic stroke (disorder)","userSelected":true}]},"subject":{"reference":"Patient/cec2b099-7f6d-4260-a2f8-bc0ed0b9c3e5"},"recordedDate":"2025-10-13T08:00:00.000+00:00"},"request":{"method":"PUT","url":"Condition/65486fbe-3a9c-410e-a81c-488c64e3c10c"}},{"fullUrl":"https://madie.cms.gov/Organization/123456","resource":{"resourceType":"Organization","id":"5224cb12-ed64-4d6d-ab28-40a64f0800f1","meta":{"profile":["http://hl7.org/fhir/us/qicore/StructureDefinition/qicore-organization"]},"identifier":[{"use":"temp","system":"urn:oid:2.16.840.1.113883.4.4","value":"21-3259825"}],"active":true,"type":[{"coding":[{"system":"http://terminology.hl7.org/CodeSystem/organization-type","code":"pay","display":"Payer"}]}],"name":"Blue Cross Blue Shield of Texas","telecom":[{"system":"phone","value":"(+1) 972-766-6900"}],"address":[{"use":"billing","type":"postal","line":["P.O. Box 660044"],"city":"Dallas","state":"TX","postalCode":"75266-0044","country":"USA"}]},"request":{"method":"PUT","url":"Organization/5224cb12-ed64-4d6d-ab28-40a64f0800f1"}},{"fullUrl":"https://madie.cms.gov/Practitioner/practitioner-123456","resource":{"resourceType":"Practitioner","id":"27b42123-d54d-4dec-a781-c1fa2417840c","identifier":[{"system":"http://hl7.org/fhir/sid/us-npi","value":"123456"}],"name":[{"family":"Evil","prefix":["Dr"]}]},"request":{"method":"PUT","url":"Practitioner/27b42123-d54d-4dec-a781-c1fa2417840c"}},{"fullUrl":"https://madie.cms.gov/MeasureReport/f2908715-e341-4d5d-94cd-99d46af9c37d","resource":{"resourceType":"MeasureReport","id":"f2908715-e341-4d5d-94cd-99d46af9c37d","meta":{"profile":["http://hl7.org/fhir/us/cqfmeasures/StructureDefinition/test-case-cqfm"]},"contained":[{"resourceType":"Parameters","id":"3653549a-1b3a-4395-b459-37aad89d074f-parameters","parameter":[{"name":"subject","valueString":"cec2b099-7f6d-4260-a2f8-bc0ed0b9c3e5"}]}],"extension":[{"url":"http://hl7.org/fhir/us/cqfmeasures/StructureDefinition/cqfm-inputParameters","valueReference":{"reference":"#3653549a-1b3a-4395-b459-37aad89d074f-parameters"}},{"url":"http://hl7.org/fhir/us/cqfmeasures/StructureDefinition/cqfm-testCaseDescription","valueMarkdown":"No discharge status indicated. Testing DENEX logic (intentional fail). \n"}],"modifierExtension":[{"url":"http://hl7.org/fhir/us/cqfmeasures/StructureDefinition/cqfm-isTestCase","valueBoolean":true}],"status":"complete","type":"individual","measure":"https://madie.cms.gov/Measure/AnticoagulationTherapyforAtrialFibrillationFlutterFHIR","period":{"start":"2025-01-01","end":"2025-12-31"},"group":[{"population":[{"code":{"coding":[{"system":"http://terminology.hl7.org/CodeSystem/measure-population","code":"initial-population","display":"Initial Population"}]},"count":1},{"code":{"coding":[{"system":"http://terminology.hl7.org/CodeSystem/measure-population","code":"denominator","display":"Denominator"}]},"count":1},{"code":{"coding":[{"system":"http://terminology.hl7.org/CodeSystem/measure-population","code":"denominator-exclusion","display":"Denominator Exclusion"}]},"count":0},{"code":{"coding":[{"system":"http://terminology.hl7.org/CodeSystem/measure-population","code":"numerator","display":"Numerator"}]},"count":0},{"code":{"coding":[{"system":"http://terminology.hl7.org/CodeSystem/measure-population","code":"denominator-exception","display":"Denominator Exception"}]},"count":0}]}]},"request":{"method":"PUT","url":"MeasureReport/f2908715-e341-4d5d-94cd-99d46af9c37d"}}]}