{"resourceType":"Bundle","id":"tests-a8856231-e110-4811-ac95-3f65c3d440fa-bundle","type":"transaction","entry":[{"fullUrl":"https://madie.cms.gov/Patient/a8856231-e110-4811-ac95-3f65c3d440fa","resource":{"resourceType":"Patient","id":"a8856231-e110-4811-ac95-3f65c3d440fa","meta":{"profile":["http://hl7.org/fhir/us/qicore/StructureDefinition/qicore-patient"]},"text":{"status":"generated","div":"<div xmlns=\"http://www.w3.org/1999/xhtml\"><div class=\"hapiHeaderText\">CMOdurED_ED&lt;1hrObs&lt;1hrBFEnc <b>DENEXPASS </b></div><table class=\"hapiPropertyTable\"><tbody><tr><td>Identifier</td><td>0b5c2e2db5c7f9518d6eb2bf44cd7df8817ff6b8521c862f9878d999f0ab28a2</td></tr><tr><td>Date of birth</td><td><span>18 September 1985</span></td></tr></tbody></table></div>"},"extension":[{"url":"http://hl7.org/fhir/us/core/StructureDefinition/us-core-race","extension":[{"url":"ombCategory","valueCoding":{"system":"urn:oid:2.16.840.1.113883.6.238","code":"1002-5","display":"American Indian or Alaska Native","userSelected":true}},{"url":"text","valueString":"American Indian or Alaska Native"}]},{"url":"http://hl7.org/fhir/us/core/StructureDefinition/us-core-ethnicity","extension":[{"url":"ombCategory","valueCoding":{"system":"urn:oid:2.16.840.1.113883.6.238","code":"2135-2","display":"Hispanic or Latino","userSelected":true}},{"url":"text","valueString":"Hispanic or Latino"}]}],"identifier":[{"type":{"coding":[{"system":"http://terminology.hl7.org/CodeSystem/v2-0203","code":"MR"}]},"system":"https://bonnie-fhir.healthit.gov/","value":"633c9d040968f8012250fca4"}],"active":true,"name":[{"use":"usual","family":"DENEXPass","given":["CMOdurED_ED<1hrObs<1hrBFEnc"]}],"gender":"female","birthDate":"1985-09-18"},"request":{"method":"PUT","url":"Patient/a8856231-e110-4811-ac95-3f65c3d440fa"}},{"fullUrl":"https://madie.cms.gov/Condition/5c953f97b848462de0ae414f","resource":{"resourceType":"Condition","id":"24e42048-0e32-4b98-9b8a-c08bdbe3a267","meta":{"profile":["http://hl7.org/fhir/us/qicore/StructureDefinition/qicore-condition"]},"clinicalStatus":{"coding":[{"system":"http://terminology.hl7.org/CodeSystem/condition-clinical","code":"inactive"}]},"verificationStatus":{"coding":[{"system":"http://terminology.hl7.org/CodeSystem/condition-ver-status","code":"confirmed"}]},"category":[{"coding":[{"system":"http://terminology.hl7.org/CodeSystem/condition-category","code":"encounter-diagnosis","display":"Encounter Diagnosis"}]}],"code":{"coding":[{"system":"http://hl7.org/fhir/sid/icd-10-cm","code":"I48.20"},{"system":"http://hl7.org/fhir/sid/icd-10-cm","code":"I48.0"},{"system":"http://snomed.info/sct","code":"5370000"}]},"subject":{"reference":"Patient/a8856231-e110-4811-ac95-3f65c3d440fa"},"onsetDateTime":"2025-10-01T09:00:00.000Z","abatementDateTime":"2025-10-12T00:15:00.000Z"},"request":{"method":"PUT","url":"Condition/24e42048-0e32-4b98-9b8a-c08bdbe3a267"}},{"fullUrl":"https://madie.cms.gov/Encounter/5c953f97b848462de0ae4150","resource":{"resourceType":"Encounter","id":"fe3fc5f2-9ff7-4e53-aad2-71af93bb255b","meta":{"profile":["http://hl7.org/fhir/us/qicore/StructureDefinition/qicore-encounter"]},"status":"finished","class":{"system":"http://terminology.hl7.org/CodeSystem/v3-ActCode","code":"EMER","display":"emergency"},"type":[{"coding":[{"system":"http://snomed.info/sct","code":"4525004"}]}],"subject":{"reference":"Patient/a8856231-e110-4811-ac95-3f65c3d440fa"},"period":{"start":"2025-09-30T07:59:00.000Z","end":"2025-09-30T09:00:00.000Z"},"length":{"value":0,"unit":"days"}},"request":{"method":"PUT","url":"Encounter/fe3fc5f2-9ff7-4e53-aad2-71af93bb255b"}},{"fullUrl":"https://madie.cms.gov/Encounter/5c953f97b848462de0ae4151","resource":{"resourceType":"Encounter","id":"50f5021a-cf95-42b3-a7bd-a812ef18ae96","meta":{"profile":["http://hl7.org/fhir/us/qicore/StructureDefinition/qicore-encounter"]},"status":"finished","class":{"system":"http://terminology.hl7.org/CodeSystem/v3-ActCode","code":"OBSENC","display":"observation encounter"},"type":[{"coding":[{"system":"http://snomed.info/sct","code":"448851000124103"}]}],"subject":{"reference":"Patient/a8856231-e110-4811-ac95-3f65c3d440fa"},"period":{"start":"2025-09-30T09:01:00.000Z","end":"2025-09-30T09:05:00.000Z"},"length":{"value":0,"unit":"days"}},"request":{"method":"PUT","url":"Encounter/50f5021a-cf95-42b3-a7bd-a812ef18ae96"}},{"fullUrl":"https://madie.cms.gov/Encounter/5c953f97b848462de0ae4152","resource":{"resourceType":"Encounter","id":"bffa19d2-629b-46df-9dd0-d326ab700e4d","meta":{"profile":["http://hl7.org/fhir/us/qicore/StructureDefinition/qicore-encounter"]},"status":"finished","class":{"system":"http://terminology.hl7.org/CodeSystem/v3-ActCode","code":"IMP","display":"inpatient encounter"},"type":[{"coding":[{"system":"http://snomed.info/sct","code":"32485007"}]}],"subject":{"reference":"Patient/a8856231-e110-4811-ac95-3f65c3d440fa"},"period":{"start":"2025-09-30T09:06:00.000Z","end":"2025-10-12T00:15:00.000Z"},"length":{"value":12,"unit":"days"},"diagnosis":[{"condition":{"reference":"Condition/ischemic-stroke-1956"},"use":{"coding":[{"system":"http://terminology.hl7.org/CodeSystem/diagnosis-role","code":"billing","display":"Billing"}]},"rank":1}]},"request":{"method":"PUT","url":"Encounter/bffa19d2-629b-46df-9dd0-d326ab700e4d"}},{"fullUrl":"https://madie.cms.gov/Condition/ischemic-stroke-1956","resource":{"resourceType":"Condition","id":"f3b83be6-12aa-4080-8569-b2f6087dad08","meta":{"profile":["http://hl7.org/fhir/us/qicore/StructureDefinition/qicore-condition"]},"clinicalStatus":{"coding":[{"system":"http://terminology.hl7.org/CodeSystem/condition-clinical","code":"active"}]},"verificationStatus":{"coding":[{"system":"http://terminology.hl7.org/CodeSystem/condition-ver-status","code":"confirmed"}]},"category":[{"coding":[{"system":"http://terminology.hl7.org/CodeSystem/condition-category","code":"encounter-diagnosis","display":"Encounter Diagnosis"}]}],"code":{"coding":[{"system":"http://snomed.info/sct","version":"2021-09","code":"111297002","display":"Nonparalytic stroke (disorder)","userSelected":true}]},"subject":{"reference":"Patient/a8856231-e110-4811-ac95-3f65c3d440fa"},"recordedDate":"2025-09-30T09:06:00.000Z"},"request":{"method":"PUT","url":"Condition/f3b83be6-12aa-4080-8569-b2f6087dad08"}},{"fullUrl":"https://madie.cms.gov/ServiceRequest/5c953f97b848462de0ae4154","resource":{"resourceType":"ServiceRequest","id":"41479c67-7707-49bd-b492-d8e399d8d5f7","meta":{"profile":["http://hl7.org/fhir/us/qicore/StructureDefinition/qicore-servicerequest"]},"status":"active","intent":"order","code":{"coding":[{"system":"http://snomed.info/sct","code":"133918004"}]},"subject":{"reference":"Patient/a8856231-e110-4811-ac95-3f65c3d440fa"},"authoredOn":"2025-09-30T08:01:00.000+00:00"},"request":{"method":"PUT","url":"ServiceRequest/41479c67-7707-49bd-b492-d8e399d8d5f7"}},{"fullUrl":"https://madie.cms.gov/Coverage/5f2c53cf1c76ba5c9960578c","resource":{"resourceType":"Coverage","id":"eca4b33a-c407-4c86-b0d1-97f9473b938c","status":"active","beneficiary":{"reference":"Patient/a8856231-e110-4811-ac95-3f65c3d440fa"},"period":{"start":"1985-09-18T08:00:00.000Z"},"payor":[{"reference":"Organization/806b0255-13cb-4f2b-9412-571554dd2169"}]},"request":{"method":"PUT","url":"Coverage/eca4b33a-c407-4c86-b0d1-97f9473b938c"}},{"fullUrl":"https://madie.cms.gov/Organization/123456","resource":{"resourceType":"Organization","id":"806b0255-13cb-4f2b-9412-571554dd2169","meta":{"profile":["http://hl7.org/fhir/us/qicore/StructureDefinition/qicore-organization"]},"identifier":[{"use":"temp","system":"urn:oid:2.16.840.1.113883.4.4","value":"21-3259825"}],"active":true,"type":[{"coding":[{"system":"http://terminology.hl7.org/CodeSystem/organization-type","code":"pay","display":"Payer"}]}],"name":"Blue Cross Blue Shield of Texas","telecom":[{"system":"phone","value":"(+1) 972-766-6900"}],"address":[{"use":"billing","type":"postal","line":["P.O. Box 660044"],"city":"Dallas","state":"TX","postalCode":"75266-0044","country":"USA"}]},"request":{"method":"PUT","url":"Organization/806b0255-13cb-4f2b-9412-571554dd2169"}},{"fullUrl":"https://madie.cms.gov/Practitioner/practitioner-123456","resource":{"resourceType":"Practitioner","id":"1e7f5379-b68f-49d0-84cc-637440374cd2","identifier":[{"system":"http://hl7.org/fhir/sid/us-npi","value":"123456"}],"name":[{"family":"Evil","prefix":["Dr"]}]},"request":{"method":"PUT","url":"Practitioner/1e7f5379-b68f-49d0-84cc-637440374cd2"}},{"fullUrl":"https://madie.cms.gov/MeasureReport/1c7ba90f-cb95-4fac-ad7a-305074992c94","resource":{"resourceType":"MeasureReport","id":"1c7ba90f-cb95-4fac-ad7a-305074992c94","meta":{"profile":["http://hl7.org/fhir/us/cqfmeasures/StructureDefinition/test-case-cqfm"]},"contained":[{"resourceType":"Parameters","id":"9590d19b-22bb-41c6-869a-80a1da523fb9-parameters","parameter":[{"name":"subject","valueString":"a8856231-e110-4811-ac95-3f65c3d440fa"}]}],"extension":[{"url":"http://hl7.org/fhir/us/cqfmeasures/StructureDefinition/cqfm-inputParameters","valueReference":{"reference":"#9590d19b-22bb-41c6-869a-80a1da523fb9-parameters"}},{"url":"http://hl7.org/fhir/us/cqfmeasures/StructureDefinition/cqfm-testCaseDescription","valueMarkdown":"Patient receives CMO during ED. ED ends 1 min before Obs start and Obs ends 1 min before inpatient start.  Testing HospitalizationWithObservation function\n"}],"modifierExtension":[{"url":"http://hl7.org/fhir/us/cqfmeasures/StructureDefinition/cqfm-isTestCase","valueBoolean":true}],"status":"complete","type":"individual","measure":"https://madie.cms.gov/Measure/AnticoagulationTherapyforAtrialFibrillationFlutterFHIR","period":{"start":"2025-01-01","end":"2025-12-31"},"group":[{"population":[{"code":{"coding":[{"system":"http://terminology.hl7.org/CodeSystem/measure-population","code":"initial-population","display":"Initial Population"}]},"count":1},{"code":{"coding":[{"system":"http://terminology.hl7.org/CodeSystem/measure-population","code":"denominator","display":"Denominator"}]},"count":1},{"code":{"coding":[{"system":"http://terminology.hl7.org/CodeSystem/measure-population","code":"denominator-exclusion","display":"Denominator Exclusion"}]},"count":1},{"code":{"coding":[{"system":"http://terminology.hl7.org/CodeSystem/measure-population","code":"numerator","display":"Numerator"}]},"count":0},{"code":{"coding":[{"system":"http://terminology.hl7.org/CodeSystem/measure-population","code":"denominator-exception","display":"Denominator Exception"}]},"count":0}]}]},"request":{"method":"PUT","url":"MeasureReport/1c7ba90f-cb95-4fac-ad7a-305074992c94"}}]}