{"resourceType":"Bundle","id":"tests-d9dc15b7-bf03-4b72-8dd5-3e4db21f052d-bundle","type":"transaction","entry":[{"fullUrl":"https://madie.cms.gov/Patient/d9dc15b7-bf03-4b72-8dd5-3e4db21f052d","resource":{"resourceType":"Patient","id":"d9dc15b7-bf03-4b72-8dd5-3e4db21f052d","meta":{"profile":["http://hl7.org/fhir/us/qicore/StructureDefinition/qicore-patient"]},"text":{"status":"generated","div":"<div xmlns=\"http://www.w3.org/1999/xhtml\"><div class=\"hapiHeaderText\">CMOdurObs_ED&lt;1hrObs=1hrBFEnc <b>DENEXPASS </b></div><table class=\"hapiPropertyTable\"><tbody><tr><td>Identifier</td><td>d7110924d65a531d7c4ff727f0066c38</td></tr><tr><td>Date of birth</td><td><span>18 September 1985</span></td></tr></tbody></table></div>"},"extension":[{"url":"http://hl7.org/fhir/us/core/StructureDefinition/us-core-race","extension":[{"url":"ombCategory","valueCoding":{"system":"urn:oid:2.16.840.1.113883.6.238","code":"1002-5","display":"American Indian or Alaska Native","userSelected":true}},{"url":"text","valueString":"American Indian or Alaska Native"}]},{"url":"http://hl7.org/fhir/us/core/StructureDefinition/us-core-ethnicity","extension":[{"url":"ombCategory","valueCoding":{"system":"urn:oid:2.16.840.1.113883.6.238","code":"2135-2","display":"Hispanic or Latino","userSelected":true}},{"url":"text","valueString":"Hispanic or Latino"}]}],"identifier":[{"type":{"coding":[{"system":"http://terminology.hl7.org/CodeSystem/v2-0203","code":"MR"}]},"system":"https://bonnie-fhir.healthit.gov/","value":"633c9d030968f8012250fc86"}],"active":true,"name":[{"use":"usual","family":"DENEXPass","given":["CMOdurObs_ED<1hrObs=1hrBFEnc"]}],"gender":"female","birthDate":"1985-09-18"},"request":{"method":"PUT","url":"Patient/d9dc15b7-bf03-4b72-8dd5-3e4db21f052d"}},{"fullUrl":"https://madie.cms.gov/Condition/5c953f97b848462de0ae4131","resource":{"resourceType":"Condition","id":"8f55a6a3-f808-4e1c-aff9-4ed9ba48352c","meta":{"profile":["http://hl7.org/fhir/us/qicore/StructureDefinition/qicore-condition"]},"clinicalStatus":{"coding":[{"system":"http://terminology.hl7.org/CodeSystem/condition-clinical","code":"inactive"}]},"verificationStatus":{"coding":[{"system":"http://terminology.hl7.org/CodeSystem/condition-ver-status","code":"confirmed"}]},"category":[{"coding":[{"system":"http://terminology.hl7.org/CodeSystem/condition-category","code":"encounter-diagnosis","display":"Encounter Diagnosis"}]}],"code":{"coding":[{"system":"http://hl7.org/fhir/sid/icd-10-cm","code":"I48.20"},{"system":"http://hl7.org/fhir/sid/icd-10-cm","code":"I48.0"},{"system":"http://snomed.info/sct","code":"5370000"}]},"subject":{"reference":"Patient/d9dc15b7-bf03-4b72-8dd5-3e4db21f052d"},"onsetDateTime":"2025-09-30T09:00:00.000Z","abatementDateTime":"2025-10-12T00:15:00.000Z"},"request":{"method":"PUT","url":"Condition/8f55a6a3-f808-4e1c-aff9-4ed9ba48352c"}},{"fullUrl":"https://madie.cms.gov/Encounter/5c953f97b848462de0ae4132","resource":{"resourceType":"Encounter","id":"5b09b9d4-76c4-4194-8da1-6ad31c368568","meta":{"profile":["http://hl7.org/fhir/us/qicore/StructureDefinition/qicore-encounter"]},"status":"finished","class":{"system":"http://terminology.hl7.org/CodeSystem/v3-ActCode","code":"EMER","display":"emergency"},"type":[{"coding":[{"system":"http://snomed.info/sct","code":"4525004"}]}],"subject":{"reference":"Patient/d9dc15b7-bf03-4b72-8dd5-3e4db21f052d"},"period":{"start":"2025-09-30T07:59:00.000Z","end":"2025-09-30T08:00:00.000Z"},"length":{"value":0,"unit":"days"}},"request":{"method":"PUT","url":"Encounter/5b09b9d4-76c4-4194-8da1-6ad31c368568"}},{"fullUrl":"https://madie.cms.gov/Encounter/5c953f97b848462de0ae4133","resource":{"resourceType":"Encounter","id":"8b7cd76e-2d8b-4cdc-ab7d-c3102d002a07","meta":{"profile":["http://hl7.org/fhir/us/qicore/StructureDefinition/qicore-encounter"]},"status":"finished","class":{"system":"http://terminology.hl7.org/CodeSystem/v3-ActCode","code":"OBSENC","display":"observation encounter"},"type":[{"coding":[{"system":"http://snomed.info/sct","code":"448951000124107"}]}],"subject":{"reference":"Patient/d9dc15b7-bf03-4b72-8dd5-3e4db21f052d"},"period":{"start":"2025-09-30T08:01:00.000Z","end":"2025-09-30T10:00:00.000Z"},"length":{"value":0,"unit":"days"}},"request":{"method":"PUT","url":"Encounter/8b7cd76e-2d8b-4cdc-ab7d-c3102d002a07"}},{"fullUrl":"https://madie.cms.gov/Encounter/5c953f97b848462de0ae4134","resource":{"resourceType":"Encounter","id":"24a2c4ed-6057-4320-b871-b9984bb35e07","meta":{"profile":["http://hl7.org/fhir/us/qicore/StructureDefinition/qicore-encounter"]},"status":"finished","class":{"system":"http://terminology.hl7.org/CodeSystem/v3-ActCode","code":"IMP","display":"inpatient encounter"},"type":[{"coding":[{"system":"http://snomed.info/sct","code":"32485007"}]}],"subject":{"reference":"Patient/d9dc15b7-bf03-4b72-8dd5-3e4db21f052d"},"period":{"start":"2025-09-30T11:00:00.000Z","end":"2025-10-12T00:15:00.000Z"},"length":{"value":12,"unit":"days"},"diagnosis":[{"condition":{"reference":"Condition/ischemic-stroke-195f"},"use":{"coding":[{"system":"http://terminology.hl7.org/CodeSystem/diagnosis-role","code":"billing","display":"Billing"}]},"rank":1}]},"request":{"method":"PUT","url":"Encounter/24a2c4ed-6057-4320-b871-b9984bb35e07"}},{"fullUrl":"https://madie.cms.gov/ServiceRequest/5c953f97b848462de0ae4136","resource":{"resourceType":"ServiceRequest","id":"6383793b-b4f6-4f55-b43c-649b8c6344d3","meta":{"profile":["http://hl7.org/fhir/us/qicore/StructureDefinition/qicore-servicerequest"]},"status":"active","intent":"order","code":{"coding":[{"system":"http://snomed.info/sct","code":"133918004"}]},"subject":{"reference":"Patient/d9dc15b7-bf03-4b72-8dd5-3e4db21f052d"},"authoredOn":"2025-09-30T08:01:00.000+00:00"},"request":{"method":"PUT","url":"ServiceRequest/6383793b-b4f6-4f55-b43c-649b8c6344d3"}},{"fullUrl":"https://madie.cms.gov/Coverage/5f2c53cb1c76ba5c99605732","resource":{"resourceType":"Coverage","id":"fcea5283-787b-4837-8e75-9ade5a5a0d60","status":"active","beneficiary":{"reference":"Patient/d9dc15b7-bf03-4b72-8dd5-3e4db21f052d"},"period":{"start":"1985-09-18T08:00:00.000Z"},"payor":[{"reference":"Organization/ec8cac12-7dd8-4c6e-8c44-d6c645085c80"}]},"request":{"method":"PUT","url":"Coverage/fcea5283-787b-4837-8e75-9ade5a5a0d60"}},{"fullUrl":"https://madie.cms.gov/Condition/ischemic-stroke-195f","resource":{"resourceType":"Condition","id":"e3758c6a-a13d-4b1f-8485-cb4506b9bf4b","meta":{"profile":["http://hl7.org/fhir/us/qicore/StructureDefinition/qicore-condition"]},"clinicalStatus":{"coding":[{"system":"http://terminology.hl7.org/CodeSystem/condition-clinical","code":"active"}]},"verificationStatus":{"coding":[{"system":"http://terminology.hl7.org/CodeSystem/condition-ver-status","code":"confirmed"}]},"category":[{"coding":[{"system":"http://terminology.hl7.org/CodeSystem/condition-category","code":"encounter-diagnosis","display":"Encounter Diagnosis"}]}],"code":{"coding":[{"system":"http://snomed.info/sct","version":"2021-09","code":"111297002","display":"Nonparalytic stroke (disorder)","userSelected":true}]},"subject":{"reference":"Patient/d9dc15b7-bf03-4b72-8dd5-3e4db21f052d"},"recordedDate":"2025-10-13T08:00:00.000+00:00"},"request":{"method":"PUT","url":"Condition/e3758c6a-a13d-4b1f-8485-cb4506b9bf4b"}},{"fullUrl":"https://madie.cms.gov/Organization/123456","resource":{"resourceType":"Organization","id":"ec8cac12-7dd8-4c6e-8c44-d6c645085c80","meta":{"profile":["http://hl7.org/fhir/us/qicore/StructureDefinition/qicore-organization"]},"identifier":[{"use":"temp","system":"urn:oid:2.16.840.1.113883.4.4","value":"21-3259825"}],"active":true,"type":[{"coding":[{"system":"http://terminology.hl7.org/CodeSystem/organization-type","code":"pay","display":"Payer"}]}],"name":"Blue Cross Blue Shield of Texas","telecom":[{"system":"phone","value":"(+1) 972-766-6900"}],"address":[{"use":"billing","type":"postal","line":["P.O. Box 660044"],"city":"Dallas","state":"TX","postalCode":"75266-0044","country":"USA"}]},"request":{"method":"PUT","url":"Organization/ec8cac12-7dd8-4c6e-8c44-d6c645085c80"}},{"fullUrl":"https://madie.cms.gov/Practitioner/practitioner-123456","resource":{"resourceType":"Practitioner","id":"b08a50f2-b565-4028-80f8-430c3323b66c","identifier":[{"system":"http://hl7.org/fhir/sid/us-npi","value":"123456"}],"name":[{"family":"Evil","prefix":["Dr"]}]},"request":{"method":"PUT","url":"Practitioner/b08a50f2-b565-4028-80f8-430c3323b66c"}},{"fullUrl":"https://madie.cms.gov/MeasureReport/6caafaab-a434-4408-8e51-7caf1a9a810a","resource":{"resourceType":"MeasureReport","id":"6caafaab-a434-4408-8e51-7caf1a9a810a","meta":{"profile":["http://hl7.org/fhir/us/cqfmeasures/StructureDefinition/test-case-cqfm"]},"contained":[{"resourceType":"Parameters","id":"79fd37b6-f6b2-4eeb-83f6-f1591af61c29-parameters","parameter":[{"name":"subject","valueString":"d9dc15b7-bf03-4b72-8dd5-3e4db21f052d"}]}],"extension":[{"url":"http://hl7.org/fhir/us/cqfmeasures/StructureDefinition/cqfm-inputParameters","valueReference":{"reference":"#79fd37b6-f6b2-4eeb-83f6-f1591af61c29-parameters"}},{"url":"http://hl7.org/fhir/us/cqfmeasures/StructureDefinition/cqfm-testCaseDescription","valueMarkdown":"\"Patient receives CMO order during Observation, ED visit ends 1 minute before Obs starts, Obs ends 60 min before inpatient start. Testing HospitalizationWithObservation function.\n\n\"\n"}],"modifierExtension":[{"url":"http://hl7.org/fhir/us/cqfmeasures/StructureDefinition/cqfm-isTestCase","valueBoolean":true}],"status":"complete","type":"individual","measure":"https://madie.cms.gov/Measure/AnticoagulationTherapyforAtrialFibrillationFlutterFHIR","period":{"start":"2025-01-01","end":"2025-12-31"},"group":[{"population":[{"code":{"coding":[{"system":"http://terminology.hl7.org/CodeSystem/measure-population","code":"initial-population","display":"Initial Population"}]},"count":1},{"code":{"coding":[{"system":"http://terminology.hl7.org/CodeSystem/measure-population","code":"denominator","display":"Denominator"}]},"count":1},{"code":{"coding":[{"system":"http://terminology.hl7.org/CodeSystem/measure-population","code":"denominator-exclusion","display":"Denominator Exclusion"}]},"count":1},{"code":{"coding":[{"system":"http://terminology.hl7.org/CodeSystem/measure-population","code":"numerator","display":"Numerator"}]},"count":0},{"code":{"coding":[{"system":"http://terminology.hl7.org/CodeSystem/measure-population","code":"denominator-exception","display":"Denominator Exception"}]},"count":0}]}]},"request":{"method":"PUT","url":"MeasureReport/6caafaab-a434-4408-8e51-7caf1a9a810a"}}]}