{
  "resourceType": "Bundle",
  "id": "ScreAtriRefAsseModNodxCP",
  "type": "transaction",
  "entry": [ {
    "fullUrl": "https://madie.cms.gov/Patient/d9e3ac3a-8428-4a6f-823a-7625ccdc19d2",
    "resource": {
      "resourceType": "Patient",
      "id": "d9e3ac3a-8428-4a6f-823a-7625ccdc19d2",
      "meta": {
        "profile": [ "http://hl7.org/fhir/us/qicore/StructureDefinition/qicore-patient" ]
      },
      "text": {
        "status": "generated",
        "div": "<div xmlns=\"http://www.w3.org/1999/xhtml\"><div class=\"hapiHeaderText\">ScreAtriRefAsseModNodxCP, <b>mo1111d4p100 </b></div><table class=\"hapiPropertyTable\"><tbody><tr><td>Identifier</td><td>ScreAtriRefAsseModNodxCP</td></tr><tr><td>Date of birth</td><td><span>14 May 1950</span></td></tr></tbody></table></div>"
      },
      "extension": [ {
        "url": "http://hl7.org/fhir/us/core/StructureDefinition/us-core-race",
        "extension": [ {
          "url": "ombCategory",
          "valueCoding": {
            "system": "urn:oid:2.16.840.1.113883.6.238",
            "code": "2106-3",
            "display": "White",
            "userSelected": true
          }
        }, {
          "url": "text",
          "valueString": "White"
        } ]
      }, {
        "url": "http://hl7.org/fhir/us/core/StructureDefinition/us-core-ethnicity",
        "extension": [ {
          "url": "ombCategory",
          "valueCoding": {
            "system": "urn:oid:2.16.840.1.113883.6.238",
            "code": "2186-5",
            "display": "Not Hispanic or Latino",
            "userSelected": true
          }
        }, {
          "url": "text",
          "valueString": "Not Hispanic or Latino"
        } ]
      } ],
      "identifier": [ {
        "type": {
          "coding": [ {
            "system": "http://terminology.hl7.org/CodeSystem/v2-0203",
            "code": "MR"
          } ]
        },
        "system": "https://madie.cms.gov/",
        "value": "ScreAtriRefAsseModNodxCP"
      } ],
      "active": true,
      "name": [ {
        "use": "usual",
        "text": "ScreAtriRefAsseModNodxCP",
        "family": "mo1111d4p100",
        "given": [ "HENRYmo1111d4p100" ]
      } ],
      "gender": "female",
      "birthDate": "1949-05-14",
      "address": [ {
        "text": "ScreAtriRefAsseModNodxCP, Screened Not at risk Assessed Severely Malnourished Diagnosed Care Plan, ID=ScreAtriRefAsseModNodxCP, DOB: 14 May 1950"
      } ]
    },
    "request": {
      "method": "PUT",
      "url": "Patient/d9e3ac3a-8428-4a6f-823a-7625ccdc19d2"
    }
  }, {
    "fullUrl": "https://madie.cms.gov/Encounter/ScreAtriRefAsseModNodxCP-01",
    "resource": {
      "resourceType": "Encounter",
      "id": "ScreAtriRefAsseModNodxCP-01",
      "meta": {
        "profile": [ "http://hl7.org/fhir/us/qicore/StructureDefinition/qicore-encounter" ]
      },
      "status": "finished",
      "class": {
        "system": "http://terminology.hl7.org/CodeSystem/v3-ActCode",
        "code": "IMP",
        "display": "inpatient encounter"
      },
      "type": [ {
        "coding": [ {
          "system": "http://snomed.info/sct",
          "code": "183452005"
        } ]
      } ],
      "subject": {
        "reference": "Patient/d9e3ac3a-8428-4a6f-823a-7625ccdc19d2"
      },
      "period": {
        "start": "2025-02-01T08:00:00.000Z",
        "end": "2025-02-07T08:15:00.000Z"
      }
    },
    "request": {
      "method": "PUT",
      "url": "Encounter/ScreAtriRefAsseModNodxCP-01"
    }
  }, {
    "fullUrl": "https://madie.cms.gov/Observation/ScreAtriRefAsseModNodxCP-18",
    "resource": {
      "resourceType": "Observation",
      "id": "ScreAtriRefAsseModNodxCP-18",
      "meta": {
        "profile": [ "http://hl7.org/fhir/us/qicore/StructureDefinition/qicore-observation" ]
      },
      "status": "final",
      "category": [ {
        "coding": [ {
          "system": "http://terminology.hl7.org/CodeSystem/observation-category",
          "code": "survey",
          "display": "Survey"
        } ]
      } ],
      "code": {
        "coding": [ {
          "system": "http://loinc.org",
          "code": "98967-3",
          "display": "Nutritional Risk Screening 2002 panel",
          "userSelected": true
        } ]
      },
      "subject": {
        "reference": "Patient/d9e3ac3a-8428-4a6f-823a-7625ccdc19d2"
      },
      "effectiveDateTime": "2025-02-01T09:00:00.000+00:00",
      "valueCodeableConcept": {
        "coding": [ {
          "system": "http://snomed.info/sct",
          "code": "129689002",
          "display": "At risk for nutritional problem (finding)",
          "userSelected": true
        } ]
      }
    },
    "request": {
      "method": "PUT",
      "url": "Observation/ScreAtriRefAsseModNodxCP-18"
    }
  }, {
    "fullUrl": "https://madie.cms.gov/Observation/ScreAtriRefAsseModNodxCP-19",
    "resource": {
      "resourceType": "Observation",
      "id": "ScreAtriRefAsseModNodxCP-19",
      "meta": {
        "profile": [ "http://hl7.org/fhir/us/qicore/StructureDefinition/qicore-observation" ]
      },
      "status": "final",
      "category": [ {
        "coding": [ {
          "system": "http://terminology.hl7.org/CodeSystem/observation-category",
          "code": "survey",
          "display": "Survey"
        } ]
      } ],
      "code": {
        "coding": [ {
          "system": "http://loinc.org",
          "code": "75282-4",
          "display": "Nutrition assessment panel",
          "userSelected": true
        } ]
      },
      "subject": {
        "reference": "Patient/d9e3ac3a-8428-4a6f-823a-7625ccdc19d2"
      },
      "effectiveDateTime": "2025-02-01T10:00:00.000+00:00",
      "valueCodeableConcept": {
        "coding": [ {
          "system": "http://snomed.info/sct",
          "code": "102635008",
          "display": "Acute nutritional deficiency (finding)",
          "userSelected": true
        } ]
      }
    },
    "request": {
      "method": "PUT",
      "url": "Observation/ScreAtriRefAsseModNodxCP-19"
    }
  }, {
    "fullUrl": "https://madie.cms.gov/Procedure/ScreAtriRefAsseModNodxCP-12",
    "resource": {
      "resourceType": "Procedure",
      "id": "ScreAtriRefAsseModNodxCP-12",
      "meta": {
        "profile": [ "http://hl7.org/fhir/us/qicore/StructureDefinition/qicore-procedure" ]
      },
      "extension": [ {
        "url": "http://hl7.org/fhir/us/qicore/StructureDefinition/qicore-recorded",
        "valueDateTime": "2025-02-01T11:30:00.000Z"
      } ],
      "status": "completed",
      "code": {
        "coding": [ {
          "system": "http://snomed.info/sct",
          "code": "306165000",
          "display": "Referral to hospital-based dietetics service (procedure)"
        } ],
        "text": "Referral to hospital-based dietetics service (procedure)"
      },
      "subject": {
        "reference": "Patient/d9e3ac3a-8428-4a6f-823a-7625ccdc19d2"
      },
      "encounter": {
        "reference": "Encounter/ScreAtriRefAsseModNodxCP-01"
      },
      "performedPeriod": {
        "start": "2025-02-01T11:30:00.000Z",
        "end": "2025-02-07T08:15:00.000Z"
      }
    },
    "request": {
      "method": "PUT",
      "url": "Procedure/ScreAtriRefAsseModNodxCP-12"
    }
  }, {
    "fullUrl": "https://madie.cms.gov/Procedure/ScreAtriRefAsseModNodxCP-02",
    "resource": {
      "resourceType": "Procedure",
      "id": "ScreAtriRefAsseModNodxCP-02",
      "meta": {
        "profile": [ "http://hl7.org/fhir/us/qicore/StructureDefinition/qicore-procedure" ]
      },
      "extension": [ {
        "url": "http://hl7.org/fhir/us/qicore/StructureDefinition/qicore-recorded",
        "valueDateTime": "2025-02-01T11:30:00.000Z"
      } ],
      "status": "completed",
      "code": {
        "coding": [ {
          "system": "http://snomed.info/sct",
          "code": "229912004",
          "display": "Enteral feeding (regime/therapy)",
          "userSelected": true
        } ],
        "text": "Enteral feeding (regime/therapy)"
      },
      "subject": {
        "reference": "Patient/d9e3ac3a-8428-4a6f-823a-7625ccdc19d2"
      },
      "encounter": {
        "reference": "Encounter/ScreAtriRefAsseModNodxCP-02"
      },
      "performedPeriod": {
        "start": "2025-02-01T11:30:00.000Z",
        "end": "2025-02-07T08:15:00.000Z"
      }
    },
    "request": {
      "method": "PUT",
      "url": "Procedure/ScreAtriRefAsseModNodxCP-02"
    }
  }, {
    "fullUrl": "https://madie.cms.gov/Coverage/ScreAtriRefAsseModNodxCP-61",
    "resource": {
      "resourceType": "Coverage",
      "id": "ScreAtriRefAsseModNodxCP-61",
      "meta": {
        "profile": [ "http://hl7.org/fhir/us/qicore/StructureDefinition/qicore-coverage" ]
      },
      "status": "active",
      "type": {
        "coding": [ {
          "system": "https://nahdo.org/sopt",
          "version": "9.2",
          "code": "11",
          "display": "Medicare Managed Care (Includes Medicare Advantage Plans)"
        } ]
      },
      "beneficiary": {
        "reference": "Patient/d9e3ac3a-8428-4a6f-823a-7625ccdc19d2"
      },
      "period": {
        "start": "2024-10-01T00:00:00+00:00"
      },
      "payor": [ {
        "reference": "Organization/ScreAtriRefAsseModNodxCP-98"
      } ]
    },
    "request": {
      "method": "PUT",
      "url": "Coverage/ScreAtriRefAsseModNodxCP-61"
    }
  }, {
    "fullUrl": "https://madie.cms.gov/Organization/ScreAtriRefAsseModNodxCP-98",
    "resource": {
      "resourceType": "Organization",
      "id": "ScreAtriRefAsseModNodxCP-98",
      "meta": {
        "profile": [ "http://hl7.org/fhir/us/qicore/StructureDefinition/qicore-organization" ]
      },
      "identifier": [ {
        "use": "temp",
        "system": "urn:oid:2.16.840.1.113883.4.4",
        "value": "21-3259825"
      } ],
      "active": true,
      "type": [ {
        "coding": [ {
          "system": "http://terminology.hl7.org/CodeSystem/organization-type",
          "code": "pay",
          "display": "Payer"
        } ]
      } ],
      "name": "Blue Cross Blue Shield of Texas",
      "telecom": [ {
        "system": "phone",
        "value": "(+1) 972-766-6900"
      } ],
      "address": [ {
        "use": "billing",
        "type": "postal",
        "line": [ "P.O. Box 660044" ],
        "city": "Dallas",
        "state": "TX",
        "postalCode": "75266-0044",
        "country": "USA"
      } ]
    },
    "request": {
      "method": "PUT",
      "url": "Organization/ScreAtriRefAsseModNodxCP-98"
    }
  }, {
    "fullUrl": "https://madie.cms.gov/MeasureReport/8d4120df-9403-404d-a8e0-a389f760e16e",
    "resource": {
      "resourceType": "MeasureReport",
      "id": "8d4120df-9403-404d-a8e0-a389f760e16e",
      "meta": {
        "profile": [ "http://hl7.org/fhir/us/cqfmeasures/StructureDefinition/test-case-cqfm" ]
      },
      "contained": [ {
        "resourceType": "Parameters",
        "id": "4dfa7124-d1c0-4c2e-8ce4-0987f0313cac-parameters",
        "parameter": [ {
          "name": "subject",
          "valueString": "d9e3ac3a-8428-4a6f-823a-7625ccdc19d2"
        } ]
      } ],
      "extension": [ {
        "url": "http://hl7.org/fhir/us/cqfmeasures/StructureDefinition/cqfm-inputParameters",
        "valueReference": {
          "reference": "#4dfa7124-d1c0-4c2e-8ce4-0987f0313cac-parameters"
        }
      }, {
        "url": "http://hl7.org/fhir/us/cqfmeasures/StructureDefinition/cqfm-testCaseDescription",
        "valueMarkdown": "Screened, At Risk, Referral, Assessed, Severe Malnutrition, No Diagnosis, Nutrition Care Plan"
      } ],
      "modifierExtension": [ {
        "url": "http://hl7.org/fhir/us/cqfmeasures/StructureDefinition/cqfm-isTestCase",
        "valueBoolean": true
      } ],
      "status": "complete",
      "type": "individual",
      "measure": "https://madie.cms.gov/Measure/GlobalMalnutritionCompositeFHIR",
      "period": {
        "start": "2025-01-01",
        "end": "2025-12-31"
      },
      "group": [ {
        "population": [ {
          "code": {
            "coding": [ {
              "system": "http://terminology.hl7.org/CodeSystem/measure-population",
              "code": "initial-population",
              "display": "Initial Population"
            } ]
          },
          "count": 1
        }, {
          "code": {
            "coding": [ {
              "system": "http://terminology.hl7.org/CodeSystem/measure-population",
              "code": "measure-population",
              "display": "Measure Population"
            } ]
          },
          "count": 1
        }, {
          "code": {
            "coding": [ {
              "system": "http://terminology.hl7.org/CodeSystem/measure-population",
              "code": "measure-population-observation",
              "display": "Measure Population Observation"
            } ]
          },
          "count": 1
        } ]
      }, {
        "population": [ {
          "code": {
            "coding": [ {
              "system": "http://terminology.hl7.org/CodeSystem/measure-population",
              "code": "initial-population",
              "display": "Initial Population"
            } ]
          },
          "count": 1
        }, {
          "code": {
            "coding": [ {
              "system": "http://terminology.hl7.org/CodeSystem/measure-population",
              "code": "measure-population",
              "display": "Measure Population"
            } ]
          },
          "count": 1
        }, {
          "code": {
            "coding": [ {
              "system": "http://terminology.hl7.org/CodeSystem/measure-population",
              "code": "measure-population-observation",
              "display": "Measure Population Observation"
            } ]
          },
          "count": 1
        } ]
      }, {
        "population": [ {
          "code": {
            "coding": [ {
              "system": "http://terminology.hl7.org/CodeSystem/measure-population",
              "code": "initial-population",
              "display": "Initial Population"
            } ]
          },
          "count": 1
        }, {
          "code": {
            "coding": [ {
              "system": "http://terminology.hl7.org/CodeSystem/measure-population",
              "code": "measure-population",
              "display": "Measure Population"
            } ]
          },
          "count": 1
        }, {
          "code": {
            "coding": [ {
              "system": "http://terminology.hl7.org/CodeSystem/measure-population",
              "code": "measure-population-observation",
              "display": "Measure Population Observation"
            } ]
          },
          "count": 0
        } ]
      }, {
        "population": [ {
          "code": {
            "coding": [ {
              "system": "http://terminology.hl7.org/CodeSystem/measure-population",
              "code": "initial-population",
              "display": "Initial Population"
            } ]
          },
          "count": 1
        }, {
          "code": {
            "coding": [ {
              "system": "http://terminology.hl7.org/CodeSystem/measure-population",
              "code": "measure-population",
              "display": "Measure Population"
            } ]
          },
          "count": 1
        }, {
          "code": {
            "coding": [ {
              "system": "http://terminology.hl7.org/CodeSystem/measure-population",
              "code": "measure-population-observation",
              "display": "Measure Population Observation"
            } ]
          },
          "count": 1
        } ]
      }, {
        "population": [ {
          "code": {
            "coding": [ {
              "system": "http://terminology.hl7.org/CodeSystem/measure-population",
              "code": "initial-population",
              "display": "Initial Population"
            } ]
          },
          "count": 1
        }, {
          "code": {
            "coding": [ {
              "system": "http://terminology.hl7.org/CodeSystem/measure-population",
              "code": "measure-population",
              "display": "Measure Population"
            } ]
          },
          "count": 1
        }, {
          "code": {
            "coding": [ {
              "system": "http://terminology.hl7.org/CodeSystem/measure-population",
              "code": "measure-population-observation",
              "display": "Measure Population Observation"
            } ]
          },
          "count": 3
        } ]
      }, {
        "population": [ {
          "code": {
            "coding": [ {
              "system": "http://terminology.hl7.org/CodeSystem/measure-population",
              "code": "initial-population",
              "display": "Initial Population"
            } ]
          },
          "count": 1
        }, {
          "code": {
            "coding": [ {
              "system": "http://terminology.hl7.org/CodeSystem/measure-population",
              "code": "measure-population",
              "display": "Measure Population"
            } ]
          },
          "count": 1
        }, {
          "code": {
            "coding": [ {
              "system": "http://terminology.hl7.org/CodeSystem/measure-population",
              "code": "measure-population-observation",
              "display": "Measure Population Observation"
            } ]
          },
          "count": 75
        } ]
      } ],
      "evaluatedResource": [ {
        "reference": "Patient/d9e3ac3a-8428-4a6f-823a-7625ccdc19d2"
      }, {
        "reference": "Encounter/ScreAtriRefAsseModNodxCP-01"
      }, {
        "reference": "Observation/ScreAtriRefAsseModNodxCP-18"
      }, {
        "reference": "Observation/ScreAtriRefAsseModNodxCP-19"
      }, {
        "reference": "Procedure/ScreAtriRefAsseModNodxCP-12"
      }, {
        "reference": "Procedure/ScreAtriRefAsseModNodxCP-02"
      }, {
        "reference": "Coverage/ScreAtriRefAsseModNodxCP-61"
      }, {
        "reference": "Organization/ScreAtriRefAsseModNodxCP-98"
      } ]
    },
    "request": {
      "method": "PUT",
      "url": "MeasureReport/8d4120df-9403-404d-a8e0-a389f760e16e"
    }
  } ]
}
